time,seconds_elapsed,z,y,x
1761414006708183000,0.05018310546875,1.6634376543670892,-0.015891761941090224,0.39817649391759186
1761414006718196000,0.060196044921875,0.9092097708821296,-0.06612323505319655,0.3702587420854717
1761414006728209000,0.070208984375,0.2900005986958742,0.03070559245236218,0.07752269054371863
1761414006738221000,0.080220947265625,-0.3796469673514366,-0.007584244583919644,-0.05134823871497064
1761414006748234000,0.09023388671875,-1.3625357224285601,-0.3201676272921264,0.1085792518582195
1761414006758247000,0.100246826171875,-2.608199800145626,-0.5188328813321889,0.4659685389658436
1761414006768260000,0.110260009765625,-3.987940339875221,-0.5149511445280164,0.9909102220345288
1761414006778272000,0.12027197265625,-5.554623254886269,-0.1553366921842098,1.5318303589470683
1761414006788285000,0.130284912109375,-7.164168575546145,0.39211394247561693,1.6419563287906347
1761414006798297900,0.1402978515625,-8.742540174785256,0.9650957626245915,1.2760470871515572
1761414006808311000,0.15031103515625,-10.347999102914333,1.4883683799698948,0.5614735339891165
1761414006818323000,0.160322998046875,-11.771174295222758,1.8645125998973846,-0.36852391764950004
1761414006828336000,0.170336181640625,-12.683895873618125,2.028985223086923,-1.1682194573782383
1761414006838348800,0.180348876953125,-13.035219248282909,1.8962810723409056,-1.5666989893630145
1761414006848361000,0.19036083984375,-12.693016753184795,1.5581550329014657,-1.6148542407229542
1761414006858374000,0.200373779296875,-11.727805109095573,1.0876340547956527,-1.2818217250302433
1761414006868387000,0.210386962890625,-10.39569141293764,0.5247505809433758,-0.6180614634558558
1761414006878399700,0.220399658203125,-8.965562748229503,0.02329918865337968,-0.15393120930045842
1761414006888412000,0.230411865234375,-7.691838112676143,-0.4528498584672808,-0.0995377942033112
1761414006898424800,0.2404248046875,-6.674515173077583,-0.8434536886408924,-0.42146717047095295
1761414006908438000,0.25043798828125,-5.708519100612402,-1.0716880053840576,-0.8206250401087105
1761414006918451000,0.260450927734375,-4.692556343451142,-1.2020154901266098,-1.1904229597494005
1761414006928463000,0.270463134765625,-3.620345629367232,-1.40390657434538,-1.4825335363365708
1761414006938475800,0.280475830078125,-2.490102997553348,-1.5824489316806196,-1.7033290813811122
1761414006948489000,0.290489013671875,-1.2971534419357775,-1.5719276837967335,-1.8308133055217564
1761414006958502100,0.300502197265625,-0.18717501499354838,-1.399459385678172,-1.8307246043249963
1761414006968514000,0.31051416015625,0.8950216710537672,-1.1436410425692796,-1.732451423230022
1761414006978527000,0.32052685546875,1.9035411264717579,-0.867123318041861,-1.500431888859719
1761414006988540000,0.330539794921875,2.836283748632669,-0.5902491082269699,-1.076242746078968
1761414006998551800,0.3405517578125,3.713281102696061,-0.38424350136145946,-0.5986727262444794
1761414007008565000,0.35056494140625,4.377722332271933,-0.3582134264394641,-0.14117781845033167
1761414007018578200,0.360578125,4.799347908174991,-0.5087681450441479,0.22406974440962074
1761414007028590800,0.3705908203125,5.000763629966974,-0.7114432192474603,0.4962354112073779
1761414007038603000,0.38060302734375,5.074879252013564,-0.894027326254174,0.6486665912084281
1761414007048616000,0.390615966796875,5.043389888772368,-0.9358900533411652,0.661989452509582
1761414007058629400,0.40062939453125,5.072868496713042,-0.8392745032601058,0.5032805804785341
1761414007068642300,0.410642333984375,5.214269602525234,-0.6642835547961294,0.3002545008804649
1761414007078654200,0.420654296875,5.510575438845157,-0.4576981387486681,0.1099232868783176
1761414007088667400,0.43066748046875,5.916679620489478,-0.25029329607710243,-0.061076619188114994
1761414007098680300,0.440680419921875,6.409436249670386,-0.14547681255219502,-0.17708996656984088
1761414007108692500,0.4506923828125,6.761517749226093,-0.22177675636792554,-0.2915424578430131
1761414007118705200,0.460705078125,6.984731461328268,-0.3551221093606204,-0.4989507345806807
1761414007128718300,0.47071826171875,7.31004010477066,-0.3976153163708746,-0.7404935187734663
1761414007138731300,0.480731201171875,7.662868623301386,-0.38389169224910435,-0.8075375949986279
1761414007148743400,0.490743408203125,7.897818950426578,-0.4522695743612945,-0.7100950195088982
1761414007158756400,0.50075634765625,7.987107007163763,-0.5831723747737705,-0.6499241900540887
1761414007168769300,0.510769287109375,8.027241449153422,-0.6279832110766321,-0.7408917243108153
1761414007178782200,0.5207822265625,7.903128747272491,-0.6265756823662668,-0.9259452171057462
1761414007188794400,0.53079443359375,7.619189056050777,-0.574558129554987,-1.0640544417656959
1761414007198807300,0.540807373046875,7.3127563779920335,-0.4163328032571822,-1.1213804031834005
1761414007208820200,0.5508203125,6.951359937602281,-0.13074088784903287,-1.029863856741786
1761414007218833400,0.56083349609375,6.541691925996542,0.1296009240336716,-0.8409891982235014
1761414007228845300,0.57084521484375,6.056957859751582,0.24564561640173196,-0.7040022555917501
1761414007238858200,0.580858154296875,5.6147191194087265,0.20293474805280565,-0.4895448275275528
1761414007248871400,0.590871337890625,5.237071801441908,0.09839125451669097,-0.1016508408345282
1761414007258883300,0.60088330078125,5.14178362750709,0.05165682974010705,0.22006913046613336
1761414007268896300,0.610896240234375,5.329640195024013,0.40657369885221123,0.07364537418633699
1761414007278909400,0.620909423828125,5.124556013852358,0.8206630340315401,-0.1541205943927169
1761414007288922400,0.63092236328125,4.87158195425868,1.0965597040511668,-0.28034721968770027
1761414007298934300,0.640934326171875,4.630396532136202,1.0972798350192605,-0.18990750869736076
1761414007308947200,0.650947265625,3.820069160288572,0.6570538958035409,0.03384922424033284
1761414007318960400,0.66096044921875,2.575931269225478,0.12810191764757037,0.13015125139281153
1761414007328973300,0.670973388671875,1.1657418152183294,-0.20527590435147283,-0.2600624834846705
1761414007338985500,0.6809853515625,0.0800303990483284,-0.10335632957816124,-1.1330036940250545
1761414007348998400,0.690998291015625,-0.5349743071854114,0.10928834997564553,-2.074823575806618
1761414007359011300,0.70101123046875,-1.1008353355437517,-0.034060382772982116,-2.562622290319204
1761414007369024300,0.711024169921875,-1.5795377204090355,-0.5394701572999357,-2.2920763336777688
1761414007379036400,0.721036376953125,-2.244430200883746,-1.3313655081391333,-1.4116720937803386
1761414007389049300,0.73104931640625,-3.6896225792109965,-1.9999692642219364,-0.3248033242687583
1761414007399062300,0.741062255859375,-6.099882224720716,-1.9380805249333382,0.5928936313863843
1761414007409074400,0.751074462890625,-9.117924223995209,-1.0806186230756343,0.8217113740406929
1761414007419087400,0.76108740234375,-12.496986816084384,-0.20025793005898593,1.2811198603712022
1761414007429100300,0.771100341796875,-15.452543425351381,0.6237890473224222,1.3048193003885447
1761414007439113500,0.781113525390625,-17.862939848983288,0.9444071948610245,0.955056453038752
1761414007449125400,0.79112548828125,-19.586326652878522,0.8133700274791568,0.22688525848807767
1761414007459138300,0.80113818359375,-20.206804822087285,0.5351082357633858,-0.7435904618754983
1761414007469151200,0.811151123046875,-19.429528655970095,0.09184292885176837,-1.017134650484845
1761414007479164400,0.821164306640625,-17.208696188294887,-0.8251629757992923,-0.7342721600405872
1761414007489176300,0.83117626953125,-14.498048405587673,-1.4079802535250783,-0.5535671082461252
1761414007499189500,0.841189453125,-12.205628373038769,-1.802590835122019,-0.41367943920418615
1761414007509202200,0.8512021484375,-10.293010790663956,-2.0444193774536252,-0.4747411530841142
1761414007519214300,0.86121435546875,-8.611949216800928,-2.2825918814957142,-0.507427617155388
1761414007529227300,0.871227294921875,-6.854273774334788,-2.3240929356634616,-0.15802176654972136
1761414007539240400,0.881240478515625,-4.900144031876326,-2.1131632433339953,0.22360461111590266
1761414007549253000,0.891253173828125,-3.1240538117974994,-1.998586285430938,0.5327107461676002
1761414007559265300,0.901265380859375,-1.8660270961135625,-1.9764599399492144,0.6836484727405011
1761414007569278200,0.9112783203125,-0.9411123910993338,-1.773242137171328,0.6356733271878212
1761414007579291400,0.92129150390625,0.05943652383089065,-1.5651542441390454,0.5986554097834974
1761414007589304300,0.93130419921875,1.4001146347165108,-1.3675539889819919,0.7708103311039507
1761414007599316500,0.94131640625,2.8645588260024786,-1.0690141830649227,1.1069124635003507
1761414007609329200,0.9513291015625,4.127198588439822,-0.6424222169261425,1.4059379340425133
1761414007619342300,0.96134228515625,4.841258712187409,-0.13096528945574537,1.6810314709857106
1761414007629355500,0.97135546875,4.8618905813276765,0.07057067944873124,2.0483587627291677
1761414007639367400,0.981367431640625,4.754439091390371,0.03581603080127388,2.3952045535884796
1761414007649380400,0.99138037109375,4.912149526968598,-0.047031581092253326,2.4770251970544455
1761414007659393300,1.001393310546875,5.4920513556390995,-0.19022497714869677,2.5645114650666714
1761414007669405200,1.0114052734375,6.332368792080879,-0.19089794450681655,2.679825066681206
1761414007679418400,1.02141845703125,7.134982813072204,-0.08260130898226052,2.6621999781414867
1761414007689431600,1.031431640625,7.759675969627499,-0.12723642339203506,2.5354206873998044
1761414007699444200,1.0414443359375,8.25360339615345,-0.26271212121061976,2.3548623140670357
1761414007709456400,1.051456298828125,8.59467425687313,-0.3019584187215194,2.1128315271615983
1761414007719469300,1.06146923828125,8.80113206448555,-0.38438765907250344,1.7416614423848689
1761414007729482500,1.071482421875,8.83376709063053,-0.5253705029400065,1.3568947939321399
1761414007739495200,1.0814951171875,8.825993534019588,-0.6939137731019407,1.0235369187425822
1761414007749507300,1.09150732421875,8.858679998090862,-0.7421120598860085,0.7981338068373501
1761414007759520300,1.101520263671875,9.100516577598452,-0.6085437300587072,0.7587092666827142
1761414007769533400,1.111533447265625,9.303635011655091,-0.3027600356942974,0.816760254439339
1761414007779545300,1.12154541015625,9.19709069969058,0.10844305825792253,0.9060296064760536
1761414007789558500,1.13155859375,8.710804727828503,0.49151408177390693,0.7968224319778382
1761414007799571200,1.1415712890625,8.062358939763904,0.7425926830098033,0.5518370330505072
1761414007809584400,1.15158447265625,7.548730202946066,1.0104041001208126,0.39022473119553175
1761414007819596300,1.16159619140625,7.322238492086529,1.3360412448652088,0.3407416287653148
1761414007829609500,1.171609375,7.148845918729901,1.6086558244742453,0.47677704282589256
1761414007839622100,1.1816220703125,6.994546752899884,1.6686586038857698,0.8570977447204291
1761414007849635300,1.19163525390625,7.071920499959588,1.483478708232194,1.2538672579169272
1761414007859647200,1.201647216796875,7.371524793303013,1.2004236908905208,1.2359670056976377
1761414007869660400,1.211660400390625,7.573198873770236,0.6164836927451193,1.153474454319477
1761414007879673300,1.22167333984375,7.542790876024961,-0.08937339693307876,1.0668518904644995
1761414007889686300,1.231686279296875,7.444214766460656,-0.39711518482901154,0.6350485463529825
1761414007899698200,1.2416982421875,6.843510388258099,-0.14780205889567732,-0.12443547669504769
1761414007909711400,1.25171142578125,4.965655491706729,0.2063140152275562,-0.67123666186966
1761414007919724300,1.261724365234375,1.9750147095769643,0.4868205171301961,-0.8069424055844545
1761414007929736400,1.271736328125,-1.2804752788573504,0.7710099453292787,-0.6088610523795709
1761414007939749000,1.2817490234375,-3.8747266331493853,0.9476124937083572,-0.2923168397489935
1761414007949762300,1.29176220703125,-4.965549108722806,1.2296119375824928,-0.41967889881469306
1761414007959775200,1.301775146484375,-4.415039963275194,1.34388114471063,-0.7789494330916553
1761414007969787400,1.311787353515625,-3.1995822232514617,1.2028034256339073,-1.1458361414607614
1761414007979800300,1.32180029296875,-2.6523230195105074,0.9954219273053109,-1.6678896653398871
1761414007989813200,1.331813232421875,-3.551961244449019,0.5587170018225908,-2.242410385493934
1761414007999825200,1.3418251953125,-5.482644644868373,-0.0020198153898119925,-2.5636954725086687
1761414008009838300,1.35183837890625,-7.867618457952141,-0.2631767430476844,-2.3146887091107664
1761414008019851500,1.3618515625,-10.210583851867913,-0.25472820978462696,-1.812996347671747
1761414008029864200,1.3718642578125,-12.211057412350177,-0.2567221600808203,-1.5127154702410102
1761414008039876000,1.3818759765625,-13.63461137484312,-0.23721439959965646,-1.6009481727063655
1761414008049889300,1.39188916015625,-14.655539645457267,-0.0719597591869533,-2.268856640001386
1761414008059902500,1.40190234375,-15.732343532550335,0.17442695790566504,-3.083611619032919
1761414008069915600,1.41191552734375,-16.728291675686837,0.32938115357831116,-3.5164001017242668
1761414008079927600,1.421927490234375,-17.536907567441464,0.2996479863546789,-3.6884418449938297
1761414008089940500,1.4319404296875,-17.85530014788508,0.2439879123225808,-3.7455055022135375
1761414008099953400,1.441953369140625,-17.329457241660357,0.14167970355786383,-3.633419045951962
1761414008109966600,1.451966552734375,-15.832193899834156,-0.10182648966237902,-3.2882734831392764
1761414008119978500,1.461978515625,-13.586668889451026,-0.458568674505502,-2.8443238472253083
1761414008129991400,1.471991455078125,-10.874903500890731,-0.8445807929746806,-2.3417628862582145
1761414008140004400,1.48200439453125,-8.301763908210397,-1.279313103210181,-1.8687034757159648
1761414008150016500,1.4920166015625,-6.116664432695508,-1.7443591570362447,-1.5982248852223158
1761414008160029400,1.502029541015625,-4.5166281141370535,-2.1294494844853875,-1.4513672675698994
1761414008170042600,1.512042724609375,-3.435053943902254,-2.348650746075809,-1.3151019172109664
1761414008180055300,1.52205517578125,-2.6379087097108362,-2.404102876445651,-1.087066191779822
1761414008190067500,1.5320673828125,-2.0053765300929545,-2.1853458514913915,-0.8394089432947337
1761414008200080400,1.542080322265625,-1.483069396778941,-1.6972127904579042,-0.54449415947441
1761414008210093600,1.552093505859375,-0.9024468526184558,-1.1858238684561102,-0.23044651289992032
1761414008220105500,1.56210546875,-0.18258301102817057,-0.7766800999201834,-0.03043956192731857
1761414008230118400,1.572118408203125,0.5539782828629016,-0.41538993291649967,0.18969236810933798
1761414008240131300,1.58213134765625,1.1232862368047236,-0.24516935892580075,0.24596220807023345
1761414008250144500,1.59214453125,1.7769377768188714,-0.1938943133112043,0.27587486004661765
1761414008260156400,1.602156494140625,2.8173604369759557,-0.09002386019844562,0.43877413297221063
1761414008270169600,1.612169677734375,4.156156971898675,0.04729341036621481,0.7508046310380101
1761414008280182300,1.622182373046875,5.504907330080867,0.12670849052779376,1.048651851581037
1761414008290195500,1.632195556640625,6.673665278249978,0.1958277655918151,1.1371262538477778
1761414008300207400,1.642207275390625,7.674225883617996,0.3245873799631372,1.0358437348689884
1761414008310220500,1.652220458984375,8.547652393457293,0.41968927407823503,0.9300651465799659
1761414008320233500,1.6622333984375,9.349786521977185,0.41017274625748396,0.8203381129261106
1761414008330245400,1.672245361328125,10.063708698558807,0.46338601165935395,0.7509824718229472
1761414008340258300,1.68225830078125,10.654874264043569,0.46311530495919284,0.6816627788159996
1761414008350271500,1.692271484375,11.083332316315174,0.4557509867362678,0.6066948873216286
1761414008360284700,1.70228466796875,11.296279485946894,0.4907058341309428,0.5682025865158066
1761414008370296600,1.712296630859375,11.309684910964965,0.5394765139754861,0.49464328317772593
1761414008380309200,1.722309326171875,11.086413915717602,0.6213442845188081,0.4063332411598414
1761414008390322400,1.732322509765625,10.689855561053752,0.7299963824175297,0.42444403085727245
1761414008400335600,1.742335693359375,10.22705684776306,0.8404192893810569,0.44335872081611305
1761414008410347500,1.752347412109375,9.823367326045036,0.9982169648513197,0.3594961231937632
1761414008420360400,1.7623603515625,9.54299438739419,1.2122802790313958,0.2243678505733609
1761414008430373400,1.772373291015625,9.172326845312117,1.4111359410770237,0.1470708585442975
1761414008440385300,1.78238525390625,8.672135097694396,1.654568849865347,0.005391739508323371
1761414008450398500,1.7923984375,8.099380218169093,1.9831807726368307,-0.1297919530937448
1761414008460411600,1.80241162109375,7.553358447268605,2.3369582624554632,-0.19594211268648504
1761414008470424300,1.81242431640625,7.014477780294418,2.5651579462766647,-0.14426946432273835
1761414008480436500,1.8224365234375,6.4365966437965625,2.5979285815000535,-0.024283779243938625
1761414008490449400,1.832449462890625,5.5723395288407795,2.225764224988967,0.09080640714457258
1761414008500462600,1.842462646484375,4.167447012197971,1.3879529261492192,0.230110924270004
1761414008510474500,1.852474609375,2.4989205102592704,0.31398966930955646,0.6093398854050784
1761414008520487400,1.8624873046875,1.2609785512268543,-0.6954936627045273,1.0962446467526257
1761414008530500400,1.872500244140625,1.0361071350455284,-1.5434173363663255,1.333494044600427
1761414008540513500,1.882513427734375,1.5885948870897293,-1.9660922751918435,1.0635445925474167
1761414008550525400,1.892525390625,1.958961400398612,-1.7594255010038613,0.36979580074883994
1761414008560538600,1.90253857421875,1.0888327630609274,-1.238361938010156,-0.22477807534206656
1761414008570551300,1.91255126953125,-0.8111439489275216,-1.0061242308445275,-0.049608080516755575
1761414008580564500,1.922564453125,-2.7427216678380963,-1.0109561810456216,0.23533008369039743
1761414008590576400,1.932576416015625,-4.200733195728064,-1.0339126937411725,0.2689811184775084
1761414008600589600,1.942589599609375,-4.893095282408595,-0.6070825349323451,-0.23418237495999783
1761414008610602500,1.9526025390625,-5.3366451053500175,-0.12032222355678678,-1.0945321437463165
1761414008620614700,1.96261474609375,-5.624481804010272,0.12239230782911181,-2.0922899666532873
1761414008630627300,1.97262744140625,-6.091593704324961,0.0159435651935637,-2.735773748396337
1761414008640640500,1.982640625,-7.464523979517817,-0.43868850051537156,-2.5518457524999976
1761414008650653400,1.9926533203125,-9.170210876071453,-0.6984986897394061,-1.9258073188155889
1761414008660665600,2.00266552734375,-10.542784008389711,-0.08352525542676448,-1.1153854005523025
1761414008670678300,2.01267822265625,-11.661989113360642,0.9843487446270882,-0.5243165734402835
1761414008680691500,2.02269140625,-12.852675400221347,1.814489362708479,-0.4008375663530081
1761414008690704400,2.032704345703125,-14.393206221365928,2.1937124055594204,-0.8524586867429316
1761414008700716500,2.042716552734375,-15.426218897527455,2.1267842107988892,-1.72648272408396
1761414008710729500,2.0527294921875,-14.918538255459069,1.8097288703083991,-2.4804776755958793
1761414008720742400,2.062742431640625,-13.367861303353308,1.249014849449694,-2.7103596134155987
1761414008730754300,2.07275439453125,-11.636109991216658,0.40090003712996836,-2.316086300949007
1761414008740767500,2.082767578125,-10.078315900582075,-0.3523699611082673,-2.008017107729614
1761414008750780400,2.092780517578125,-8.463665365737675,-0.8569577517278492,-1.6721593054831028
1761414008760793300,2.10279345703125,-6.758513306713104,-1.149726938354224,-1.2241073488168417
1761414008770805200,2.11280517578125,-5.280027730593085,-1.2300691798307002,-0.8241204810090362
1761414008780818400,2.122818359375,-4.303804863145947,-1.2044817341096699,-0.3664282605445012
1761414008790831600,2.13283154296875,-3.745468969595432,-1.1777449722230433,0.0431067905976437
1761414008800843500,2.142843505859375,-3.325712110173702,-1.1287225095745175,0.2694908215653151
1761414008810856400,2.1528564453125,-2.9272715950250623,-1.036338240387663,0.368144745606184
1761414008820869400,2.162869384765625,-2.3163661408036944,-0.8787569841470569,0.5062102041896432
1761414008830882600,2.172882568359375,-1.4278928684800862,-0.7140951219957321,0.755505136879161
1761414008840894500,2.18289453125,-0.27158874369263647,-0.5982620996169745,1.053802220081538
1761414008850907600,2.19290771484375,1.2140110483467579,-0.4776639451956376,1.2108537533596158
1761414008860920300,2.20292041015625,2.797637499374151,-0.5152828241677955,1.3000510630734263
1761414008870933500,2.21293359375,4.3183506903707976,-0.6103282388553023,1.2560362725190817
1761414008880945400,2.2229453125,5.708848186436295,-0.7451170869208872,1.129922533014044
1761414008890958600,2.23295849609375,6.9239961298584936,-0.8238460479818284,1.0272512630905954
1761414008900971500,2.242971435546875,7.870639851599932,-0.8452662910208105,0.9852679052986204
1761414008910983700,2.252983642578125,8.60916747712791,-0.7851635583661496,0.9579940408606081
1761414008920996400,2.262996337890625,9.319739174237847,-0.6763272630069405,0.8464248864714056
1761414008931009500,2.273009521484375,9.898452669906616,-0.5759285411253571,0.6803581990234553
1761414008941022500,2.2830224609375,10.267084906768797,-0.5306580148888752,0.6259192642841488
1761414008951034600,2.29303466796875,10.477685805535316,-0.5102051555773243,0.6859947436057031
1761414008961047300,2.30304736328125,10.597115318036078,-0.5091950286867096,0.6966796576187014
1761414008971060500,2.313060546875,10.641087730753421,-0.5795124274941161,0.812989576794207
1761414008981073400,2.323073486328125,10.437667098879814,-0.4170044554410502,1.0269254652023314
1761414008991085600,2.33308544921875,9.926465296947956,-0.2862403328469023,1.226767069545388
1761414009001098500,2.343098388671875,9.320593745240568,-0.6217843564365059,0.9880543211467564
1761414009011111400,2.353111328125,8.820691920480131,-1.0064648609757423,0.16500594461495055
1761414009021123300,2.363123291015625,8.321969076371193,-1.0049313677981495,-1.1062576528534294
1761414009031136500,2.373136474609375,7.72918146264255,-0.9231326439030468,-2.48392693926692
1761414009041149400,2.3831494140625,7.114173249277472,-0.9412222081493585,-3.4056752892047166
1761414009051162400,2.393162353515625,6.5617538862943645,-0.8418466918356716,-3.630338031071424
1761414009061174800,2.4031748046875,6.2130468316078185,-0.5057208863027394,-2.9952772097587586
1761414009071187700,2.413187744140625,6.2249061962276695,-0.12489793397448956,-1.5804473825998604
1761414009081201000,2.423200927734375,6.537967937037348,0.17733159330599008,-0.008070886456547305
1761414009091212800,2.433212890625,6.936072352099418,0.31433380657210946,1.0064170763112603
1761414009101225700,2.443225830078125,7.054404132491349,0.32158845387548207,1.444776344872266
1761414009111238700,2.45323876953125,6.827772720900177,0.5522536510273814,1.4807609737060963
1761414009121251800,2.463251953125,6.042872051253915,0.9035932461746037,1.300101478086412
1761414009131263700,2.473263671875,4.200321692317724,1.0187684622317552,0.9588892361346631
1761414009141277000,2.48327685546875,1.5469231525301932,0.8872010604307055,0.5175457275984808
1761414009151289900,2.493289794921875,-1.104029747670889,0.8789407432161271,0.1595768505046144
1761414009161302800,2.503302734375,-2.8082611847192047,0.644277562469244,0.5127683936614543
1761414009171314700,2.513314697265625,-2.7902362832069394,-0.029117081151902674,1.5543883738443254
1761414009181328000,2.523327880859375,-1.4383248306453227,-0.5780253672741353,2.147263373595476
1761414009191340800,2.5333408203125,-0.5728992564320564,-0.5394936843059956,1.818679361744225
1761414009201353000,2.54335302734375,-1.523907603123784,-0.3675844813749194,1.012438601623103
1761414009211366000,2.553365966796875,-4.525394188916683,-0.35223332911655303,0.015979732485488056
1761414009221378800,2.56337890625,-8.304380228188634,-0.38419133278280493,-0.8441277885101736
1761414009231392000,2.57339208984375,-11.466441991341114,-0.28102380377501246,-1.1586957691643387
1761414009241404000,2.58340380859375,-13.861253892350197,0.08474734456762671,-1.2102373750269413
1761414009251416800,2.593416748046875,-15.472806461179255,0.5466390260159969,-1.2827131209120153
1761414009261429800,2.6034296875,-16.30233303901553,0.8002040372401475,-1.363727854822576
1761414009271442000,2.61344189453125,-17.019025849354268,0.7959186150059103,-1.4450119071938097
1761414009281454800,2.623454833984375,-17.88046264619231,0.7449937528021633,-1.5753072432324289
1761414009291468000,2.633468017578125,-18.325899890315533,0.6879186974056065,-1.5789491068661212
1761414009301480700,2.643480712890625,-17.632056040644645,0.45034708186611533,-1.5130838651619851
1761414009311492900,2.653492919921875,-15.58551864812374,-0.027919688060879706,-1.663868008608371
1761414009321505800,2.663505859375,-12.750787389630078,-0.7410150584295392,-1.7643233560480176
1761414009331519000,2.67351904296875,-10.004127213299274,-1.598086061273515,-1.6726055879458783
1761414009341531600,2.68353173828125,-7.611449401709437,-2.2401956320539114,-1.6581223045632243
1761414009351543800,2.693543701171875,-5.653932354900241,-2.7563869128361342,-1.5702949680283664
1761414009361556700,2.703556640625,-4.441577841588854,-3.111728875492513,-1.4732934143044054
1761414009371570000,2.71356982421875,-3.7262358613371847,-3.1017355970054865,-1.2803390852570533
1761414009381581800,2.723581787109375,-3.0444957064360376,-2.877356640516221,-0.9449137561436742
1761414009391595000,2.733594970703125,-2.11916832896769,-2.480963413286209,-0.4007847036546096
1761414009401607700,2.743607666015625,-1.108421260628104,-1.8791266700528562,0.23326832885500043
1761414009411620900,2.753620849609375,-0.037353871360421176,-1.2136859080456197,0.7405353120885789
1761414009421632800,2.7636328125,1.0214350510925054,-0.7551955594733357,1.0772882365439087
1761414009431646000,2.77364599609375,1.925298200249672,-0.5795362102285028,0.9560611000366508
1761414009441658600,2.78365869140625,2.8162568596482274,-0.4123341620750725,0.3696758276309818
1761414009451670800,2.7936708984375,4.014191217941046,-0.2822470619596541,-0.10660696540456265
1761414009461683700,2.80368359375,5.351180995702744,-0.07824936085045338,-0.27623698962358756
1761414009471697000,2.81369677734375,6.569982200935483,0.24769056623280047,-0.18630594054143876
1761414009481709800,2.823709716796875,7.549087345820665,0.6757219175249338,0.0975680193671491
1761414009491722000,2.833721923828125,8.234400098511577,0.9924055020935832,0.41012492506038395
1761414009501734700,2.843734619140625,8.66696383253634,1.3312151398830114,0.6441349391281604
1761414009511747800,2.853747802734375,8.885475066035985,1.4952907265789805,0.8833632358334959
1761414009521759700,2.863759765625,9.097570002752542,1.6176050007358191,1.0388450355768204
1761414009531773000,2.87377294921875,9.416037401998043,1.7105042337074874,1.1441642627257853
1761414009541785600,2.88378564453125,9.711976743093132,1.650108071064204,1.1506444185253233
1761414009551798800,2.893798828125,10.137215833318233,1.538546807720512,0.9957603654794395
1761414009561810700,2.903810791015625,10.537314052546023,1.3447307472772896,0.8914674857035279
1761414009571823900,2.913823974609375,10.601111109673976,1.1128357160694897,0.8968436257839202
1761414009581837000,2.923837158203125,10.438541543626785,1.124422401227802,0.8969692249249667
1761414009591849700,2.933849609375,9.970928708052634,1.255134209112823,1.005031686367467
1761414009601861600,2.943861572265625,9.37723333182931,1.4760205011807381,1.1192396648276597
1761414009611874800,2.953874755859375,8.68703046900928,1.6689264610417187,1.1726618237398565
1761414009621888000,2.963887939453125,7.90197314749658,1.8313726929701863,1.0942159904692321
1761414009631900000,2.97389990234375,7.082124498587846,1.8969129405036567,0.9486354800805449
1761414009641912800,2.983912841796875,6.459927250501513,1.895361765538901,0.6751943134542554
1761414009651925800,2.99392578125,6.11772241731584,1.8533274812772869,0.35705830158758906
1761414009661939000,3.00393896484375,5.994342121362686,1.637972958242893,0.07711111406814307
1761414009671950800,3.013950927734375,5.953953996872902,1.2665230336114763,-0.035462595987413074
1761414009681964000,3.023964111328125,5.968240880900621,0.6914766821481287,-0.016687022238317875
1761414009691976700,3.033976806640625,5.9213815145701165,0.15802520061582326,0.02568281412059441
1761414009701988900,3.04398876953125,5.417997108390927,0.028814591073989867,-0.1848058564431034
1761414009712001800,3.054001708984375,4.2087189337849615,0.30945246427133677,-0.46637785041909663
1761414009722015000,3.064014892578125,2.1508827331364153,0.664485799369961,-0.5655095845721662
1761414009732027600,3.074027587890625,-0.8162550083309411,1.0697107139617203,-0.41456557438895103
1761414009742039800,3.084039794921875,-3.624213410711288,1.2481278374820948,-0.11993209172803908
1761414009752052700,3.094052734375,-5.332178773590922,0.8629371183983982,0.4698342379506677
1761414009762066000,3.10406591796875,-5.317751604309678,-0.09940408482104539,1.002222401100397
1761414009772078800,3.114078857421875,-3.9782700097322463,-0.8165184085074811,0.7377420281082391
1761414009782091000,3.124091064453125,-3.200810888263583,-0.8349513062987476,-0.46228985045310106
1761414009792103700,3.134103759765625,-4.586860757270455,-0.38142354856990274,-1.4717626976057887
1761414009802116900,3.144116943359375,-7.903425099870562,-0.041810047051683064,-1.3630113771162926
1761414009812128800,3.154128662109375,-11.206713196790218,0.023781711473315953,-0.6991719858910888
1761414009822142000,3.164141845703125,-13.637307189798355,0.3016014585100114,-0.09706108362516387
1761414009832154600,3.174154541015625,-14.817667312955855,0.925317148335278,0.22696617823718115
1761414009842167800,3.184167724609375,-14.746346290063856,1.2630170713171363,0.31445206265691666
1761414009852179700,3.1941796875,-14.564886145585774,1.328618839779496,-0.11577983088679611
1761414009862193000,3.20419287109375,-14.913274051320553,1.3532330565541981,-1.0960185829117894
1761414009872205800,3.214205810546875,-15.576334640192984,1.09077447171323,-1.769752833750844
1761414009882218800,3.22421875,-16.150664806210994,0.7994494194805621,-1.9755904636383055
1761414009892230700,3.234230712890625,-15.783856277644633,0.750284406556189,-1.7822941892854869
1761414009902243800,3.244243896484375,-13.964536572170257,0.7148435292102396,-1.240122810202837
1761414009912256800,3.2542568359375,-11.159341204762459,0.41775063416585323,-0.6800634538605809
1761414009922269000,3.26426904296875,-8.42740338126719,-0.22572657170593738,-0.3140950293801725
1761414009932281900,3.27428173828125,-5.974183714953065,-1.0748365325428544,-0.11677936331816018
1761414009942294800,3.284294677734375,-3.6144197464495895,-1.9221409052625298,-0.10103525708629749
1761414009952306700,3.294306640625,-1.6508032137215136,-2.7192709418848153,-0.13297502184296026
1761414009962320000,3.30431982421875,-0.3128729402393102,-3.1859768917471167,-0.1421766384956427
1761414009972332800,3.314332763671875,0.6913561245083808,-2.984764583572745,-0.007914672981528564
1761414009982345700,3.324345703125,1.8532564618676899,-2.2147034634009004,0.47517373581510036
1761414009992357600,3.334357666015625,3.3223657223552463,-1.3063010633789003,1.1485417471576482
1761414010002370800,3.344370849609375,4.836050622150301,-0.6207267371423543,1.4079139102905989
1761414010012384000,3.354384033203125,5.881876602655649,-0.19208426821455357,1.1519342391401528
1761414010022397000,3.36439697265625,6.438796784189343,-0.09018734366446733,0.5898641640299931
1761414010032408800,3.374408935546875,6.552915915322304,-0.28023703731149435,0.009325169967114924
1761414010042421800,3.384421875,6.729456723576784,-0.3915706293791532,-0.28361984815020114
1761414010052435000,3.39443505859375,7.160790039023756,-0.4021852546349168,-0.3259111759128049
1761414010062446000,3.404446044921875,7.683262592032551,-0.2703412278495729,-0.11289901475347577
1761414010072459300,3.414459228515625,8.081231982538103,0.13350823367051778,0.30327554746838287
1761414010082472200,3.42447216796875,8.262626076042652,0.6621468350283801,0.8443243339955806
1761414010092485000,3.434485107421875,8.101462285140157,1.0442393689010292,1.4370705928005276
1761414010102497000,3.4444970703125,7.62119805778563,1.2529647561192512,1.871711425360292
1761414010112510200,3.45451025390625,7.382530171442031,1.394675658532977,1.9866447954855857
1761414010122523400,3.4645234375,7.420054723194241,1.363213913951069,1.7045982245340943
1761414010132535300,3.474535400390625,7.571099271142482,1.0998857797339558,1.2087097270682454
1761414010142548000,3.4845478515625,7.8855059968203305,0.840970347392559,0.6654182579144835
1761414010152561200,3.49456103515625,8.130878933760524,0.6182170924089848,0.3369476433098316
1761414010162574300,3.50457421875,8.04720404073,0.4850154404696077,0.22109688434498384
1761414010172586200,3.514586181640625,7.662019312995672,0.4606156701631844,0.15031104604192078
1761414010182599400,3.524599365234375,6.878523249450326,0.5268984796922653,0.14653950988026335
1761414010192612000,3.534612060546875,5.9177457884162665,0.8312484331928193,0.19727493219282477
1761414010202625300,3.544625244140625,5.049945886287093,1.2380547717571257,0.5017226835120469
1761414010212637200,3.55463720703125,4.275502313247323,1.4748537954889236,0.9539829055231064
1761414010222650400,3.564650390625,3.653205696439743,1.5378950658135115,1.1811053885668517
1761414010232663000,3.5746630859375,3.288119169360399,1.4359522562950848,1.0548369699567555
1761414010242675200,3.58467529296875,3.091722737035155,1.05967739572525,0.6622325405504554
1761414010252688100,3.594688232421875,3.2586814779520035,0.6872846372857689,0.20055026406906545
1761414010262701300,3.604701416015625,3.623040859800577,0.39804479382932184,-0.1202725391961634
1761414010272714200,3.61471435546875,3.667297350156307,0.2123120865985751,-0.3335122620336711
1761414010282726400,3.624726318359375,3.177323045170307,0.21296192880943415,-0.4347286569736898
1761414010292739000,3.634739013671875,2.4293489613831043,0.22627909102216362,-0.3940628845863044
1761414010302752300,3.644752197265625,1.6693138529241085,0.014466039986908435,-0.17398317792722953
1761414010312764200,3.65476416015625,1.0760668049901723,-0.7539168447744101,0.34056524928510185
1761414010322777300,3.66477734375,1.1237748971045016,-1.8335706414058803,1.0679941193021834
1761414010332790000,3.6747900390625,1.5341139398396015,-1.8674293641269206,0.8372022270306945
1761414010342803200,3.68480322265625,0.960724269542098,-0.904784501785785,-0.23883485867464913
1761414010352815000,3.694815185546875,-0.30327801342010496,-0.19846110977008938,-1.0241929714985192
1761414010362828300,3.704828369140625,-1.5978396852970123,-0.23801417167522013,-1.264604632769525
1761414010372841200,3.71484130859375,-3.10131883289814,-0.6421982719771564,-1.390188576246798
1761414010382853400,3.724853271484375,-4.458234961879253,-0.9560609539061784,-1.5054516167178749
1761414010392866000,3.734865966796875,-5.543820705842972,-1.1445539196304977,-1.3960606831505893
1761414010402879200,3.744879150390625,-6.457782639688253,-1.0027687098715454,-1.1074427709847687
1761414010412892200,3.75489208984375,-7.102171845838427,-0.6323438905041664,-1.3219779404602945
1761414010422904300,3.764904296875,-8.08875536378026,-0.5390676409136503,-2.0047208426631986
1761414010432917000,3.7749169921875,-9.958592958092689,-0.5578652803640812,-2.86297974011749
1761414010442930200,3.78493017578125,-12.429914098286629,-0.5222622712589801,-3.557366610623896
1761414010452942000,3.794942138671875,-15.07842603507638,-0.10095978983044623,-3.887640767519176
1761414010462955300,3.804955322265625,-17.400314154171944,0.6075461338561028,-3.7633424799382684
1761414010472968200,3.81496826171875,-19.158746552485226,1.2617854836955666,-3.30866014534682
1761414010482981000,3.824981201171875,-20.113971055567262,1.620370519926399,-2.855577647167444
1761414010492993000,3.834992919921875,-19.12591278889775,1.7601099761366843,-2.483639646758139
1761414010503006200,3.845006103515625,-15.98267087702751,1.370407332586497,-1.9735965133421123
1761414010513019100,3.85501904296875,-12.573535802757739,0.6387772114872932,-1.696115789001435
1761414010523032000,3.865031982421875,-9.818801041042803,-0.02784362714998424,-1.7564913472481072
1761414010533044200,3.875044189453125,-7.421764449721574,-0.8662002118475735,-1.58649981450662
1761414010543057200,3.88505712890625,-5.300563153621554,-1.656215740289539,-1.1116359848909079
1761414010553070300,3.8950703125,-3.5758331184238195,-2.0686032399870453,-0.5282770380364731
1761414010563082200,3.905082275390625,-2.050353735938668,-2.2177536447517574,-0.14035652866270393
1761414010573095400,3.915095458984375,-0.4198252484828233,-2.1738573660105467,0.12228818986751139
1761414010583108000,3.925108154296875,1.2148235337734221,-2.037576087430119,0.294668152115494
1761414010593121300,3.935121337890625,2.5048288575202227,-1.841294513656199,0.43373533508740364
1761414010603133200,3.94513330078125,3.409951066827774,-1.4669453604519367,0.7154488016270101
1761414010613146400,3.955146484375,4.081850795716047,-1.0419593682050705,1.1089281872369348
1761414010623159300,3.9651591796875,4.867075290489196,-0.6069980715192854,1.533857334730029
1761414010633171200,3.975171142578125,5.93226589667797,-0.17461422410607336,1.9874851918324827
1761414010643184000,3.98518408203125,7.251472180467844,0.36964039099141954,2.47714736212939
1761414010653197300,3.995197265625,8.506042033696174,1.0138897502794861,2.852297018061578
1761414010663210200,4.005210205078125,9.454940256366132,1.7355676555544137,3.1081060088202355
1761414010673222400,4.015222412109375,10.163616348987818,2.4105871238984165,3.1438992067351936
1761414010683235000,4.025235107421875,10.409541074591875,2.6464891987904906,2.9913775719717144
1761414010693248300,4.035248291015625,10.022698642778396,2.6607152925416826,2.718690219387412
1761414010703260200,4.04526025390625,9.512233338427544,2.8067338290214536,2.513783732870221
1761414010713273300,4.0552734375,9.266470525386929,3.045965486727655,2.564558519078791
1761414010723286300,4.065286376953125,9.32171018204987,3.1667323853120206,2.8084888559952375
1761414010733299200,4.07529931640625,9.585444120588898,3.0631635820269585,3.0152699042126536
1761414010743311000,4.08531103515625,9.943439812624455,2.769071914625168,3.095404640418291
1761414010753324300,4.09532421875,10.274010322117805,2.5091090190574525,3.0344255633205175
1761414010763337200,4.105337158203125,10.472432122790813,2.2620392150714994,2.8979233354657885
1761414010773349400,4.115349365234375,10.485915873742103,2.0199378471478817,2.741836993958056
1761414010783362000,4.125362060546875,10.203367344617844,1.803225772024691,2.350797110454738
1761414010793375200,4.135375244140625,9.471666350239515,1.6013877331674098,1.6860881698533892
1761414010803388200,4.14538818359375,8.10550133139789,1.4908938067942856,0.9047401511874049
1761414010813400300,4.155400390625,6.289039353442192,1.5683714526198804,0.2641841665245592
1761414010823413200,4.165413330078125,4.690590011814236,1.6383631266042589,-0.15723653445616365
1761414010833426200,4.17542626953125,3.625916122975945,1.4906167434185742,-0.2684443081870675
1761414010843438000,4.18543798828125,3.2143443235754963,1.2951906174302101,-0.24299393284916876
1761414010853451300,4.195451171875,3.4703631576925513,1.084348311123252,-0.1837862493380904
1761414010863464200,4.205464111328125,3.782030813795328,0.9696833826757967,-0.2736898806903511
1761414010873477000,4.21547705078125,3.3982460159868,0.9613606677494942,-0.5662216783642768
1761414010883489000,4.225489013671875,2.1043249801009893,0.7381304429039358,-0.688625895826891
1761414010893502200,4.235502197265625,0.4173690875023603,-0.04072100970596075,-0.31254736154675483
1761414010903515100,4.24551513671875,-0.7334475457847118,-1.2329055723004043,0.6377966760173439
1761414010913527300,4.25552734375,-1.345092420196533,-1.8461951451793313,1.046878850559145
1761414010923540200,4.265540283203125,-2.459038581725955,-1.1848049737371504,0.006971008056402206
1761414010933553200,4.27555322265625,-4.363923524022102,-0.14485541098453103,-1.187358676807955
1761414010943566300,4.28556640625,-6.685671942386031,0.1363862733248621,-1.3480740663558244
1761414010953578200,4.295578125,-8.563913792428373,-0.25892113142982126,-0.85880732511729
1761414010963591200,4.305591064453125,-8.710763811296225,-0.6761259682811797,-0.6082160324743017
1761414010973604000,4.31560400390625,-6.817327899253368,-0.43422845236659047,-0.7840028440237045
1761414010983616000,4.325615966796875,-4.680931956630945,-0.34822387427948415,-0.5530587568651885
1761414010993629200,4.335629150390625,-4.014663511627912,-0.6523373886756598,-0.4406870904540643
1761414011003642400,4.345642333984375,-4.827371056610345,-1.2990958081752062,-0.3752547237418592
1761414011013655300,4.3556552734375,-6.358181278729439,-1.8478993187487125,-0.18704086721986532
1761414011023667200,4.365667236328125,-7.753549595701694,-1.9217026599757372,0.0917670414708089
1761414011033680100,4.37568017578125,-9.078745475295186,-1.4600718214206396,-0.10321707637109793
1761414011043693300,4.385693359375,-10.928908647322654,-0.7247039020325988,-0.623243834529817
1761414011053706200,4.395706298828125,-13.773892419761419,-0.11876746839545667,-0.8776105175256729
1761414011063719000,4.405718994140625,-17.02864006539583,0.5359416909128427,-1.1017322113182395
1761414011073731600,4.415731689453125,-19.76599114611149,1.4944886164158582,-1.5881811917223034
1761414011083744800,4.425744873046875,-20.703634399795533,2.251200425671041,-1.8259803324073551
1761414011093756700,4.435756591796875,-18.771553407537937,2.449230304417014,-1.294094054365158
1761414011103769900,4.445769775390625,-14.351080897819996,1.8700784173309801,-0.5053855168685317
1761414011113782500,4.455782470703125,-10.02095676754713,0.9449999000571667,-0.5605794346936047
1761414011123795700,4.465795654296875,-6.8862646573573345,-0.14145561247840524,-1.2150066352553666
1761414011133807600,4.4758076171875,-4.690816221785545,-1.3930074330598115,-1.4945105359867215
1761414011143820800,4.48582080078125,-3.025662411150336,-2.398141922214627,-1.3879561410196124
1761414011153833700,4.495833740234375,-1.553861427360773,-2.9365473728924987,-1.0656913222525268
1761414011163846000,4.505845947265625,-0.015065467184782027,-3.060366352523863,-0.5767768285177648
1761414011173858600,4.515858642578125,1.5891934375047683,-2.9320681816518306,-0.109571486899117
1761414011183871700,4.525871826171875,3.0551211453467606,-2.5838842740565537,0.15489066544976085
1761414011193884700,4.535884765625,4.170665974244475,-2.132462256435305,0.3143661014065146
1761414011203896800,4.545896728515625,5.16492777172923,-1.567078928591311,0.529485171717219
1761414011213909500,4.555909423828125,6.163168409717082,-1.1806221350945532,0.8374406388964504
1761414011223922700,4.565922607421875,7.331209149527549,-0.8794861021392046,1.1001267488829791
1761414011233934600,4.5759345703125,8.737485229483246,-0.5224276909537613,1.1681338249213993
1761414011243947800,4.58594775390625,10.10695396604538,-0.15543737607970834,1.1392227877356111
1761414011253960700,4.595960693359375,11.233699403393269,0.28370208307355643,0.8762780268128961
1761414011263973600,4.6059736328125,11.799204457920789,0.7176112403579056,0.49584042054042216
1761414011273985500,4.615985595703125,11.568590698695182,1.042301313510537,0.2755364036061801
1761414011283998700,4.625998779296875,10.53271503431797,1.177023964472115,0.3754817374307662
1761414011294011600,4.63601171875,9.429933240881562,1.2728297325402498,0.7851727645859122
1761414011304023800,4.64602392578125,9.003793986946343,1.4746514047846198,1.1503452894482762
1761414011314036500,4.656036376953125,9.198276694604754,1.6193023061729968,1.426221574267
1761414011324049700,4.666049560546875,9.870686711102724,1.6657950311481953,1.6301577544473111
1761414011334062800,4.676062744140625,10.687828439140318,1.5506186460472642,1.6546737715445459
1761414011344074800,4.68607470703125,11.344959637963772,1.4726549702703953,1.488157075306773
1761414011354087700,4.696087646484375,11.637250977945326,1.2118773973189294,1.4014796394594013
1761414011364100600,4.7061005859375,11.457170305126905,0.9339980290494858,1.2742968824833631
1761414011374112500,4.716112548828125,10.752384205681086,0.8241174122691154,1.0592511331371963
1761414011384125700,4.726125732421875,9.75174352081418,0.9509007946640252,0.8386213000483811
1761414011394139000,4.736138916015625,8.577626091438532,1.1439875179193912,0.7753919598057866
1761414011404151600,4.746151611328125,7.555747972753643,1.3640845593057571,0.7113149897579103
1761414011414163700,4.756163818359375,6.65117112236917,1.5135834852471948,0.6672422584712505
1761414011424176600,4.7661767578125,5.950350419422984,1.5478925820842384,0.47504473914057016
1761414011434189800,4.77618994140625,5.400195494240522,1.5855004282057283,-0.04257094842158258
1761414011444201700,4.78620166015625,4.751050033473968,1.5005506929337977,-0.6712388538267463
1761414011454215000,4.79621484375,3.6809225554049014,1.2266615633442997,-1.0680031063262372
1761414011464227600,4.8062275390625,2.270250870838761,0.9515558975718915,-1.178072012220323
1761414011474240800,4.81624072265625,1.0208341625899076,0.4326328537382185,-0.7582959366414695
1761414011484252700,4.826252685546875,0.4598609062731266,-0.6971361692145467,0.3828772545095533
1761414011494265900,4.836265869140625,0.9355079952210187,-1.2093026514600962,1.2479542344808578
1761414011504278800,4.84627880859375,1.518877792263031,-0.588233165294677,1.207890958031267
1761414011514290700,4.856290771484375,0.8917267211616039,-0.06918605668991804,0.6003233429957181
1761414011524303600,4.8663037109375,-1.399017487129569,-0.22463285818509757,-0.16295125884115694
1761414011534316800,4.87631689453125,-4.413120977911353,-0.9930432154752313,-0.8208627943873404
1761414011544329700,4.886329833984375,-7.091403783586621,-1.7851396418444812,-1.6768837036564945
1761414011554342000,4.896341796875,-9.031556438618898,-1.9124796352088451,-2.629179167549312
1761414011564354600,4.9063544921875,-9.890086992621422,-1.4322672841720283,-3.3700232533261176
1761414011574367700,4.91636767578125,-10.141411531442403,-0.8808199810914695,-3.746618139630556
1761414011584379600,4.926379638671875,-10.585099886071681,-0.6988650388337672,-3.8792823967576027
1761414011594392800,4.936392822265625,-11.436558894252776,-0.9358554934844374,-3.7403596637576815
1761414011604405800,4.94640576171875,-12.835832986491917,-1.2172535373993216,-3.14341142321825
1761414011614418700,4.956418701171875,-13.920465959775447,-1.1290927311263979,-2.574655257940292
1761414011624430600,4.9664306640625,-14.225171375650167,-0.7991168265253304,-2.1973278195776045
1761414011634443800,4.97644384765625,-14.549168351972103,-0.3125163088213652,-1.9967096779040991
1761414011644456700,4.986456787109375,-15.037475600528715,0.37202429045327007,-2.2661166936434802
1761414011654468900,4.99646875,-15.906610550653934,0.9097001116823404,-2.802346992239356
1761414011664481500,5.0064814453125,-17.014202374720572,1.3008370988845825,-3.353968775103986
1761414011674494700,5.01649462890625,-16.887372815096377,1.538895767288655,-3.5744624145925044
1761414011684507600,5.026507568359375,-14.936362665963172,1.424362940788269,-3.35432445667386
1761414011694519800,5.036519775390625,-12.631895637267828,1.2093342887073755,-3.2871488630235195
1761414011704532700,5.04653271484375,-11.146979735839366,0.7967746473133563,-3.400273137900233
1761414011714545700,5.056545654296875,-9.861770414197444,0.051992929826676845,-3.2958728522270917
1761414011724557600,5.0665576171875,-8.09585847378373,-0.6471735761716961,-2.802889428552985
1761414011734570800,5.07657080078125,-5.900818619012832,-1.0846236209332942,-2.0720687241405247
1761414011744583700,5.086583740234375,-3.5287837824791666,-1.2872973799623548,-1.143445666127652
1761414011754596600,5.0965966796875,-1.3443939165383576,-1.4376644670404493,-0.24674992438182233
1761414011764608500,5.1066083984375,0.4341764299184084,-1.5418088782563806,0.47625163071230053
1761414011774621700,5.11662158203125,1.899372316354513,-1.5622858490958809,1.0453894887842237
1761414011784634600,5.126634521484375,3.162548669886589,-1.4649709916390479,1.457833833235502
1761414011794647800,5.136647705078125,4.108676258799433,-1.2290101722970603,1.7052303849577903
1761414011804659700,5.14665966796875,4.817183424594998,-0.9495508413597941,1.8821534705281258
1761414011814672600,5.156672607421875,5.3856134266585105,-0.7038651852086186,2.032029413088411
1761414011824685800,5.166685791015625,5.836079312598705,-0.46869420107007026,2.1086274996005
1761414011834697700,5.17669775390625,6.336921633079648,-0.2261304763317108,2.1511647649481893
1761414011844710700,5.186710693359375,7.051929851332306,0.10322437376156449,2.225072443332523
1761414011854723600,5.1967236328125,7.982813109362125,0.40380511092171073,2.371312513608485
1761414011864735500,5.206735595703125,8.984192629897594,0.6658860215567052,2.512817810447514
1761414011874748700,5.216748779296875,9.803300689572096,0.883651989647001,2.592427353735268
1761414011884761900,5.226761962890625,10.35261214966774,0.9467601877279579,2.5351427472412587
1761414011894774800,5.23677490234375,10.673438679260014,0.972541986977309,2.4171058581426736
1761414011904786700,5.24678662109375,10.942530345439911,1.085805670324713,2.3087010130032897
1761414011914799600,5.256799560546875,11.20684179160595,1.274761285124719,2.1915967285797
1761414011924812800,5.266812744140625,11.181431456017494,1.3594406790226696,2.18131118914783
1761414011934824700,5.27682470703125,10.909516549110412,1.406398098900169,2.196114936656505
1761414011944838000,5.286837890625,10.49714804637432,1.3952515587247907,2.2021406266868113
1761414011954850600,5.2968505859375,10.102503416377305,1.3807717824734747,2.227900506365299
1761414011964863700,5.30686376953125,9.723024206808208,1.359672295821458,2.351768293574452
1761414011974875600,5.316875732421875,9.522456041756271,1.269428984186053,2.347098840458691
1761414011984888800,5.326888916015625,9.691105804499983,1.168769346345961,2.1868610783599314
1761414011994901800,5.33690185546875,9.81386767629385,1.1362826426304875,2.00422429131791
1761414012004914700,5.346914794921875,9.773795778146386,1.0425956202819944,1.7308999560043214
1761414012014926600,5.356926513671875,9.685717097198962,0.9438070370107888,1.343011522269249
1761414012024939800,5.366939697265625,9.049445146530866,0.7928526515640318,1.0047682131256908
1761414012034952700,5.37695263671875,7.86530901196599,0.8640914030000567,0.6898472543153912
1761414012044964900,5.38696484375,6.625728053554893,1.0155772649750112,0.46762014209777114
1761414012054977500,5.3969775390625,5.465902184382081,1.0835302727386356,0.42896490581519897
1761414012064989700,5.40698974609375,4.230351504400372,0.9432613858267664,0.5342728078525513
1761414012075001600,5.417001708984375,3.3032758219599723,0.49088995852619405,0.7267989015504718
1761414012085014800,5.427014892578125,3.0889380747526882,-0.0837521960504353,0.8594329827349633
1761414012095028000,5.437028076171875,3.1102526654601097,-0.6837995716489851,1.0312252812881022
1761414012105041000,5.447041015625,2.830509841406345,-1.1123878261715172,1.0098748155497015
1761414012115053000,5.457052978515625,2.2811697397381065,-1.3249002576477824,0.6071760219020769
1761414012125065700,5.467065673828125,0.9895639950573444,-1.5183359404712915,0.14578841751832514
1761414012135079000,5.477078857421875,-1.5535902092039584,-1.4651640299931168,-0.2324648669850081
1761414012145090800,5.4870908203125,-5.04597873622179,-0.7871733638186007,-0.5419642391379922
1761414012155104000,5.49710400390625,-9.034689475947618,0.4528238472431898,-0.8448825524002314
1761414012165116700,5.50711669921875,-12.300884398269652,1.2106949095360935,-1.0126210455179214
1761414012175129900,5.5171298828125,-13.304440678322315,1.1181985582768916,-1.409181738269329
1761414012185141800,5.527141845703125,-11.66766248282194,0.6440655271537602,-1.9658798014849423
1761414012195155000,5.537155029296875,-9.332792132556438,0.11486132780238985,-2.545494337646663
1761414012205167900,5.54716796875,-8.44454331663847,-0.5441264586731791,-2.9709488241881132
1761414012215180000,5.557179931640625,-9.76246774392426,-1.1251213432773948,-3.2560403157934545
1761414012225192700,5.567192626953125,-12.531644287967682,-1.5181107534132896,-3.4390649331092833
1761414012235206000,5.577205810546875,-15.041096129113434,-1.622308940643072,-3.012354016765952
1761414012245218800,5.58721875,-17.00670763505101,-1.171232083197683,-2.639767197059095
1761414012255231000,5.59723095703125,-19.11910544697046,-0.17966157062351704,-3.042941462731361
1761414012265243600,5.60724365234375,-20.54475901209116,0.9341282313004136,-3.607189795196056
1761414012275256800,5.6172568359375,-20.061305633306503,1.204415244744718,-3.6743408389270305
1761414012285268700,5.627268798828125,-17.73872427124977,0.5099040172062814,-3.3416900160282847
1761414012295282000,5.637281982421875,-14.68328689956069,-0.2625838917210698,-2.9497485075101255
1761414012305294800,5.647294921875,-11.75930850086212,-1.1303478457540272,-2.5475895563602444
1761414012315307800,5.657307861328125,-9.341418506604432,-1.7825431956104933,-2.0572160229235887
1761414012325319700,5.667319580078125,-7.549583020383119,-2.0033827259272337,-1.5902762643054127
1761414012335332900,5.677332763671875,-6.303077231144905,-2.0121477777935564,-1.078927966574952
1761414012345345800,5.687345703125,-5.2366965383887285,-1.768049829225242,-0.5615137198690324
1761414012355358000,5.69735791015625,-4.070867629408836,-1.385763891672343,-0.15122136581987142
1761414012365370600,5.70737060546875,-2.672670811012387,-1.0506924174979329,0.14549970023743808
1761414012375383800,5.7173837890625,-1.093439964595437,-0.826189103976637,0.27775413445457814
1761414012385396700,5.727396728515625,0.5712117417365312,-0.6160968853846192,0.28722784604690965
1761414012395409000,5.737408935546875,2.3006781578063964,-0.3900735226891935,0.21563670097663998
1761414012405421800,5.747421875,4.155618042716384,-0.21929916900694368,0.25180107029154897
1761414012415434800,5.757434814453125,5.839461940774322,-0.007742430820316076,0.2504408878542483
1761414012425446700,5.76744677734375,7.159258591672778,0.2583161512739956,0.09380067532341926
1761414012435459800,5.7774599609375,8.362282382059098,0.5047239842198789,0.0453335815353319
1761414012445472800,5.78747265625,9.582743044936656,0.7917178023152053,0.18150898858848957
1761414012455485700,5.797485595703125,10.603435168707371,1.0358913003377617,0.45272301721721886
1761414012465497900,5.807497802734375,11.446502780640124,1.1833670498885214,0.7242802697930485
1761414012475510800,5.8175107421875,12.123138305878639,1.2448780419059098,0.9173846748355775
1761414012485524000,5.82752392578125,12.421433854711054,1.21493020901829,0.9748842392545193
1761414012495535900,5.837535888671875,12.253680748546122,1.1108473187312484,0.9145581461727619
1761414012505548800,5.847548828125,11.832809790402651,0.9981012295171617,0.7912232237312943
1761414012515561700,5.857561767578125,11.350337239348887,0.8628167068891227,0.5651711463980377
1761414012525575000,5.867574951171875,10.972710379648207,0.6949621861763298,0.35907289281301197
1761414012535586800,5.8775869140625,10.744884789836407,0.6104353524915873,0.2973293341487646
1761414012545600000,5.88760009765625,10.660070663642882,0.5983123684994877,0.30358985584825277
1761414012555613000,5.897613037109375,10.624643960952758,0.6211516845561563,0.3221889770518988
1761414012565624800,5.907624755859375,10.725904195034504,0.6715640671931207,0.39211277343183754
1761414012575637800,5.9176376953125,10.783248130500317,0.6974559026882052,0.36938057101145383
1761414012585651000,5.92765087890625,10.690711301100253,0.6981506069540977,0.22997356162592766
1761414012595664000,5.937663818359375,10.521987888598442,0.7345153211466967,0.0017650369111448525
1761414012605676000,5.947676025390625,10.069401941764355,0.742216250912845,-0.2384871229492128
1761414012615688700,5.957688720703125,9.332208195188642,0.757070267304033,-0.4099239591281861
1761414012625702000,5.967701904296875,8.621606687462329,0.8929004411160946,-0.47164530596062537
1761414012635713800,5.9777138671875,8.056726486834883,1.0925906542897224,-0.37975466550961134
1761414012645727000,5.98772705078125,7.466089913660287,1.152297811755538,0.07044913542829453
1761414012655740000,5.997739990234375,6.90154756668508,0.927167160116136,0.6511402878455818
1761414012665752800,6.0077529296875,6.447254815933108,0.5191133057087659,0.8833880780138075
1761414012675764700,6.0177646484375,5.897510809639096,0.04271919778585434,0.7698387095928192
1761414012685778000,6.02777783203125,5.276985878679156,-0.3449481405444443,0.5532278298217803
1761414012695790800,6.037790771484375,4.4217567043095825,-0.6204352068498731,0.3648223231852054
1761414012705803000,6.047802978515625,2.707979440280795,-0.6702525462031365,0.12468418162595479
1761414012715815700,6.057815673828125,-0.413633992627263,-0.3948506739631295,-0.10282514531090856
1761414012725828900,6.067828857421875,-4.276815733933448,0.004822890111804009,-0.0000776683460921049
1761414012735841800,6.077841796875,-7.250840896826982,-0.0499167080745101,0.8550215960334986
1761414012745854000,6.08785400390625,-8.702842955169082,1.5617685472235083,-0.24055311556831002
1761414012755867000,6.097866943359375,-10.782591127896309,3.1906273479014633,-2.6109832933843133
1761414012765879800,6.1078798828125,-13.439997149759531,2.0392874213926495,-2.6527520585775375
1761414012775891700,6.1178916015625,-14.578653974175452,1.3352394269630312,-3.091030955378711
1761414012785905000,6.12790478515625,-14.447487262129783,1.8129148068681358,-4.239198827722668
1761414012795917800,6.137917724609375,-14.553010998874901,1.6165581220313905,-4.393449478235841
1761414012805930000,6.147929931640625,-14.75600259168148,0.9818255097597837,-3.726600602996349
1761414012815942700,6.157942626953125,-14.592432324159144,0.6518192100204527,-2.9091020243450996
1761414012825955800,6.167955810546875,-13.72095928647518,0.6181210846886038,-2.1698922617718575
1761414012835968800,6.17796875,-12.363805841606855,0.4107314030535519,-1.5316896353021263
1761414012845981000,6.18798095703125,-11.146759955608845,0.05360401828512549,-1.1515064421821386
1761414012855993900,6.197993896484375,-10.526537806987761,-0.0262467864125967,-1.3321639650404453
1761414012866006800,6.2080068359375,-10.618573116606473,-0.009157119923830032,-1.9722721328705548
1761414012876018700,6.218018798828125,-11.079710618686676,-0.15454656471982597,-2.4696523301988837
1761414012886032000,6.228031982421875,-11.241488742095232,-0.44747415677830576,-2.6739330860331654
1761414012896044800,6.238044921875,-10.747052197003365,-0.7209042905539274,-2.723546427246928
1761414012906057700,6.2480576171875,-9.801636555752157,-1.0581491632446647,-2.538648125013709
1761414012916069600,6.258069580078125,-8.694764862653612,-1.2238014977380633,-2.186782898557186
1761414012926082800,6.268082763671875,-7.640118446832894,-1.2002158933587372,-1.7381094489917157
1761414012936095700,6.278095703125,-6.581257043665647,-1.1690617534212768,-1.288084146425873
1761414012946108000,6.28810791015625,-5.245445077511668,-1.080176724527031,-0.828434179489687
1761414012956120800,6.298120849609375,-3.740015964886546,-1.001152872172743,-0.28878983466662467
1761414012966133800,6.3081337890625,-2.313029105335474,-0.9476714573539793,0.14527385559231043
1761414012976147000,6.31814697265625,-1.031784595671296,-0.779881964701414,0.335884836383909
1761414012986158800,6.328158935546875,0.13367957164943217,-0.5323889668673276,0.4431376619439572
1761414012996171800,6.338171875,1.0930699622392654,-0.2659628666348755,0.505216882303357
1761414013006184700,6.348184814453125,2.1133885765224694,-0.0008589549168944358,0.5335267387256026
1761414013016196600,6.358196533203125,3.330787513741851,0.3001736176639795,0.7752075431495904
1761414013026209800,6.368209716796875,4.569143314272165,0.5300733834013343,1.105216400172189
1761414013036223000,6.378222900390625,5.772444168034196,0.6205110485650599,1.3504849268898367
1761414013046236000,6.38823583984375,6.828826029345393,0.5833576682128012,1.3230918930515647
1761414013056247800,6.398247802734375,7.57177380940318,0.5544174049325287,1.0397712105110286
1761414013066260700,6.4082607421875,8.053985663694142,0.5498223322272301,0.7430290286004543
1761414013076274000,6.41827392578125,8.315793602606654,0.5892172078959643,0.5329426552273333
1761414013086285800,6.428285888671875,8.369481938174367,0.5974285714022814,0.4729221209634095
1761414013096299000,6.438299072265625,8.292032787790895,0.5046479963742196,0.5017577548254281
1761414013106311700,6.448311767578125,8.242780973365903,0.4247062985226512,0.6390910266768187
1761414013116324900,6.458324951171875,8.258203583425283,0.5344259525876492,1.1649149359401314
1761414013126336800,6.468336669921875,8.45791425486505,0.4885132925227284,1.9832427319571375
1761414013136350000,6.478349853515625,8.777959863212704,0.5151746510855854,2.070679023347795
1761414013146363000,6.48836279296875,9.085165279209614,0.6785147631138563,2.1622053605310616
1761414013156375000,6.498375,9.053699881365894,0.8404267420351504,1.915546475433558
1761414013166387700,6.5083876953125,8.836227927786112,0.9251751095160842,1.509118030270934
1761414013176401000,6.51840087890625,8.478972824984789,0.9856732712291181,1.1146124434184281
1761414013186412800,6.528412841796875,8.084748466226458,0.943690278763324,0.7507391645863651
1761414013196426000,6.538426025390625,7.734674799361825,0.9357238299287856,0.5773658073868602
1761414013206438700,6.548438720703125,7.4794222734421485,1.032628791410476,0.5663514422237873
1761414013216451800,6.558451904296875,7.551448229733109,1.1773429672934115,0.5703830723600462
1761414013226463700,6.568463623046875,7.720519432759285,1.3861895697385072,0.5971793458815664
1761414013236477000,6.578476806640625,7.6652569797426455,1.4607836229518054,0.8427635874848812
1761414013246489900,6.58848974609375,7.323492876061796,1.4114378466330468,1.097886495675519
1761414013256502000,6.598501953125,6.906316680783033,1.3257833240926264,1.2006625411476939
1761414013266514700,6.6085146484375,6.6118199397116895,1.1132428355656563,1.38171768502146
1761414013276527900,6.61852783203125,6.468053858333826,0.7137285537056625,1.5966894923485815
1761414013286541000,6.628541015625,6.357578636661172,0.41110359736680985,1.5369778048381209
1761414013296553000,6.638552978515625,6.052614277589321,0.2468583531923592,1.0822923284415156
1761414013306566000,6.64856591796875,5.204608624732494,0.055404637966305015,0.6227656225588172
1761414013316578800,6.658578857421875,3.7861756585150954,-0.08855988859310746,0.0808845955917146
1761414013326590700,6.6685908203125,2.0640099208474156,-0.1928700117647648,-0.27494638355746864
1761414013336604000,6.67860400390625,0.4557113853782415,-0.32179888175576926,0.15473658913290128
1761414013346617000,6.6886171875,-0.6516220800131559,-0.39625264971554275,0.7664471674583851
1761414013356629800,6.698629638671875,-1.4319015195995568,-0.49425782752409575,1.181503447973728
1761414013366641700,6.7086416015625,-2.002160490655899,-0.6621756227314471,1.16508349744007
1761414013376654800,6.71865478515625,-1.9763333909600973,-1.0337398213922977,0.43532877829130734
1761414013386668000,6.72866796875,-3.129804338148236,-0.9242810832858085,-0.6575368570148944
1761414013396680000,6.738679931640625,-7.721835191532969,-0.7226407589577138,-1.342169372356683
1761414013406692900,6.74869287109375,-13.008335917532444,-0.1991458771638572,-2.1664939976356923
1761414013416705800,6.758705810546875,-16.627262912273405,0.9398594684287905,-2.172624463214725
1761414013426719000,6.768718994140625,-18.571196839410067,1.2142099319197237,-1.1402207127317785
1761414013436731000,6.77873095703125,-18.794742559945583,1.1278962148182095,-0.3227120876105502
1761414013446744000,6.788744140625,-17.964495851141212,1.3680923336423934,-0.19583467025663703
1761414013456756700,6.7987568359375,-16.638167752647398,1.4863938650265336,-0.2344386878086254
1761414013466769000,6.808768798828125,-15.49650297858715,1.31479679678455,-0.29602236146973443
1761414013476781800,6.81878173828125,-14.64371126049757,0.9256560249008238,-0.2727749212699011
1761414013486795000,6.828794921875,-13.893835142481326,0.34678631575703617,-0.27835787250138816
1761414013496808000,6.838807861328125,-12.845635418581962,-0.2942091563016176,-0.2684149542284198
1761414013506819800,6.84881982421875,-11.45081889027357,-1.065772497729957,-0.10462076915656215
1761414013516832800,6.858832763671875,-9.803969382613896,-1.6954137782119214,-0.09223686007279902
1761414013526846000,6.868845947265625,-8.125823988458514,-2.058159587384015,-0.32337278000898656
1761414013536857900,6.87885791015625,-6.501676726472377,-2.208926633565128,-0.6435523169346153
1761414013546871000,6.88887109375,-4.971581374624371,-2.2201791183330117,-0.7236946519248187
1761414013556883700,6.8988837890625,-3.4528263319581747,-2.1318777345456184,-0.33381361960042266
1761414013566895900,6.908895751953125,-1.8185574889302252,-1.9488216991782188,0.36050296214874833
1761414013576908800,6.91890869140625,-0.14681728564202784,-1.6774956980749964,0.9343569254897535
1761414013586922000,6.928921875,1.2999036174267529,-1.4506461136884987,1.4073665055409073
1761414013596935000,6.938934814453125,2.58070155236721,-1.0911389941766858,1.6961055598683654
1761414013606947000,6.948947021484375,3.878887844482064,-0.6556741318829358,1.8574124125033615
1761414013616959700,6.958959716796875,5.026012637513876,-0.2883824959747493,1.7792792253784835
1761414013626973000,6.968972900390625,5.924454930666089,-0.056166269988566636,1.3344418468445538
1761414013636984800,6.97898486328125,6.428133351355791,-0.12213073428347707,0.6376451387174427
1761414013646998000,6.988998046875,6.545231790560484,-0.3277452229395509,-0.03737385470252484
1761414013657010700,6.9990107421875,6.514819116640091,-0.48149091960527,-0.4291261607915163
1761414013667024000,7.00902392578125,6.389049295201898,-0.5545616357088089,-0.5137660994619131
1761414013677035800,7.019035888671875,6.416896502548456,-0.5158968278802931,-0.3816956435095519
1761414013687049000,7.029049072265625,6.696718821579218,-0.34870340142473577,-0.22125391980390993
1761414013697062000,7.039061767578125,7.1882409405291074,-0.11031637784913181,-0.05167337901610881
1761414013707074000,7.049073974609375,7.638745989435911,0.13368351717218757,0.12542745600761845
1761414013717086700,7.059086669921875,7.935702398619055,0.36400888791047037,0.23962710503088308
1761414013727100000,7.069099853515625,8.06505300115347,0.52074916328229,0.2654000268540345
1761414013737112800,7.07911279296875,8.016693751654028,0.5057160639971494,0.25091586668854576
1761414013747125000,7.089125,7.861240739613771,0.46609541674852367,0.3118883496487513
1761414013757137700,7.0991376953125,7.856788436380028,0.46443785879984495,0.33836569341421124
1761414013767150800,7.10915087890625,7.867660543528198,0.5401273060344159,0.38736780739445237
1761414013777162800,7.119162841796875,7.845198536351322,0.5791540790431201,0.4559031450906768
1761414013787176000,7.129176025390625,7.844236413320899,0.5793194987379015,0.46006194527056066
1761414013797188900,7.13918896484375,7.745113191267848,0.5529321348108351,0.46548210715577004
1761414013807201800,7.149201904296875,7.432489257353544,0.5767293361142277,0.41917186260800804
1761414013817213700,7.159213623046875,7.008454282221198,0.6483524106927215,0.1781398774815723
1761414013827227000,7.169226806640625,6.603739509108662,0.7687056139096617,-0.14670991627741603
1761414013837240000,7.179239990234375,6.197475752988457,0.8215202353827655,-0.370033226233907
1761414013847252000,7.189251953125,5.808876248374581,0.7895236532717943,-0.4424409483840689
1761414013857264600,7.1992646484375,5.409791590103507,0.7001037868484854,-0.33495537351407106
1761414013867277800,7.20927783203125,5.073946355077624,0.6920135655038059,-0.21441413691174238
1761414013877289700,7.219289794921875,4.63483831397593,0.7572323259979487,-0.23804515133537352
1761414013887303000,7.229302978515625,4.019128089821338,0.6560653231576085,-0.4050451375780627
1761414013897316000,7.239316162109375,3.4597681139200924,0.486182803748548,-0.5563627303140237
1761414013907328800,7.249328857421875,2.777045962244272,0.3043424277812242,-0.6147995390504598
1761414013917340700,7.259340576171875,1.4678981311321257,-0.24599618340507148,-0.12054602237530052
1761414013927353900,7.269353759765625,0.16635785241425036,-1.614100061354786,1.2223335440773515
1761414013937367000,7.279366943359375,0.16285539725124834,-2.365270164704323,1.9522741777196526
1761414013947379000,7.28937890625,1.3774573972284794,-1.6779278058819471,1.0915373458445072
1761414013957392000,7.299391845703125,2.026517517799139,-0.3673690850585699,-1.127734594515711
1761414013967404800,7.30940478515625,-0.1983019736856222,-0.04846709378808736,-2.1003671823859213
1761414013977418000,7.31941796875,-4.842008653771877,-0.5129394393794239,-1.5621987553343175
1761414013987430000,7.329429931640625,-9.253028275489807,-0.3755287183776498,-1.4343242167018353
1761414013997443000,7.339443115234375,-12.20737843157649,0.5942058099634945,-2.125641908895969
1761414014007455700,7.349455810546875,-13.843750968885422,1.6534198259606956,-2.7916572559207675
1761414014017468000,7.359468017578125,-14.967784224665165,1.8117225283436476,-2.3666116424411534
1761414014027480800,7.369480712890625,-15.539119300520419,1.1811411905325948,-1.3635738333046437
1761414014037494000,7.379493896484375,-14.721278484302758,0.4185657499410212,-0.59999473209586
1761414014047506700,7.389506591796875,-13.090292900729178,-0.007417144388705492,-0.4200920827254653
1761414014057518800,7.399518798828125,-11.328380259084701,-0.4715739942900836,-0.8135589011147618
1761414014067532800,7.40953271484375,-10.206806671416759,-0.6694884299628436,-1.3564106636770068
1761414014077545700,7.419545654296875,-10.052377157205342,-0.7804027737051248,-1.7214951449297367
1761414014087558000,7.429557861328125,-9.759614108058809,-1.0052838344976305,-1.7796829838737844
1761414014097570600,7.439570556640625,-8.890902936303615,-1.452845231167972,-1.1587400466974824
1761414014107583700,7.449583740234375,-7.492317410850524,-1.7641048909917472,-0.4023652873769402
1761414014117595600,7.459595703125,-6.1643637569814915,-1.8753204096376894,0.25486871423386037
1761414014127608800,7.46960888671875,-5.315090276145935,-2.082471752472222,0.8480529991298913
1761414014137621800,7.479621826171875,-4.51365055963099,-2.089730491428822,1.0247019439339637
1761414014147634700,7.489634765625,-3.7931829069286582,-1.874426091146469,1.015358799918741
1761414014157646600,7.499646484375,-3.5387662473112345,-1.7075057825438678,0.9390722635738551
1761414014167659800,7.50965966796875,-3.8722891768693923,-1.2603957829028367,0.6192092452514917
1761414014177673000,7.5196728515625,-4.098400363978743,-0.8142248907428234,0.37878501675985754
1761414014187684900,7.529684814453125,-3.6878485552757976,-0.7347603819489479,0.1674396563015878
1761414014197697500,7.539697509765625,-2.5779981386274096,-0.6380218630753457,-0.1057398637138307
1761414014207710700,7.549710693359375,-0.9414613506674766,-0.30935579896382986,-0.25222411800920963
1761414014217724000,7.559723876953125,0.9333195452660321,-0.020711510247737167,-0.10684008004069327
1761414014227735800,7.56973583984375,2.5691233427762983,0.1622650301426649,0.2396788900170475
1761414014237748700,7.579748779296875,3.849959271639585,0.3037969227276742,0.6472881424620747
1761414014247761700,7.58976171875,4.750910332742333,0.3405034360952675,0.8997961919791996
1761414014257773600,7.599773681640625,5.270678887489438,0.3662418345943093,0.9744864721085875
1761414014267786800,7.609786865234375,5.586242381986976,0.40881913969144223,0.9128862674377858
1761414014277800000,7.619800048828125,5.796343514537811,0.4264126640491187,0.6992530152380466
1761414014287812600,7.6298125,6.003325638285279,0.4036016973040998,0.43208413381427524
1761414014297824800,7.63982470703125,6.245273861473798,0.4065982487715781,0.2604636116314679
1761414014307837700,7.649837646484375,6.4828486918836825,0.46880379892438645,0.17814612455926834
1761414014317851000,7.659850830078125,6.7168392340660095,0.5703942878738045,0.16274923346303402
1761414014327862800,7.66986279296875,6.96424864526987,0.7286676180317998,0.20737503205519167
1761414014337876000,7.6798759765625,7.270560911819338,0.9066765991427004,0.27744780845176426
1761414014347888600,7.689888671875,7.427347802811861,1.1128474065072833,0.44816436753217126
1761414014357900800,7.69990087890625,7.491755685314535,1.3778741613358259,0.7772842032931745
1761414014367913700,7.709913818359375,7.562567589640617,1.554648486085236,1.0563771851360797
1761414014377927000,7.719927001953125,7.684293104124069,1.6557744262628256,1.1584122029826045
1761414014387939600,7.729939697265625,7.790887684971094,1.7053170403279363,1.1177750721678137
1761414014397951700,7.73995166015625,7.825003305062651,1.7216072270020841,0.9790926507297902
1761414014407964700,7.749964599609375,7.7674097787499425,1.721980444228649,0.7626591002870351
1761414014417977900,7.759977783203125,7.637499788767099,1.7955575754843651,0.6338167395357042
1761414014427989800,7.76998974609375,7.445337048488855,1.90844175799489,0.5244338066117837
1761414014438003000,7.7800029296875,7.297312725144624,2.058656577120721,0.412109413408488
1761414014448015600,7.790015625,7.203972178146243,2.2075600213870405,0.29044205885306
1761414014458028800,7.80002880859375,7.148515663862228,2.344683888271451,0.16427574891056865
1761414014468040700,7.810040771484375,6.963600410494208,2.378732580606639,0.19201363239744676
1761414014478054000,7.820053955078125,6.698323918688297,2.2284511259853836,0.381824603651464
1761414014488066600,7.830066650390625,6.445557948887348,2.0194965331211683,0.6193805101651698
1761414014498078700,7.84007861328125,6.160912155222892,1.721920530734956,0.7300701052408665
1761414014508091600,7.850091552734375,5.878753502199054,1.3993006879851222,0.7244787880398332
1761414014518104800,7.860104736328125,5.329118801498413,1.0602519807428121,0.7825833326146006
1761414014528117800,7.87011767578125,4.610580655553937,0.7007061366558075,0.7524288712389767
1761414014538130000,7.8801298828125,4.018047308847308,0.4127791293635964,0.6735694156661629
1761414014548142600,7.890142578125,3.435618592047691,-0.034010113890469075,0.9198404704898595
1761414014558155800,7.90015576171875,2.9733091235786673,-0.8877423277005553,1.4183750985503196
1761414014568167700,7.910167724609375,2.9059529126644135,-1.60397950322628,1.450777923374623
1761414014578180900,7.920180908203125,3.0517677432656285,-1.9542513230115175,0.6666756375644356
1761414014588193500,7.930193603515625,2.2896944069772958,-2.158867594410479,-0.055462688296474515
1761414014598205700,7.940205810546875,0.14100830710232257,-2.090358706329763,-0.3738147540666163
1761414014608218600,7.950218505859375,-2.8759862289458513,-1.7327502600461244,-1.114761350369826
