time,seconds_elapsed,z,y,x
1761414060585457200,0.08045703125,0.9040344140708446,0.007983692230284214,0.05767135905558243
1761414060595470000,0.090469970703125,0.9462433242470025,0.05697130276113748,-0.022391316560842096
1761414060605482000,0.10048193359375,1.0053080921560524,0.11110928179249167,0.0075523150756955145
1761414060615495200,0.1104951171875,1.025757005944848,0.18233166661560535,0.15552925561424344
1761414060625508400,0.12050830078125,1.0281243195980787,0.26669834130257364,0.36742479730118066
1761414060635520300,0.130520263671875,1.0869845048457383,0.34249665573909877,0.5078990340594202
1761414060645533200,0.140533203125,1.2368079865664243,0.43723391779288645,0.5639458423867821
1761414060655546000,0.150546142578125,1.460741829636693,0.5224653926156461,0.6738812580943108
1761414060665558000,0.16055810546875,1.792194382661581,0.41481151197403665,0.7010229475200176
1761414060675571200,0.1705712890625,2.3155267673701045,0.3000022066198289,0.6421468340508639
1761414060685583000,0.1805830078125,2.923347699579596,0.33993265046998855,0.5486961777415126
1761414060695596300,0.19059619140625,3.37500834826231,0.37154476330801844,0.343182592176646
1761414060705609200,0.200609130859375,3.6370576947152613,0.26821488334536553,0.03995528603047132
1761414060715621000,0.21062109375,3.677894147494435,0.20937325666770337,-0.3420564376909286
1761414060725634000,0.220634033203125,3.5887364391386507,0.3498705455079675,-0.7183778408162296
1761414060735647200,0.230647216796875,3.2370898238688706,0.7823445554226637,-0.37375750745404507
1761414060745659100,0.2406591796875,2.952448121857643,1.357265380810201,0.23996468468848614
1761414060755672300,0.25067236328125,2.9772312654584643,1.8309613356903194,0.6587227788638323
1761414060765684200,0.260684326171875,3.1304981656312942,2.2575091704264283,0.7464857449255883
1761414060775697200,0.270697265625,3.3493776479214428,2.8501237656757232,0.5381057005463168
1761414060785710000,0.2807099609375,3.7359365866184233,3.434010864590108,0.8930634496580809
1761414060795722200,0.29072216796875,4.009524395173788,3.553412612301111,1.3665993186056613
1761414060805735200,0.300735107421875,4.205491203910112,3.2719834425956007,1.1893954433325677
1761414060815748000,0.310748046875,4.256183864793181,2.8096918020442128,0.6433762297153472
1761414060825760000,0.320760009765625,3.9697780757188794,2.213554877887666,-0.17647479381356387
1761414060835773200,0.330773193359375,3.470606903320551,1.6788237318083643,-1.1246873357743024
1761414060845785000,0.34078515625,2.894645336708426,1.273368077200651,-1.940036919698119
1761414060855798300,0.35079833984375,2.3259482081413267,1.0623080364897846,-2.4736855312377215
1761414060865811200,0.360811279296875,1.746794567489624,0.7641966120526195,-2.424054362106323
1761414060875823400,0.3708232421875,1.2331067939609288,0.3013374007463455,-1.9915262839168308
1761414060885836000,0.3808359375,0.8573737851828336,-0.1719268847182393,-1.6748054360777138
1761414060895849200,0.39084912109375,0.7026303827166557,-0.509264111867547,-1.6536285002753137
1761414060905861000,0.400861083984375,0.7055582528620958,-0.4208654051855206,-1.7850129467248916
1761414060915874300,0.410874267578125,0.008990531185269355,-0.6106275140628218,-1.5709012633584438
1761414060925886200,0.42088623046875,-2.0722709687143563,-1.7277964370310306,0.6839953864820301
1761414060935899100,0.430899169921875,-5.215185548326373,-5.635576029476523,7.477859261909127
1761414060945912000,0.440912109375,-8.616110428133606,-8.314604685083031,8.23720872619152
1761414060955924200,0.45092431640625,-12.050192312133312,-7.4751803980886935,2.6401561963766813
1761414060965937200,0.460937255859375,-15.402488477849959,-7.209793431645632,-1.4221946568384767
1761414060975949300,0.47094921875,-19.785228930544854,-7.547142641493678,-4.045805668866634
1761414060985962200,0.480962158203125,-23.78152793344259,-5.667053117758035,-5.510478992733359
1761414060995975200,0.49097509765625,-25.21230658649206,-2.394098784303665,-4.111618741992116
1761414061005987000,0.500987060546875,-23.758680141818523,-0.7613058590471744,-0.9942873703174292
1761414061016000300,0.511000244140625,-20.05810011526346,-0.9275620046526193,0.7997324742056429
1761414061026013200,0.52101318359375,-16.104611495566367,-1.2650664050623774,1.1545927908249198
1761414061036025300,0.531025390625,-12.678922761380672,-1.6031588344931602,1.1594063285864888
1761414061046038300,0.541038330078125,-9.291727716240286,-1.8760314805164933,1.37808561212942
1761414061056051200,0.55105126953125,-5.630834387907385,-2.1080837481126187,1.7721024656169115
1761414061066063000,0.56106298828125,-1.9570330626845358,-2.1825763867780563,2.235977575967461
1761414061076076300,0.571076171875,0.9538105446308851,-2.3516280083209273,2.106652546265721
1761414061086088200,0.581088134765625,2.187072236892581,-2.4721380095347762,1.0109107344686985
1761414061096101400,0.591101318359375,1.6332219643235206,-2.3817829080879687,-0.3955203899182379
1761414061106114000,0.601114013671875,0.5028992530107498,-2.019146696770191,-1.2996543188408016
1761414061116126200,0.611126220703125,0.004693710774183273,-1.424732066361606,-1.6323311529636382
1761414061126139400,0.621139404296875,0.2658580910861492,-0.8668618906266987,-1.3477628084495663
1761414061136152300,0.63115234375,1.2513999910205602,-0.40749446695894,-0.6306880130559206
1761414061146164500,0.64116455078125,2.7050001322090624,0.014523761523514984,0.11043218624852597
1761414061156177400,0.651177490234375,4.319567080423235,0.4103242835573852,0.6732834383316337
1761414061166189300,0.661189208984375,5.853831242388487,0.6970714334152639,1.1741405910555271
1761414061176202200,0.6712021484375,7.184113046944141,1.06519338266775,1.5399818089596926
1761414061186215400,0.68121533203125,7.612416785436868,1.6076711973510682,1.4392564124070106
1761414061196227300,0.691227294921875,6.811408446076512,1.894288729479909,1.0318998926140368
1761414061206240500,0.701240478515625,5.883975036239623,2.173052040977031,0.6320980259843171
1761414061216252400,0.71125244140625,5.4875522906541825,2.474137366658449,0.3586035217355937
1761414061226265300,0.721265380859375,5.748907225102186,2.6249837616860865,0.4079639841668308
1761414061236278300,0.7312783203125,6.6447659315019845,2.6668270534202456,0.6181331404525786
1761414061246290400,0.74129052734375,7.835458648103475,2.673810920958221,0.8907363949500023
1761414061256303400,0.751303466796875,8.996998335456848,2.7018849227979778,1.158343740856275
1761414061266316300,0.76131640625,9.994019660782813,2.5868524762123823,1.4575995860882103
1761414061276328400,0.771328369140625,10.847194825232028,2.316018350279331,1.683508236362785
1761414061286341400,0.78134130859375,11.721782195544241,2.164916519185901,1.8789944219753145
1761414061296354300,0.791354248046875,12.255347804975509,2.0858441515147685,1.9504814490839837
1761414061306366500,0.801366455078125,12.087597036898135,2.06762898812741,1.617428475125134
1761414061316379400,0.81137939453125,11.092549057471752,2.0834996342152357,1.0577199780471622
1761414061326391300,0.821391357421875,9.78803414685726,1.882734485286474,0.7766535041742026
1761414061336404200,0.831404296875,8.859937889197468,1.7260525159731506,0.6545733310341835
1761414061346417400,0.84141748046875,8.512589263382553,1.8269608678773044,0.4491853446103632
1761414061356429300,0.85142919921875,8.524537475329637,1.9252853407680988,0.39827107686586677
1761414061366442500,0.8614423828125,8.834391360008716,1.9319044666469096,0.4708038136351853
1761414061376455400,0.871455322265625,9.133502316877246,1.8581880730509757,0.5096361600503325
1761414061386467300,0.88146728515625,9.175962571465968,1.7171137149751186,0.6024632045686245
1761414061396480300,0.891480224609375,9.132003018230199,1.5351801077663898,0.8376441986445337
1761414061406492200,0.9014921875,9.022383536604046,1.4773554030463099,1.038537211736664
1761414061416505300,0.91150537109375,8.50584329625368,1.5227490807384252,1.3199316754549741
1761414061426518500,0.9215185546875,7.449170927563309,1.4505305244848132,1.5841745864294468
1761414061436530400,0.931530517578125,6.105019003087282,1.4417027826458215,1.4482766080781817
1761414061446543000,0.941543212890625,4.611458022910356,1.4370482348382472,1.1265401240341364
1761414061456555300,0.95155517578125,3.109115770384669,1.545243236619234,0.8859776561155914
1761414061466568200,0.961568115234375,1.4609639479547738,1.309440968839824,0.7763384468756616
1761414061476581400,0.971581298828125,-0.010721300500631331,0.660808718292415,0.4248600277796387
1761414061486593300,0.98159326171875,-0.9464952531814574,-0.10292349111884831,-0.3163824096649885
1761414061496606500,0.9916064453125,-1.6114444322794674,-0.9743465521812439,-1.1499486182808876
1761414061506619100,1.001619140625,-2.4762030670166015,-1.7562948017627,-1.8994098718859254
1761414061516631300,1.01163134765625,-4.142322507813573,-2.2515184055790303,-2.3363982904851435
1761414061526644200,1.021644287109375,-6.977112803018093,-2.3162913220018146,-2.6369886722564697
1761414061536656400,1.031656494140625,-10.328571933388709,-2.18048087580353,-3.0310306601852175
1761414061546669300,1.04166943359375,-13.941169725108146,-1.6804603930994868,-3.4747286594256757
1761414061556682200,1.05168212890625,-17.869080835956336,-0.8000555686801671,-4.062653635554016
1761414061566694100,1.061694091796875,-22.257901485347748,-0.02756692910045385,-4.1730619294703
1761414061576707300,1.071707275390625,-26.006337488055227,0.8833202734746038,-3.5869086391896006
1761414061586720300,1.08172021484375,-27.485107726335524,2.035039408559352,-2.9188173626735803
1761414061596732400,1.091732421875,-26.204011100709437,2.9222411996424196,-3.0158497499272228
1761414061606745300,1.101745361328125,-22.875360014474392,2.8632120875686407,-3.128793992061913
1761414061616757500,1.111757568359375,-18.641492610907555,2.212562505849451,-3.2334552667587992
1761414061626770200,1.121770263671875,-15.051116003346442,1.4041940129846333,-3.3801638313293454
1761414061636783400,1.131783447265625,-12.174504920500516,0.5607910316176712,-3.0685750856816765
1761414061646795300,1.141795166015625,-9.658462010526657,0.1673714133709669,-2.5844942226484418
1761414061656808400,1.151808349609375,-7.280916301617026,-0.15071867699474095,-1.9787525809310376
1761414061666821000,1.161821044921875,-5.017825823926925,-0.3772103878542781,-1.2239558845821767
1761414061676833300,1.171833251953125,-2.897275100690126,-0.5509285399034619,-0.5635196163313463
1761414061686846200,1.18184619140625,-0.8640653917759656,-0.8164898400001227,-0.0928503888612613
1761414061696858400,1.1918583984375,0.8409808687865734,-0.9978412634067236,0.24306111633386462
1761414061706871300,1.201871337890625,2.0394594169586897,-0.9952839801393448,0.32324703473746774
1761414061716884500,1.211884521484375,2.7704186530590054,-0.8991692922525107,0.07581985041489825
1761414061726896400,1.221896484375,2.9919670622974635,-0.7834066316962242,-0.37531014372352506
1761414061736909300,1.231909423828125,2.9354385348677634,-0.6656199179664254,-0.8798888377211987
1761414061746922200,1.241922119140625,2.9438755238234995,-0.4762400864049792,-1.19915220964998
1761414061756934400,1.251934326171875,3.067819298878312,-0.3140169957078993,-1.4029557033613322
1761414061766947300,1.261947265625,3.3907442620545623,-0.11269859681054949,-1.3824137044616043
1761414061776959500,1.27195947265625,3.939716699454188,0.05859656587541103,-1.1061419905845076
1761414061786972200,1.28197216796875,4.80634463519454,0.22798457976579664,-0.7343413528192788
1761414061796985300,1.2919853515625,5.84765167697072,0.3988340445108711,-0.4105423832874745
1761414061806997200,1.301997314453125,6.80538903965652,0.5480491850748658,-0.10123864330444485
1761414061817010400,1.312010498046875,7.687334371516108,0.6837015181019902,0.17931303118048234
1761414061827023400,1.3220234375,8.447920684117078,0.8057491041466593,0.4274412033792585
1761414061837035500,1.332035400390625,8.97832461464703,0.9387924237191676,0.6997999815963208
1761414061847048200,1.342048095703125,9.215413122844696,1.0325655169159174,1.0910275696914642
1761414061857060400,1.352060302734375,9.193141669803857,1.1197757444657386,1.5413891915395854
1761414061867073300,1.3620732421875,9.193798672407866,1.024840329491347,1.8591954965278505
1761414061877086500,1.37208642578125,9.38316505996585,0.6637035629510879,1.9410718157038092
1761414061887098400,1.382098388671875,9.812032277560233,0.3230811766512692,1.8595295507878065
1761414061897111300,1.392111328125,10.263285514485835,-0.01761895105987787,1.7742770331770181
1761414061907124200,1.402124267578125,10.609219597327709,-0.3255066502325237,1.5392033719331024
1761414061917136400,1.412136474609375,10.757781680810451,-0.659226563667506,1.0954485279388726
1761414061927149300,1.4221494140625,10.774080489182472,-0.9964194139100611,0.5700165406025945
1761414061937161500,1.432161376953125,10.727291850000618,-1.1977416121996938,0.3631554128862917
1761414061947174400,1.44217431640625,10.71880576120615,-1.3042916232526303,0.5446766399018466
1761414061957187300,1.452187255859375,10.650711299145222,-1.2147678580634296,0.8880562159553169
1761414061967199200,1.46219921875,10.368999805366993,-1.07762835521847,1.0837053370445966
1761414061977212400,1.47221240234375,9.863636208069323,-1.0352494953028857,1.0319261960990727
1761414061987224300,1.482224365234375,9.187872204968333,-1.1059935950897632,0.8142998556751757
1761414061997237500,1.492237548828125,8.452903733226657,-1.2312354471310973,0.5748673781672492
1761414062007250400,1.50225048828125,7.804058716711402,-1.3788462212383745,0.23251038662716744
1761414062017262300,1.512262451171875,6.894333397522568,-1.5140820824190973,0.051223470690986136
1761414062027275300,1.522275146484375,5.4603264300763605,-1.5137619105540214,0.3305890315307304
1761414062037288400,1.532288330078125,4.1312861500144,-1.5310396469607948,0.7416945651262998
1761414062047300400,1.54230029296875,3.2589462663680315,-1.5176365600302815,1.1024901170134545
1761414062057313500,1.5523134765625,2.2390204507946967,-1.4773649015270172,1.678141887024045
1761414062067325400,1.562325439453125,0.7845628159940242,-1.5429130401059985,2.2988209856323896
1761414062077338000,1.572338134765625,-1.1415724196016788,-1.8674577134385704,2.5615531997829675
1761414062087351300,1.582351318359375,-3.4232267279863358,-2.2635785534679886,2.430906712219119
1761414062097363200,1.59236328125,-5.427061289334297,-2.661977567562461,1.9429919701114295
1761414062107376400,1.60237646484375,-7.376708333420753,-3.153725019700825,1.1347311023395508
1761414062117389600,1.6123896484375,-9.820893629407882,-3.4157051003098484,0.13770517390370368
1761414062127401700,1.622401611328125,-13.2948065885365,-3.3590281043201684,-0.5626563140328973
1761414062137414700,1.63241455078125,-17.43180117932558,-2.8920915605723856,-1.444272048611939
1761414062147426800,1.6424267578125,-21.874160526680946,-1.8568183921329675,-2.5963287450879813
1761414062157439700,1.652439697265625,-26.101740812802312,-0.27580256199538705,-3.3651574008554217
1761414062167453000,1.662452880859375,-28.98836943179369,1.3703452271357177,-3.262641906015575
1761414062177464800,1.67246484375,-29.447880793976783,2.4385820691525937,-2.645208803591132
1761414062187477800,1.682477783203125,-27.64558236593008,3.1509356812432405,-2.4659613667264577
1761414062197490700,1.69249072265625,-23.76894434620142,2.8102725245416162,-2.192149247895926
1761414062207502800,1.7025029296875,-18.668104723501205,2.2579269574470815,-2.1291604384109375
1761414062217515800,1.712515869140625,-14.199752856755255,1.642149805536121,-2.0096039385296405
1761414062227528000,1.72252783203125,-11.030636498916149,1.0855924659654497,-1.7119718220420181
1761414062237540600,1.73254052734375,-8.781330216428637,0.7105535769313573,-1.489584916152805
1761414062247553800,1.7425537109375,-6.852240807202458,0.42448724894449114,-1.5570210604354737
1761414062257565700,1.752565673828125,-5.034307587650418,0.1298109135225415,-1.4919843785099685
1761414062267579000,1.762578857421875,-3.3971459457904096,-0.14197262208983302,-1.5112044811561702
1761414062277590800,1.7725908203125,-1.830232729154825,-0.20708163859918713,-1.8794664234012364
1761414062287604000,1.78260400390625,-0.3977805899351835,-0.21448095507025716,-2.0393369596228004
1761414062297616600,1.79261669921875,0.945045054373145,-0.17730565514713525,-1.9451628844097255
1761414062307628500,1.802628662109375,2.260570019301772,0.05654518630355596,-1.6702479189038275
1761414062317641700,1.812641845703125,3.549294071066379,0.2880935960307717,-1.2118326813943683
1761414062327655000,1.822655029296875,4.749232754918933,0.6122565765693784,-0.7285698567457497
1761414062337666800,1.832666748046875,5.726047158518433,0.952673065033555,-0.43447059055939313
1761414062347679700,1.8426796875,6.569687017381191,1.179601413744688,-0.2649853085733019
1761414062357691600,1.852691650390625,7.5146210125952955,1.4113102747306228,-0.13393681607982144
1761414062367704600,1.86270458984375,8.318134028252958,1.6387673234909772,-0.09452177440589293
1761414062377717800,1.8727177734375,8.904624003142118,1.7873054415762424,-0.03383996322164312
1761414062387729700,1.882729736328125,9.433671258366108,1.9038965157806873,0.10929182057436555
1761414062397742800,1.892742919921875,10.033820925295352,1.989325266741216,0.1863062328023836
1761414062407755800,1.902755859375,10.684615906834601,2.0393515726700424,0.23614687996599823
1761414062417767700,1.912767578125,11.279193911111355,1.9927076026558874,0.3100856476083398
1761414062427780600,1.922780517578125,11.796278341341019,1.912468529292941,0.38414844348914917
1761414062437792800,1.932792724609375,12.068153500759601,1.877005293984711,0.5164345880188047
1761414062447805700,1.9428056640625,12.078790630108116,1.7846794769868253,0.6817976572420448
1761414062457818600,1.952818603515625,11.94075695490241,1.690506863078475,0.7522128904007375
1761414062467830800,1.962830810546875,11.63646070435047,1.5308412017792463,0.7231182402763515
1761414062477843700,1.97284375,11.20008939473629,1.3719205136284232,0.6164247290994972
1761414062487855600,1.982855712890625,10.820341889619826,1.2454960276737808,0.5397843378156423
1761414062497868800,1.992868896484375,10.554136592531204,1.1662842515319585,0.6099131187157705
1761414062507881700,2.0028818359375,10.281943453204631,1.172001167874038,0.8072001797378062
1761414062517894000,2.012893798828125,10.030568645501136,1.1835761625945567,0.9568684708967804
1761414062527906600,2.022906494140625,9.824548060262202,1.1510568717837333,0.9756902218751609
1761414062537919700,2.032919677734375,9.660428926685452,0.9773924957484006,0.849950722509995
1761414062547931600,2.042931640625,9.4980271184206,0.8085445800840854,0.6606734014749527
1761414062557944800,2.05294482421875,9.442193587517737,0.6340393693104386,0.5157987743332981
1761414062567956700,2.062956787109375,9.491059617495536,0.4241799365609884,0.42956111814267933
1761414062577969700,2.0729697265625,9.577834814628957,0.21567542555183172,0.4668489385295659
1761414062587982600,2.082982666015625,9.607593408554791,0.08089622209742665,0.48776678500436244
1761414062597994800,2.092994873046875,9.38653716674745,-0.028869243870675562,0.5661500379001722
1761414062608007700,2.103007568359375,8.678685834512114,-0.1157609069906175,0.6962528105087578
1761414062618019800,2.113019775390625,7.46595547362566,0.04109802632480859,0.6994463458530604
1761414062628032800,2.12303271484375,5.488894352912903,0.27848054903298614,0.5057400293946266
1761414062638045700,2.133045654296875,2.7449557105004785,0.5894879876613617,0.14886369677782058
1761414062648057600,2.1430576171875,-0.20401216802597044,0.7746854189716279,-0.3195035373602062
1761414062658070800,2.15307080078125,-2.561503515422344,0.7838027914069593,-0.5691203224152326
1761414062668083700,2.163083740234375,-4.338811879119277,0.7017192592211067,-0.33869901702180505
1761414062678096000,2.173095947265625,-5.935620467802882,0.32573797477036714,-0.06617649961039423
1761414062688108800,2.18310888671875,-7.492388722521066,-0.39751974704191084,0.11679331877827644
1761414062698121000,2.193120849609375,-8.8686811676234,-0.763373020710051,-0.16824183952994642
1761414062708133600,2.203133544921875,-10.540278747570515,-0.6386557770647108,-0.9345746598936617
1761414062718146800,2.213146728515625,-13.240916008394956,-0.3882258489958942,-1.8319721201680599
1761414062728158700,2.22315869140625,-17.283676318216322,-0.07430749135687947,-2.402568068093806
1761414062738172000,2.233171875,-21.909748557412623,1.1649363440543412,-3.218591459625959
1761414062748184600,2.2431845703125,-26.983253598463534,3.4188024818032976,-4.966821028354763
1761414062758196700,2.25319677734375,-30.118081902253625,4.171671351894736,-5.129571211665868
1761414062768209700,2.263209716796875,-30.33445086302757,4.318143477360904,-5.154589333066344
1761414062778221800,2.273221923828125,-27.7792625221014,3.7435739496290683,-4.749683421295881
1761414062788234800,2.28323486328125,-23.00988422025442,3.028894524939358,-4.010048126786947
1761414062798248000,2.293248046875,-18.003755848383904,2.0010446383684872,-3.55982101803869
1761414062808259800,2.303259765625,-13.62584822267294,0.7361899763606489,-2.995514817906916
1761414062818272800,2.313272705078125,-10.437722043937445,-0.32612858152315016,-2.5517007910713554
1761414062828284700,2.32328466796875,-8.436418462371826,-1.069706768438965,-2.3080228214807805
1761414062838297900,2.3332978515625,-6.942310369706154,-1.5873462022028864,-1.7904820257857441
1761414062848310800,2.343310791015625,-5.635448603704571,-1.9603183679655194,-1.0292010089188814
1761414062858323000,2.353322998046875,-4.41159829838872,-2.0143933647632597,-0.28597280448451634
1761414062868335600,2.363335693359375,-3.194499805420637,-1.9461381591826676,0.09791939922124147
1761414062878348800,2.373348876953125,-2.2918273273527623,-2.032019768477231,-0.27892200919017196
1761414062888360700,2.383360595703125,-1.6084008267998695,-2.064215088030696,-0.99458430743739
1761414062898374000,2.393373779296875,-0.6534270836085081,-1.8544024170324205,-1.2801385942488908
1761414062908385800,2.4033857421875,0.9660913495332002,-1.518135449463129,-1.1757187270924447
1761414062918399000,2.41339892578125,3.0138568225443363,-1.094144605733454,-0.7534095528393984
1761414062928411600,2.42341162109375,4.937583827954531,-0.4710042315781116,0.03094385818764567
1761414062938423600,2.433423583984375,6.353102368029952,0.2782195600092411,0.7677423218354582
1761414062948436700,2.443436767578125,7.1203329409509895,0.8440890639349817,1.0410888689808546
1761414062958448600,2.45344873046875,7.725093901067972,1.2057181440368294,1.0723382129210979
1761414062968461800,2.4634619140625,8.503087275543809,1.4833616577237843,1.0248051120474935
1761414062978474800,2.473474853515625,9.369341117274761,1.6813465282842517,1.036040499550104
1761414062988486700,2.483486572265625,10.192291823852061,1.8676687258407472,1.1361163461528718
1761414062998499600,2.49349951171875,11.105572205173969,1.9816575085923074,1.2655851682394743
1761414063008512800,2.5035126953125,11.912268527042865,2.0140145945787427,1.4370610943198203
1761414063018524700,2.513524658203125,12.505177136802672,2.0006781431436536,1.441847451813519
1761414063028537900,2.523537841796875,12.73567749878168,1.8731345900312064,1.2485010547086597
1761414063038549800,2.5335498046875,12.57994917693138,1.6961375624418258,1.0758446866720914
1761414063048562700,2.543562744140625,12.137872933673858,1.606974885649979,1.0346255181856452
1761414063058575600,2.55357568359375,11.6929535759449,1.527441622468829,1.0187298837870358
1761414063068587800,2.563587890625,11.534428901374339,1.457075416083634,0.9512956392005085
1761414063078600700,2.5736005859375,11.468307785212993,1.379436880607903,0.915066972477734
1761414063088613600,2.583613525390625,11.240344248235225,1.2906515126958489,0.7949367643617093
1761414063098625500,2.59362548828125,10.77309498527646,1.2270011705622077,0.6018710838943719
1761414063108638700,2.603638671875,10.014525857716798,1.2387699342891574,0.46624078003596514
1761414063118651000,2.61365087890625,9.213630331081152,1.3135533725947142,0.41618992418777195
1761414063128664000,2.6236640625,8.578786951911448,1.361656016984582,0.37044374326355756
1761414063138677000,2.633677001953125,8.186924646109341,1.357692374050617,0.3281829567696899
1761414063148689200,2.643689208984375,7.9437945196598765,1.4072455095097423,0.24534031331222503
1761414063158701800,2.653701904296875,7.723291820082068,1.5098624188974499,0.1995334151767194
1761414063168714000,2.6637138671875,7.489801044115424,1.5367483799964188,0.2418730573267676
1761414063178727000,2.673726806640625,7.264961776638031,1.409058988672495,0.289286239881441
1761414063188740000,2.683739990234375,7.06510848185718,1.156120584914088,0.2303775393169373
1761414063198752000,2.693751953125,6.894995076301694,0.8522823072627186,0.1255003294475842
1761414063208765000,2.703764892578125,6.806411368441581,0.6442603190734982,0.10764436389459296
1761414063218777900,2.71377783203125,6.92333094394803,0.46744800040125845,0.10177288717846386
1761414063228790000,2.7237900390625,6.931735784199834,0.42783202932775016,0.056783260242594405
1761414063238803000,2.733802978515625,6.352345412182808,0.5438832975670695,-0.04748029754071031
1761414063248815000,2.743815185546875,4.946021401432156,0.607389555054903,-0.19823113693911582
1761414063258828000,2.753828125,2.4555279432564974,0.2244508526816964,-0.01638699354554992
1761414063268841000,2.763841064453125,-0.12425240261256694,-0.6930730114288628,0.16465406243735922
1761414063278852900,2.773852783203125,-1.6579086618125438,-1.62223821349442,0.09338714435277506
1761414063288866000,2.783865966796875,-2.3666262554883954,-1.7322466944381594,-0.1997327554074116
1761414063298878000,2.7938779296875,-4.031360379406809,-1.13618502747491,-1.2338399305410683
1761414063308891100,2.80389111328125,-8.951088817197084,-0.251359902395308,-2.34399049917981
1761414063318903800,2.81390380859375,-16.636774252462388,0.8387015256777405,-2.4969044942617415
1761414063328915700,2.823915771484375,-25.121343290019034,1.74614925532341,-2.83449218904078
1761414063338929000,2.833928955078125,-32.19747643923759,2.714630422602594,-3.761341953770816
1761414063348942000,2.843942138671875,-34.52827384097576,3.8938966130435464,-3.7284444772973653
1761414063358954000,2.8539541015625,-33.36999695481062,4.378019561652839,-2.9626170491725206
1761414063368967200,2.86396728515625,-30.89261315357685,4.212238924604654,-2.7726234696269034
1761414063378979000,2.87397900390625,-26.9857436617136,3.3299063469931482,-2.5633658021628856
1761414063388992000,2.883991943359375,-22.018350386428832,2.021034117951989,-2.467472063550353
1761414063399005000,2.8940048828125,-16.09651119121909,0.5288584546536207,-2.5199583298519252
1761414063409016800,2.904016845703125,-10.332191292929648,-1.1692096374593675,-2.1580068859279153
1761414063419030000,2.914030029296875,-5.950329961156845,-2.6651526904672385,-1.7057601079203188
1761414063429042000,2.9240419921875,-2.9252941574722526,-3.4800779114991425,-1.0532916402108967
1761414063439054800,2.934054931640625,-0.5192816480129957,-3.4238983436375854,-0.5512075029753148
1761414063449068000,2.944068115234375,1.5328817676961422,-2.917832151028514,-0.1595364819616079
1761414063459080000,2.954079833984375,3.0960669037193056,-2.331607110685855,0.32289442190751433
1761414063469092900,2.9640927734375,3.880665375548601,-1.747574027429521,0.642335050099343
1761414063479106000,2.97410595703125,4.258189943918586,-1.2003909576646983,0.8578558696113526
1761414063489118000,2.984117919921875,4.917346511089802,-0.715056149047613,0.8473845983490348
1761414063499131000,2.994130859375,6.317237858444452,-0.45358562539592384,0.6696983463864773
1761414063509142800,3.004142822265625,8.178333343374728,-0.3862805601470172,0.49945459244959056
1761414063519156000,3.014156005859375,10.10309144539833,-0.28133330811560153,0.45935909423083066
1761414063529169000,3.0241689453125,11.626549551188946,-0.09779211957976222,0.6217251005299389
1761414063539181000,3.03418115234375,12.247634454119204,0.22834084585756062,0.8013469236649572
1761414063549194000,3.044194091796875,11.984487375557421,0.6646513651952147,1.0913058751761913
1761414063559206000,3.054205810546875,11.180297483551502,1.0331342567145825,1.5191444803752003
1761414063569218800,3.06421875,10.047821393597125,1.1517020378194749,1.8625683339618144
1761414063579232000,3.07423193359375,9.273754837176202,1.2507289598912,1.8912242273427544
1761414063589244000,3.084243896484375,8.969035392776131,1.3059430437214672,1.737223021546006
1761414063599257000,3.094257080078125,8.886961505201459,1.1841187450386583,1.5439249936275183
1761414063609269800,3.104269775390625,9.084078653016686,0.9471459721751511,1.3624825309365987
1761414063619282000,3.114281982421875,9.271530731385946,0.7586864703290164,1.4714654682248829
1761414063629294800,3.124294921875,9.302326851665972,0.6531574728868902,1.8202172388359903
1761414063639307000,3.13430712890625,8.895093958252668,0.6309305896401405,2.171393021723628
1761414063649320000,3.14431982421875,7.789359160229563,0.7618802979342639,2.5107439267829057
1761414063659332900,3.154332763671875,6.836101573306322,0.9532399051360786,3.068192223843932
1761414063669345000,3.164344970703125,6.596456366363167,1.0469159676991402,3.5127053388595577
1761414063679358000,3.17435791015625,7.181332476314902,0.8635464824683964,3.295225201973319
1761414063689369900,3.184369873046875,7.668031120631098,0.3191198718048632,2.445418929435313
1761414063699383000,3.194383056640625,7.2856094278693195,-0.0918140680834651,1.5691076579399406
1761414063709396000,3.20439599609375,6.101716454410552,-0.20564049988016486,1.2091069096922873
1761414063719408000,3.214408203125,5.067247149699926,-0.07820756753534078,1.2637367638938128
1761414063729420800,3.2244208984375,4.30005047904849,-0.09462459545955061,1.518336524993181
1761414063739434000,3.23443408203125,4.088659891209006,-0.2487492815054953,1.6462366364583372
1761414063749446000,3.24444580078125,4.640193703529238,-0.4558940484687686,1.5534468552105127
1761414063759459000,3.254458984375,5.109219913032651,-0.6664078534737229,1.1953969487696885
1761414063769471000,3.264470947265625,4.56309117462635,-0.8115339711584151,0.7957010267324746
1761414063779484200,3.274484130859375,2.873341851916909,-0.8125162601940333,0.6650321812063456
1761414063789496800,3.284496826171875,1.161818504294753,-0.752663264516741,0.9542536122232675
1761414063799509000,3.294509033203125,0.3658025663942098,-0.9492615030243993,1.2770225080549715
1761414063809522000,3.30452197265625,0.48557285515666004,-1.7400750499762594,1.4899790300369262
1761414063819534000,3.3145341796875,1.3200555940955876,-2.5385236218512057,1.2972099944286049
1761414063829547000,3.324547119140625,1.6204150897204874,-2.900205893445015,0.23816782786697147
1761414063839560000,3.334559814453125,-0.9389981754243373,-2.655352596464753,-1.3322292853616178
1761414063849571800,3.34457177734375,-7.061451128393411,-1.7413965078383684,-2.3795672778651116
1761414063859585000,3.3545849609375,-14.911312395858763,-0.7197049247015267,-2.4476737226247787
1761414063869598000,3.364597900390625,-21.120244193363188,-0.005801525885611772,-2.454756958884001
1761414063879610000,3.374610107421875,-23.437592915463448,0.6086966921307146,-2.616506440719962
1761414063889623000,3.384623046875,-22.062016509675978,1.1439163523793219,-2.7633114514023065
1761414063899635000,3.394635009765625,-19.626788427126407,1.0904553958266974,-2.96239434633255
1761414063909648000,3.40464794921875,-18.153697403526305,0.7670888263627886,-3.2409578974738715
1761414063919661000,3.4146611328125,-17.450459118044375,0.4921680156379938,-3.1770588412761684
1761414063929673000,3.4246728515625,-16.79400830270052,0.5088349266700446,-2.535104168796539
1761414063939686100,3.43468603515625,-15.910799234515428,0.6688952863752842,-1.939133102726191
1761414063949698000,3.444697998046875,-14.896706362879275,0.8982358107946813,-2.017718417532742
1761414063959710700,3.454710693359375,-13.522948989212512,1.3178642215311527,-2.28293075806126
1761414063969724000,3.464723876953125,-11.258547428923844,1.3427414731562137,-1.984994836321473
1761414063979735800,3.47473583984375,-7.777308072429895,0.7843585255935788,-1.5235326323315501
1761414063989749000,3.4847490234375,-4.375121209862828,0.055877954566478726,-1.2781851220935583
1761414063999762200,3.49476220703125,-2.3092624462783333,-0.4666901677712798,-1.050210771460831
1761414064009774000,3.504774169921875,-1.3276888654530048,-0.7173720247745513,-0.9109044459708034
1761414064019786800,3.514786865234375,-0.7219967619657516,-0.8561398594737052,-1.0079994501318783
1761414064029799000,3.524798828125,-0.6563637215822935,-0.7572364176511764,-1.248995414096862
1761414064039811800,3.534811767578125,-0.9593354455322026,-0.32194471996724605,-1.2200699099943042
1761414064049825000,3.544824951171875,-0.8218114734143018,0.28247414871379734,-0.8298390047863126
1761414064059837000,3.5548369140625,0.05265314730107784,0.7131357023790478,-0.4009537400785833
1761414064069849900,3.564849853515625,1.3500667014777659,0.9190013893172144,-0.18128723559658974
1761414064079861800,3.57486181640625,2.767853186485171,0.9573892799004912,-0.16869232324380426
1761414064089875000,3.584875,4.163306843653321,1.0213255993686616,-0.22693594749569893
1761414064099887900,3.594887939453125,5.268868038675189,1.0986864869467914,-0.2936515589514747
1761414064109900000,3.604900146484375,6.1441328698575495,1.1504016227453946,-0.3668270140711218
1761414064119912700,3.61491259765625,6.766721163088083,1.2622998629584907,-0.2534785750497132
1761414064129925600,3.624925537109375,7.1969918177396055,1.436195563531667,-0.14000481088189407
1761414064139937500,3.6349375,7.65620332019329,1.5902924847878515,-0.0329773596095154
1761414064149950700,3.64495068359375,8.146226140496134,1.6358014594227075,0.061145611037407066
1761414064159962600,3.654962646484375,8.648784617245196,1.6513970879614353,0.026706522011989725
1761414064169975800,3.664975830078125,9.196908328860998,1.5686032155491412,0.01286693422719836
1761414064179988700,3.67498876953125,9.7182866568923,1.4173119993634522,-0.004391695620305836
1761414064190001000,3.6850009765625,10.01376013404131,1.2215931740388273,-0.09217711097588763
1761414064200013600,3.695013671875,10.242238050282001,1.0660957383349536,-0.11596833919622003
1761414064210025700,3.705025634765625,10.463612856519221,0.9635893035843968,-0.036331907901540395
1761414064220038700,3.71503857421875,10.524166986203193,0.909999752216041,0.10852131112590431
1761414064230051800,3.7250517578125,10.421935276740788,0.8787557420380413,0.3572407454824075
1761414064240063700,3.735063720703125,10.318588299512863,0.8612712310127913,0.5776098452758044
1761414064250076700,3.74507666015625,10.078490088105202,0.8161867654003202,0.7575543244939297
1761414064260088600,3.755088623046875,9.797788063630462,0.7868819065913557,0.9390553124390542
1761414064270101800,3.765101806640625,9.777790985262394,0.7364614867784083,1.0146794393524528
1761414064280114700,3.77511474609375,9.966992537647485,0.5311838288612664,0.9209678670845926
1761414064290126800,3.785126953125,10.026907200384139,0.31460268664136526,0.7515451472070067
1761414064300139800,3.795139892578125,9.952441449725628,0.15888780879452824,0.6045186027284711
1761414064310152700,3.805152587890625,9.86170144061446,0.07476414908319712,0.49701940119192
1761414064320164600,3.81516455078125,9.526476383313536,0.03569645954221487,0.4513863617859781
1761414064330177800,3.825177734375,8.844892880278826,0.013161094868183135,0.48933608014769847
1761414064340189700,3.835189697265625,8.04216370847523,-0.03531681257486343,0.38755467173606156
1761414064350203000,3.845202880859375,7.121296233025193,0.04339548961222171,0.22780988078601658
1761414064360215600,3.855215576171875,6.102010468921065,0.18826251796931026,0.18105901633128524
1761414064370227700,3.865227783203125,4.619852341768145,0.3138083213932812,0.33523535949923094
1761414064380240600,3.87524072265625,2.97472249750793,0.4016340504929423,0.6431579107895493
1761414064390252500,3.88525244140625,1.5979174267083405,0.13710881544575093,0.5881263804519549
1761414064400265700,3.895265625,0.4875134678304195,-0.797937261351943,0.38899953678213056
1761414064410279000,3.90527880859375,0.3235106541097164,-1.8076883043915033,0.0412499289508909
1761414064420290800,3.915290771484375,0.04725917930305004,-2.1818805134683847,-0.7855464932691305
1761414064430303700,3.9253037109375,-2.8085744884520767,-1.9798738400459288,-1.6899560973279177
1761414064440316700,3.935316650390625,-8.977329173868894,-1.696416671644151,-2.2157972499869762
1761414064450328600,3.94532861328125,-16.92233657644987,-1.0844566668685525,-2.006115658022463
1761414064460341800,3.955341796875,-23.699477426743506,-0.01957877989076078,-2.2388997470244765
1761414064470353700,3.965353759765625,-27.227925109136102,0.7833163961295038,-3.1204934889674183
1761414064480366600,3.97536669921875,-27.504317453718183,1.0989810859791933,-3.679709087961912
1761414064490379800,3.9853798828125,-26.172828026938436,1.360014387257397,-3.8532285025686024
1761414064500391700,3.9953916015625,-24.758112035417554,1.7089748321831226,-3.675945059253275
1761414064510404600,4.005404541015625,-23.932809212756155,2.1489210776746273,-3.240587602856755
1761414064520416800,4.015416748046875,-23.36689850003719,2.5381150410503146,-2.887021417701244
1761414064530429700,4.0254296875,-22.431759338128565,2.5797315382912753,-2.8497561014071104
1761414064540442600,4.035442626953125,-20.179077441728115,2.3808894663795828,-2.9440812755286694
1761414064550454500,4.04545458984375,-16.505591173803804,1.9490350496679543,-2.775971903271973
1761414064560467700,4.0554677734375,-12.473761423319578,1.2661432405136526,-2.527291449218988
1761414064570480600,4.065480712890625,-8.477231534275411,0.27299758757725356,-2.54689835922569
1761414064580492800,4.075492919921875,-4.79465069026947,-1.0085177018523215,-2.7093285168021914
1761414064590505500,4.08550537109375,-2.05730662381649,-1.9812232088282704,-2.4985309264197944
1761414064600517600,4.095517578125,-0.23382746057510376,-2.0200170498639345,-1.675014110392332
1761414064610530600,4.105530517578125,0.6871259395927191,-1.4130465970039368,-0.3080755498949438
1761414064620543700,4.115543701171875,0.9402852926254271,-0.6707948363862931,0.8072042713910341
1761414064630555600,4.1255556640625,1.7299153288811444,-0.3081814214222133,1.074501893761009
1761414064640568800,4.13556884765625,3.481184411436319,-0.18656506640166043,0.8733642582580446
1761414064650580700,4.145580810546875,5.3686003325372935,-0.09320376887619494,0.5044529121935367
1761414064660593700,4.15559375,7.01033352009654,0.11198445719182491,0.39309305317346005
1761414064670606600,4.165606689453125,8.585296187674999,0.423757327234745,0.5554809059781953
1761414064680618800,4.17561865234375,10.04566567686796,0.7742933509141207,0.8814709923461079
1761414064690631700,4.185631591796875,10.955767428153752,1.1716986777961254,1.188088963843882
1761414064700644600,4.19564453125,11.273162814253569,1.4726865344524382,1.3373469206362962
1761414064710656800,4.20565673828125,11.205565195798874,1.6955650232508777,1.3484912688545883
1761414064720669700,4.215669677734375,10.75817214143276,1.9697665797904134,1.3617605002723634
1761414064730681600,4.225681640625,10.537648399066924,2.120123437735438,1.5769121942110358
1761414064740694800,4.23569482421875,10.865920568490028,2.1228891030564903,1.6618629523962736
1761414064750707700,4.245707763671875,11.262850679075717,2.110942644675076,1.492258373145759
1761414064760720000,4.255719970703125,11.426869859409331,2.006210935090482,1.2071993955705314
1761414064770732500,4.265732666015625,11.423669017541409,1.845093321417272,0.8672304316781461
1761414064780744700,4.27574462890625,11.256813736999034,1.7713637760788201,0.6849237533733248
1761414064790757600,4.285757568359375,11.119456938141584,1.7200059292852878,0.7416202577810734
1761414064800770800,4.295770751953125,11.137439169555902,1.6614821363851426,0.8671478679612279
1761414064810782700,4.30578271484375,11.100552331185341,1.5873387495487927,0.8380451075956225
1761414064820795600,4.315795654296875,10.784033727920054,1.5527213174149392,0.7402233235299587
1761414064830807800,4.325807861328125,10.164164630520343,1.5710934249296784,0.6451249730788171
1761414064840820700,4.33582080078125,9.719827456593514,1.5743120947152376,0.7327034494191408
1761414064850833700,4.345833740234375,9.469982927197217,1.5759434953093527,0.8935374969106167
1761414064860845800,4.355845703125,9.492045705923438,1.554266208769381,0.8075424173042177
1761414064870858800,4.365858642578125,9.395894193157552,1.3229659285843371,0.549719017983228
1761414064880871700,4.37587158203125,9.074807551324367,0.9407400506556034,0.38899588352032005
1761414064890883600,4.385883544921875,8.737185954275727,0.5941986495703458,0.13524475687323137
1761414064900896800,4.395896728515625,8.616828221014142,0.2172813994437456,-0.38290450784265995
1761414064910908700,4.40590869140625,8.390673779284954,-0.11908800558671355,-0.9141283033881336
1761414064920921900,4.415921875,8.060307267931103,-0.4810756898678839,-1.2917420844115317
1761414064930934800,4.425934814453125,7.5450138127714395,-0.7824955082006751,-1.7654985373072325
1761414064940947000,4.435947021484375,6.705935562735796,-0.9112788322411477,-2.012015968107432
1761414064950959600,4.445959716796875,5.6080234211623665,-1.038716002369672,-1.98784467279464
1761414064960971500,4.455971435546875,4.231106706681848,-1.3039274661153555,-2.1603239306986333
1761414064970984700,4.465984619140625,2.201111283639073,-1.7893701190210878,-2.2132865823403
1761414064980998000,4.475997802734375,0.09718553198873996,-1.9146916121698916,-1.9520467987045644
1761414064991009800,4.486009765625,-2.0500661511689424,-1.364007548546791,-1.6770792262285947
1761414065001022700,4.496022705078125,-5.878094161507487,-0.7073267238393426,-1.502994871215522
1761414065011035600,4.50603564453125,-11.974937456923723,-0.7742379674650728,-1.5740999132692812
1761414065021047600,4.516047607421875,-18.55637687141895,-1.0052291817009449,-2.3556499573133887
1761414065031060700,4.526060791015625,-23.774081124567985,-0.6325469387955963,-3.8711005516067143
1761414065041072600,4.53607275390625,-27.63422159848213,0.442847519890964,-4.81972463351041
1761414065051085800,4.5460859375,-30.084488260209557,1.9283722008675335,-4.714664714884758
1761414065061098800,4.5560986328125,-31.225909873163697,2.9892437748134135,-4.015860320197046
1761414065071110700,4.566110595703125,-30.7924073969841,3.636334641137719,-3.461452706006169
1761414065081123600,4.57612353515625,-29.12775218352079,3.45024216068387,-3.1777772186785933
1761414065091135700,4.5861357421875,-25.85259654062986,2.889835890600085,-2.9899060381144285
1761414065101148700,4.596148681640625,-20.9058555927515,2.063940362742543,-2.987737461903691
1761414065111161000,4.6061611328125,-15.118268216121196,0.9777736040204763,-2.902880373351276
1761414065121173000,4.616173095703125,-9.621292848083376,-0.02210544882416725,-2.4571347939312456
1761414065131186000,4.62618603515625,-4.889058574238419,-0.8296025656819344,-1.387063576094061
1761414065141197800,4.63619775390625,-1.0695365264385939,-1.3969348356366156,-0.08387633388675748
1761414065151211000,4.6462109375,1.0203191988050937,-1.2918097428202628,0.38018187794573605
1761414065161224000,4.656223876953125,1.0416787976980209,-0.7409022457048297,0.36876236604787405
1761414065171236000,4.666236083984375,1.9895289726197718,-1.677733013962209,1.622081269367039
1761414065181249000,4.6762490234375,3.008841624730825,-1.3484341318398714,1.6274442577049135
1761414065191262000,4.686261962890625,2.8844156191170214,-1.2942020447842777,1.1001257259696722
1761414065201273900,4.69627392578125,2.867983539754152,-1.1706561830058693,0.3463165062882006
1761414065211287000,4.706287109375,3.1495933267235756,-1.031413424271345,-0.3418461559411138
1761414065221299000,4.716298828125,4.092762650352716,-1.0216305736646056,-1.0044244411893188
1761414065231312100,4.72631201171875,5.8074126055628055,-0.9063264705307781,-0.8487742991417646
1761414065241324800,4.73632470703125,7.867398093199729,-0.7322555595211684,-0.20378785775080321
1761414065251337000,4.7463369140625,9.593384850460291,-0.3805838098101318,0.5794515276197344
1761414065261350000,4.756349853515625,10.32250927234888,0.24759660433903335,1.3007666639968751
1761414065271362000,4.766362060546875,10.319598353338241,0.8130755015119909,1.8562322628080843
1761414065281375000,4.776375,9.954634575855732,1.0496687735386192,2.027006470359862
1761414065291388200,4.78638818359375,9.526267708998917,1.1650545636065304,1.8219966695986687
1761414065301400000,4.796400146484375,9.17625892406404,1.2668931820981204,1.6082985354691743
1761414065311413000,4.8064130859375,9.121216251277923,1.270364657600969,1.4378357319541275
1761414065321425000,4.8164248046875,9.342809084179997,1.234969957484305,1.2894415523841976
1761414065331438000,4.82643798828125,9.726334354269504,1.224491818089783,1.1916203528404234
1761414065341451000,4.836450927734375,10.03878468518257,1.246196138767153,1.197757613486424
1761414065351463200,4.846463134765625,10.20870519851446,1.3614011654406786,1.3134377833910285
1761414065361475800,4.856475830078125,10.388340465652941,1.4715693669907748,1.4518001060292125
1761414065371489000,4.866489013671875,10.467176101958751,1.5824411867655812,1.589402988602221
1761414065381501000,4.8765009765625,10.191021073263883,1.7391649493940173,1.8367407958745956
1761414065391514000,4.88651416015625,9.541785011604428,1.9202226505510507,2.102329714630544
1761414065401526000,4.896526123046875,8.749389602288604,2.0033781958825885,2.1506120995014903
1761414065411539200,4.906539306640625,8.134977016729115,1.9789706075958906,1.877740038000047
1761414065421551900,4.9165517578125,7.7365879395067685,1.8602951283328235,1.486706291976571
1761414065431564000,4.92656396484375,7.55901778820455,1.7018631004817784,1.1562776751719415
1761414065441577000,4.936576904296875,7.61263715018928,1.509048326035589,0.9027619829822331
1761414065451589000,4.946589111328125,7.727479919421673,1.3449335763730108,0.7133341475605964
1761414065461602000,4.95660205078125,7.793511019212007,1.3168522680096328,0.7190827742151915
1761414065471615000,4.966614990234375,7.800721096721291,1.3495365401238202,0.772101393827796
1761414065481627000,4.976626953125,7.737410946327447,1.3431046073801816,0.7819009033083916
1761414065491640000,4.98664013671875,7.403950560611486,1.3027588607273994,0.8460930972337722
1761414065501652000,4.99665185546875,6.831188082301616,1.2449937772400677,1.1276473546236754
1761414065511665200,5.0066650390625,6.127812434175611,1.1743642437435686,1.4668819398269057
1761414065521678000,5.016677978515625,5.212603715139627,1.1759975440338253,2.142956616312265
1761414065531690000,5.02668994140625,4.205528028789162,1.2115246383585034,2.62625480453521
1761414065541703000,5.036702880859375,2.592617031088471,1.211018880793452,1.972049722291529
1761414065551716000,5.046716064453125,0.12557108399569988,0.5951733398213982,1.3362275612175465
1761414065561728000,5.05672802734375,-2.6682705302268266,0.05335311226397752,0.9148064218454063
1761414065571741200,5.0667412109375,-5.468043872585892,-0.3355624725617468,0.22368695563711224
1761414065581753000,5.076753173828125,-8.762040994068979,-0.5045345991276204,-0.7323941642742604
1761414065591765800,5.086765869140625,-13.273026133882999,-0.31515067591294643,-1.3609436309315264
1761414065601779000,5.096779052734375,-18.993880984455345,0.04776690962947905,-2.06809602111727
1761414065611790800,5.106790771484375,-24.315682740938662,1.2099490596048532,-3.0815730989426373
1761414065621804000,5.116803955078125,-28.144324499261376,2.9886127834334966,-3.9979038077458737
1761414065631816000,5.12681591796875,-30.057691438698768,4.32256275510788,-3.697750940608978
1761414065641829000,5.1368291015625,-29.600436331009863,5.084578808251023,-2.888208581659198
1761414065651841800,5.146841796875,-27.379674005961416,4.771465921775996,-2.2090990675225854
1761414065661854000,5.15685400390625,-23.57037290792465,3.557383269497752,-1.5483147530190646
1761414065671867000,5.166866943359375,-19.152979659521577,2.536965578754246,-1.6790642625659704
1761414065681879000,5.176879150390625,-14.892846180319784,1.3953648098409175,-2.2181575493775307
1761414065691892000,5.18689208984375,-11.089935075581073,0.33579547760002315,-2.379227086125314
1761414065701905000,5.19690478515625,-8.054256881850957,-0.38674335535317655,-1.9913876060985027
1761414065711916800,5.206916748046875,-5.7320396769315005,-0.8981639146022498,-1.4555410461232066
1761414065721930000,5.216929931640625,-4.048102839893103,-1.0967226395279168,-0.8524959500133991
1761414065731943000,5.22694287109375,-2.9653362450033423,-1.20268169895038,-0.3661588324859738
1761414065741955000,5.236955078125,-2.274963870835304,-1.3434044671095906,-0.224788267942518
1761414065751968000,5.246968017578125,-1.7444944738537072,-1.4215385310173034,-0.4286620504111051
1761414065761980200,5.256980224609375,-0.9941863941609859,-1.438093798368424,-0.7376216165989637
1761414065771992800,5.266992919921875,0.1208516542583704,-1.4276916468195617,-0.9615756256744264
1761414065782006000,5.277006103515625,1.5053309129476546,-1.4155670553922652,-1.1203022525578736
1761414065792018000,5.287017822265625,3.0241379780620337,-1.360771927626431,-1.311838531500846
1761414065802031000,5.297031005859375,4.517518925496936,-1.3113942948646842,-1.3572753176823258
1761414065812043000,5.30704296875,5.8892772343009705,-1.2097339555494486,-1.132923103069514
1761414065822056000,5.317055908203125,7.137197566512227,-0.9639037763610482,-0.7839388388767838
1761414065832068900,5.32706884765625,8.211456445297598,-0.5442269964382052,-0.380182900859043
1761414065842081000,5.3370810546875,9.018922582495213,-0.1677617278628051,-0.012036401687189936
1761414065852094000,5.347093994140625,9.483258003833889,0.14649039177522064,0.22720153962932527
1761414065862106000,5.357106201171875,9.701699679228662,0.49836862384378905,0.45185368703678247
1761414065872119000,5.367119140625,9.916990197116135,0.9261356251113116,0.7532252092484384
1761414065882132000,5.377132080078125,10.202391193062066,1.303625852820277,0.972570774680376
1761414065892143900,5.387143798828125,10.558659622913598,1.5560710662342607,1.0464294993564487
1761414065902157000,5.397156982421875,10.924075820338725,1.5383381334058939,1.005445162539184
1761414065912170000,5.407169921875,11.213437536609172,1.3876526280283927,0.9188864577006548
1761414065922182100,5.41718212890625,11.356390548038481,1.3218465691655874,0.7326761960860342
1761414065932195000,5.427195068359375,11.352226414096355,1.288470953786373,0.6272231864895671
1761414065942207000,5.43720703125,11.298962441420555,1.2585948709607124,0.774779380865395
1761414065952220000,5.447219970703125,11.315366463732719,1.3365190915100276,0.987885759646818
1761414065962233000,5.457233154296875,11.212842493325471,1.721130695531517,1.354136873526126
1761414065972245000,5.467244873046875,10.913818630218506,2.2425600230976936,1.2257171221010386
1761414065982258200,5.477258056640625,10.67951186169386,1.9033254378944635,0.9798905231092124
1761414065992270000,5.48727001953125,10.562545524436235,1.7708838836073875,1.0476130100525916
1761414066002283000,5.497282958984375,10.755426057595013,2.2223457948476075,0.8365905248731375
1761414066012296000,5.5072958984375,10.961242060172557,2.505768184196949,0.9404988623108714
1761414066022308000,5.51730810546875,10.958485454940796,2.333109916464239,1.463555718013644
1761414066032321000,5.527321044921875,10.843977616751193,1.9519624814219771,1.681260311305523
1761414066042333000,5.5373330078125,10.760257715535163,1.609262265934795,1.2726534991905092
1761414066052346000,5.54734619140625,10.77947328813672,1.4346052256003021,0.8247966997701675
1761414066062359000,5.557359130859375,10.703383735668659,1.4372775135494769,0.6163364662941545
1761414066072371000,5.567370849609375,9.121133833691477,1.618104328560084,0.6694362613841891
1761414066082384100,5.577384033203125,6.107659872984886,1.5902743646092712,1.5588696109116076
1761414066092397000,5.58739697265625,3.9310704516619444,0.8679324424676597,1.6900510821349919
1761414066102409000,5.597408935546875,1.2433499555557965,0.04475727948471903,1.0739176641322672
1761414066112422000,5.607421875,-2.417437574315071,-0.5495332861527801,-0.07156084126355126
1761414066122434000,5.61743408203125,-6.654665394225717,-1.5259630743488668,-1.9042466443926094
1761414066132447000,5.627447021484375,-10.339275698232651,-3.1046523612350225,-3.261982857584953
1761414066142460200,5.637460205078125,-13.542069869267939,-3.135455495777726,-4.938500942799449
1761414066152472000,5.64747216796875,-17.331218990635872,-2.8025623885557054,-6.631697191092371
1761414066162485200,5.6574853515625,-21.64755308048725,-1.8692533646836875,-6.771811179703474
1761414066172497200,5.6674970703125,-26.73700387868881,0.14942491085715592,-5.986100362718105
1761414066182510000,5.677510009765625,-29.714497594475745,2.033405231486261,-5.546475604265928
1761414066192523000,5.68752294921875,-29.254584081232547,3.2174104331478475,-4.963139709493517
1761414066202535200,5.69753515625,-27.413964398097992,3.271408857578039,-4.302740156523883
1761414066212548000,5.707548095703125,-24.159664496231077,3.0426632303118706,-3.9983033284574745
1761414066222560300,5.717560302734375,-19.335899939680097,2.6614935834378004,-3.327449016968906
1761414066232573000,5.727572998046875,-14.21742412252426,1.7698158159844577,-2.2471067266166207
1761414066242586000,5.737586181640625,-9.784331200686097,0.9124154350556433,-0.9864988353330642
1761414066252598000,5.747597900390625,-6.108258423399925,0.12561550765931606,0.08415900501934812
1761414066262611200,5.757611083984375,-3.062200289952755,-0.7787820406354964,0.3566778874352574
1761414066272623000,5.767623046875,-0.868233032849431,-1.5458156296797096,0.1618547871076502
1761414066282636300,5.77763623046875,0.042965866023302074,-2.133720001411438,0.07767388078374787
1761414066292649000,5.78764892578125,0.25625848809182644,-2.2901761991448697,0.017456691436562685
1761414066302661000,5.7976611328125,0.4713800791531801,-2.060085294749588,0.1317594720407389
1761414066312674000,5.807674072265625,1.0064812275886534,-1.7397149844922124,0.3313025866275653
1761414066322687200,5.817687255859375,1.7307056024760006,-1.5321467314198611,0.4567266999006271
1761414066332699100,5.82769921875,2.266137005779147,-1.5889901700176299,0.4213467589616775
1761414066342712000,5.837712158203125,2.7866537485450507,-1.6066424388252198,0.1500499474203214
1761414066352724000,5.847723876953125,3.320482977348566,-1.3570166667461394,0.03212935991147533
1761414066362737200,5.857737060546875,3.7342245220035313,-1.3043717027515171,0.233205109159369
1761414066372750000,5.86775,4.054362484809756,-1.5422008001834153,0.48835419297087934
1761414066382762200,5.87776220703125,4.35592784909308,-1.6457231339782477,0.7452388136044145
1761414066392775200,5.887775146484375,4.808518472102284,-1.3514908890619872,0.9089495125107466
1761414066402787000,5.897787109375,5.313782116156816,-0.9921779769480228,0.9334641413684934
1761414066412800000,5.907800048828125,5.894614503675699,-0.7889359165117145,0.9937462491780519
1761414066422813200,5.917813232421875,6.420864821657538,-0.7473997179653495,1.3858112379454075
1761414066432825000,5.9278251953125,6.756977183187008,-0.7587170115977525,1.833533085874468
1761414066442838300,5.93783837890625,7.066080541759729,-0.6516608045883476,1.7381626404836772
1761414066452850200,5.94785009765625,7.43290660598278,-0.4366745303444564,1.4024066911764441
1761414066462862800,5.95786279296875,7.794280834540724,-0.2541926416032016,1.2264042275823652
1761414066472876000,5.9678759765625,8.119203109014034,-0.15052607703208923,1.208443404282257
1761414066482888000,5.977887939453125,8.43946966663599,-0.05497282242029905,1.186534939334914
1761414066492901000,5.987901123046875,8.727542512139678,0.03519567041322589,1.210084084161371
1761414066502914300,5.997914306640625,8.86295577571392,0.14240809089764953,1.2567802227541804
1761414066512926200,6.00792626953125,8.859106114548444,0.21448606963679193,1.246170565934479
1761414066522939000,6.01793896484375,8.777114060038327,0.31876097536459563,1.2645046795263886
1761414066532951000,6.027950927734375,8.714476694339513,0.42378962206915016,1.3100003562882543
1761414066542964000,6.0379638671875,8.62147283194959,0.5114272812508046,1.3750491670429705
1761414066552977200,6.04797705078125,8.440528235778212,0.5508337012268603,1.442410638654232
1761414066562989000,6.057989013671875,8.036581524428724,0.5415098464339971,1.4493158879980443
1761414066573002000,6.068001953125,7.366179925143718,0.577339723097533,1.4020029326811432
1761414066583014000,6.078013916015625,6.750282069462537,0.6242413211345672,1.3499983124166726
1761414066593027000,6.088027099609375,6.32483138231337,0.6825831815965473,1.3034767997384071
1761414066603040000,6.0980400390625,6.059425711169839,0.6875766059696674,1.2546236292421817
1761414066613052200,6.10805224609375,5.7656619605481625,0.5875108423694968,1.225022417835146
1761414066623065000,6.118065185546875,5.195677130258083,0.49097807520106435,1.2793142722539603
1761414066633077200,6.1280771484375,4.469380040749908,0.422442445243895,1.351231507473439
1761414066643090000,6.13808984375,3.4175755703568456,0.24781594617813824,1.404343942849338
1761414066653103000,6.14810302734375,1.8553531418859956,0.054492783818393946,1.5711482238568364
1761414066663115000,6.158114990234375,0.08145429437160491,-0.2644166601061821,2.0069100232705472
1761414066673128200,6.168128173828125,-1.6788696167767048,-0.7380813430652022,2.360287700116634
1761414066683140000,6.17814013671875,-3.3663223529815673,-1.0002915791682898,1.881779668779671
1761414066693153000,6.188153076171875,-4.79716822604835,-1.0002671753793955,0.3060812708051875
1761414066703166000,6.198166015625,-6.711047206661105,-1.294854078952223,-1.7112676192954182
1761414066713178000,6.20817822265625,-9.60398047875464,-2.107420169637352,-3.4686402794227003
1761414066723191000,6.21819091796875,-13.238983579027652,-2.3954471301726996,-4.101742660143971
1761414066733204200,6.228204345703125,-16.696179212111232,-1.2235831788122653,-3.968130893033743
1761414066743216000,6.238216064453125,-18.53137102497816,0.2585226336315274,-3.6701229289710517
1761414066753229000,6.24822900390625,-19.161063597255943,0.552095830117166,-2.708183146159351
1761414066763241000,6.258240966796875,-19.21709352751374,-0.06355389602184296,-2.080987505263835
1761414066773254100,6.268254150390625,-18.352042047309876,-0.411616223064065,-2.4934207437992093
1761414066783267000,6.27826708984375,-17.00889374691844,-0.44513183143585916,-3.320068551328778
1761414066793279200,6.288279296875,-15.458480998706817,-0.6738967479243874,-3.7749031538724895
1761414066803292200,6.298292236328125,-13.512745575106143,-1.2587059301197527,-3.757708857965469
1761414066813304000,6.308303955078125,-11.409105070137977,-1.793311403992772,-3.1345430571079254
1761414066823317000,6.31831689453125,-9.469505372813343,-2.0835703613638876,-2.0475705349609257
1761414066833330200,6.328330078125,-7.606500839391351,-2.350868129864335,-1.0253916066985578
1761414066843342000,6.338342041015625,-5.924731409519911,-2.498936292350292,-0.34473047920577227
1761414066853355300,6.348355224609375,-4.569182477238774,-2.2171949879556894,-0.033038930770754815
1761414066863367200,6.3583671875,-3.5026065541714426,-1.7363643588900566,0.12512670122906566
1761414066873380000,6.368380126953125,-2.650215818098187,-1.2949031787909566,0.25816085111442955
1761414066883393000,6.37839306640625,-1.8644214144825935,-0.8085458952583372,0.4512242300268262
1761414066893405000,6.388405029296875,-0.806115307110548,-0.2688040814101696,0.7220943771213293
1761414066903418000,6.398418212890625,0.49680093613564963,-0.11516849405542015,0.9719712744172662
1761414066913430000,6.408429931640625,2.028874894580245,-0.08378653671145439,1.1039290637753902
1761414066923443200,6.418443115234375,3.625045185360312,0.028675182603299616,1.0812377778872846
1761414066933456100,6.4284560546875,4.99260195082128,0.21427841823548077,0.9961256916604936
1761414066943468000,6.438468017578125,6.028550680434703,0.5014771112531423,0.9171741738900542
1761414066953481000,6.44848095703125,6.691691348806023,0.7914025988861918,0.802588594289124
1761414066963493000,6.4584931640625,7.261812957218289,1.1417363779917358,0.44946905692256983
1761414066973506000,6.468506103515625,7.681831682446599,1.2065949268713594,0.3017776553271338
1761414066983519000,6.47851904296875,8.045190362820028,1.2178086870640517,0.1366516462627798
1761414066993531000,6.48853076171875,8.514757255071402,1.3170993746384978,-0.002551438048481941
1761414067003544000,6.4985439453125,8.930759145873784,1.3409490367814898,-0.06725494249686598
1761414067013557200,6.50855712890625,9.182204096204043,1.300332656493783,-0.058295865895785386
1761414067023569200,6.518569091796875,9.29425811150074,1.3231968147307633,-0.0724633613275364
1761414067033582000,6.52858203125,9.254170431262255,1.4165794473052025,-0.183649215487577
1761414067043594200,6.53859423828125,9.026574558553099,1.6435434518516063,-0.44319414137154817
1761414067053607000,6.54860693359375,8.804961267384886,1.9159025953948496,-0.6235143220342695
1761414067063620000,6.5586201171875,8.560621765145658,1.9526301515504716,-0.6584766951482742
1761414067073632000,6.568632080078125,8.267711416482925,1.8743372438192367,-0.6770644181750715
1761414067083645200,6.578645263671875,7.868228698804974,1.7245862428128718,-0.6821893599733709
1761414067093657000,6.588656982421875,7.545513578987121,1.6108815376996992,-0.6339134048432111
1761414067103670000,6.598669921875,7.153395837119222,1.4511530402973294,-0.5735490986429155
1761414067113683700,6.60868359375,6.627921179684996,1.3140151448875665,-0.41932632251735774
1761414067123695600,6.618695556640625,6.24971096713841,1.2704612498432397,-0.13609956533797085
1761414067133708800,6.628708740234375,5.999224048185348,1.4624606162533162,0.19647198177948594
1761414067143720700,6.638720703125,6.008695640885829,1.9349813898742199,0.20429684845255686
1761414067153733600,6.648733642578125,6.073880937501788,2.444950142879784,-0.09869425605125724
1761414067163746600,6.65874658203125,5.879031734618544,2.7025737818449733,-0.34943683026582
1761414067173758500,6.668758544921875,5.55538722499609,2.6167963635772464,-0.35425555565916
1761414067183771600,6.678771728515625,5.275021885129809,2.333516013047099,-0.28496200174046676
1761414067193783600,6.688783447265625,4.918145552513003,1.9834455610528587,-0.22026759391399098
1761414067203796700,6.698796630859375,4.375496472916007,1.7735779449969529,-0.3611595628939569
1761414067213809700,6.7088095703125,3.681810444155335,1.7850816280469297,-0.7455125890444964
1761414067223821600,6.718821533203125,2.596617498901486,1.9397841139808296,-1.2057605218738316
1761414067233834500,6.72883447265625,1.092005547878146,1.9939514652371406,-1.4879507390797138
1761414067243847700,6.73884765625,-0.3012409546345472,1.8072589730635285,-1.4276277878031134
1761414067253859600,6.748859619140625,-2.0479472593188284,1.378499015235901,-0.9149293175727129
1761414067263872500,6.75887255859375,-4.0535470767736435,1.1218252243414522,-0.11506459528952837
1761414067273884400,6.768884521484375,-5.957437747335433,1.0516939957559108,0.5538971073854714
1761414067283897600,6.778897705078125,-7.2200523753315204,0.696169370009005,0.9702110598117113
1761414067293910500,6.78891064453125,-7.461229029625653,-0.02098871975392103,1.2527194030560553
1761414067303922700,6.798922607421875,-7.679191397070884,-0.9883578341379761,1.340697546238452
1761414067313935600,6.808935546875,-8.322088318836688,-1.8493062629371881,0.975429963503778
1761414067323947800,6.81894775390625,-9.708980483886599,-2.3284493773072956,-0.008866274617938324
1761414067333960400,6.82896044921875,-11.67176933361888,-1.9711235473573208,-1.2479895980551838
1761414067343973600,6.8389736328125,-13.049510808485746,-0.8470660339191556,-1.961238697680831
1761414067353985500,6.848985595703125,-13.755533756250141,0.3097098000332713,-1.253976709640771
1761414067363998700,6.858998779296875,-13.982314220923184,0.5876192711800337,0.4593586193067953
1761414067374010600,6.8690107421875,-13.479561098384856,-0.03147650375962257,1.7267872599884866
1761414067384023600,6.8790234375,-12.162055773293972,-0.9583777064159512,1.7761193000428377
1761414067394036500,6.889036376953125,-10.347489399826525,-2.000459239695966,1.0879529114864765
1761414067404048600,6.899048583984375,-8.59599702990949,-2.9554215847104786,0.10552417513653635
1761414067414061600,6.9090615234375,-6.9065019742220635,-3.309686858046055,-0.6291969707805662
1761414067424073700,6.91907373046875,-5.325422869589924,-3.1219913263097405,-0.9278351955708116
1761414067434086700,6.929086669921875,-4.03368969913721,-2.8248411481201647,-1.3670266041070223
1761414067444099600,6.939099609375,-3.1066829902797934,-2.1983836122408507,-1.7831408692426978
1761414067454111500,6.949111572265625,-2.430813188716769,-1.319079734800756,-1.782428044798225
1761414067464124700,6.959124755859375,-1.8707143771469592,-0.40469358419403434,-1.293923520103842
1761414067474136600,6.969136474609375,-1.3526754226714373,0.1240273616850376,-0.6894372852750122
1761414067484149800,6.979149658203125,-0.7189876432776451,0.3467513905741274,-0.1221545900830999
1761414067494162400,6.989162353515625,0.07352700850367545,0.3139364047523588,0.013133932866621761
1761414067504174600,6.999174560546875,1.0620452939003706,0.2308926492322236,-0.07498858722252771
1761414067514187500,7.0091875,2.2089386162638665,0.11394910832829773,-0.17429969653049482
1761414067524199700,7.01919970703125,3.334570539411902,-0.038748978980630636,-0.15891922684609888
1761414067534212600,7.029212646484375,4.256065791371465,-0.26866401535235346,-0.0855921796276234
1761414067544225800,7.039225830078125,4.756090950250625,-0.5345514055982232,-0.0097297139137052
1761414067554237700,7.04923779296875,5.115875863790512,-0.4865994217254221,0.0046207916684448715
1761414067564250600,7.059250732421875,5.695497121953964,-0.30807175050266083,-0.029689766473323106
1761414067574262500,7.069262451171875,6.311961963868141,-0.2326443152051419,0.04866029653893783
1761414067584275700,7.079275634765625,6.901784882572293,-0.21605982175953686,0.08032856001099571
1761414067594288600,7.08928857421875,7.448515094003081,-0.1879359163634479,0.0874871995939873
1761414067604300800,7.09930078125,7.953181941208243,-0.22323358584642408,-0.004495777049288154
1761414067614313700,7.109313720703125,8.35565331930816,-0.2911658430829644,-0.03741623253952712
1761414067624326700,7.11932666015625,8.601386906254291,-0.32685221962258215,0.04652556779887527
1761414067634338600,7.129338623046875,8.73078251697421,-0.28303134420514103,0.17069379925932734
1761414067644351700,7.139351806640625,8.711659883353114,-0.2297273317798972,0.3384975761655718
1761414067654363600,7.14936376953125,8.602367733985185,-0.13545008845329284,0.488552309358865
1761414067664376800,7.159376953125,8.481932843834162,0.06211889478266239,0.5813099784353748
1761414067674389500,7.169389404296875,8.408848902922868,0.35351664692535995,0.5916225885372609
1761414067684401400,7.1794013671875,8.354549741980433,0.6612760435432196,0.6164016404848546
1761414067694414600,7.18941455078125,8.244068675088881,0.8368563362024724,0.5593711914150044
1761414067704426500,7.199426513671875,7.9726605486601585,0.9868119198702275,0.5250423304315656
1761414067714439700,7.209439697265625,7.587054380643368,1.1038405087091028,0.4161381940005347
1761414067724452600,7.21945263671875,7.297216279032826,1.1455796094164252,0.2834180054351687
1761414067734464800,7.22946484375,7.118881573098897,1.1026859318464994,0.27897008611559865
1761414067744477400,7.2394775390625,6.745896986246109,0.9208787274964153,0.5006435830384492
1761414067754489600,7.249489501953125,6.187080615702271,0.7703000434942543,0.7414002583548426
1761414067764502500,7.25950244140625,5.670296045202017,0.7898702747523784,0.8810897379435598
1761414067774515700,7.269515625,4.732160624086856,0.8329568445459008,1.040835624872148
1761414067784527600,7.279527587890625,3.5710458841472863,0.7686682045087218,1.0810476621426641
1761414067794540500,7.28954052734375,1.9680010314226148,0.6134212364345789,1.1643174815036357
1761414067804552400,7.299552490234375,-0.4459510388642549,0.09580269932821392,1.1150735581241547
1761414067814565600,7.309565673828125,-2.0871996577769516,-0.3454768405936658,0.8558834735598415
1761414067824578600,7.31957861328125,-2.6239444817662236,-0.8090949074432253,0.5247760807108134
1761414067834590700,7.3295908203125,-2.662020237660408,-1.4085945860311389,-0.011488777741789817
1761414067844603600,7.339603759765625,-3.4385359407991167,-1.925303460946679,-0.8452040394395589
1761414067854615800,7.34961572265625,-5.802666287818551,-2.4652903355970976,-1.8224197173163295
1761414067864628500,7.35962841796875,-8.678166194552183,-2.7701608789056538,-2.804348395189643
1761414067874641700,7.3696416015625,-11.057101311993598,-2.3068340500876308,-3.646812196010351
1761414067884653600,7.379653564453125,-12.293407194256782,-0.7691954432532191,-3.539386425036192
1761414067894666800,7.389666748046875,-13.257922088253498,0.5272546727187931,-2.72773978728354
1761414067904678700,7.3996787109375,-14.326086741816997,0.718122258619964,-1.7051010594896971
1761414067914691600,7.409691650390625,-14.79722073725462,0.12307765974476932,-0.9114937901660799
1761414067924704500,7.41970458984375,-14.551719205498694,-0.34916999602317805,-0.8257153489850461
1761414067934716700,7.429716552734375,-14.240054472005367,-0.6468626105263828,-1.4707709100894628
1761414067944729600,7.4397294921875,-13.9146254170537,-0.6764119456157088,-2.0893829931654033
1761414067954741800,7.44974169921875,-13.481186069238186,-0.8890354362510144,-2.247741225127876
1761414067964754700,7.459754638671875,-12.46803193975687,-1.2826342104569077,-2.1171881149359044
1761414067974767600,7.469767578125,-11.066313376975058,-1.5112079882875085,-1.7600687673434614
1761414067984779500,7.479779541015625,-9.543194293880463,-1.712749820677191,-1.2148846893761307
1761414067994792700,7.489792724609375,-7.829051119148731,-1.6839146252065895,-0.6334981020405889
1761414068004805600,7.4998056640625,-6.202503810283542,-1.4244490116365254,-0.13509353010058403
1761414068014817800,7.50981787109375,-4.97085656748116,-1.2279241306260227,0.13724252482801674
1761414068024830500,7.51983056640625,-4.181974719244241,-1.057185140518099,0.2808817649558186
1761414068034842600,7.529842529296875,-3.589553016218543,-0.8356082358375191,0.42181218451634045
1761414068044855600,7.53985546875,-2.846979914692044,-0.644834173438698,0.7299491822749375
1761414068054868700,7.54986865234375,-1.6598773315370081,-0.419064054851979,1.0706867193870246
1761414068064880600,7.559880615234375,-0.08272972113490104,-0.2974132130399346,1.3177498013712465
1761414068074893800,7.569893798828125,1.5497177516847849,-0.3166483671247959,1.468384453344345
1761414068084905700,7.57990576171875,3.2995079938590526,-0.33208851284086705,1.4327759643465279
1761414068094918700,7.589918701171875,5.041944366139173,-0.2614060801133513,1.3171287468634545
1761414068104931600,7.599931640625,6.313768721029162,-0.034147768795490266,1.2684545861959458
1761414068114943200,7.609943115234375,6.816843330606818,0.041537513720616696,1.5319281202331185
1761414068124956200,7.6199560546875,6.918663536658883,0.03287307268455624,1.7507672705128787
1761414068134968300,7.62996826171875,7.054055757445097,0.19494769482165575,1.7306018498405813
1761414068144981200,7.639981201171875,7.260215458893776,0.4153479569382965,1.590378994027525
1761414068154994200,7.649994140625,7.530859030690789,0.5432170887432992,1.4701345118820666
1761414068165006000,7.660006103515625,7.900990566200018,0.6121335347115993,1.2873454568877816
1761414068175019300,7.670019287109375,8.298629117316008,0.601257335910201,1.0828185442727059
1761414068185031200,7.68003125,8.657117561304569,0.5074066474325954,0.9182577313430607
1761414068195044400,7.69004443359375,8.986247808861732,0.3874855520226061,0.7323634038098156
1761414068205057000,7.70005712890625,9.20352570117414,0.2561528357602656,0.6033085693515837
1761414068215069200,7.710069091796875,9.167254948875307,0.11949907060563564,0.5749368997395038
1761414068225082000,7.72008203125,8.887750609752535,-0.0738594553284347,0.6314156697433442
1761414068235094300,7.73009423828125,8.252450134465098,-0.2999989917494357,0.7022146415226161
1761414068245107200,7.740107177734375,7.431621242347359,-0.41929318743273614,0.797947636615485
1761414068255120400,7.750120361328125,6.617218583884835,-0.3841599147312343,1.059286423646286
1761414068265132300,7.76013232421875,5.957293954950571,-0.0394279011555016,1.3611569814212618
1761414068275145200,7.770145263671875,5.541679602161049,0.8831533924750983,1.0766777764953672
1761414068285157000,7.7801572265625,5.459473612639307,1.6499525882415473,0.25010758251296356
1761414068295170300,7.79017041015625,5.185457349538803,1.6167118512883782,0.14944568878370337
1761414068305183200,7.800183349609375,4.806445757481455,1.3238096859320998,0.24926588925812393
1761414068315195400,7.8101953125,4.729218140894174,1.5277977424301206,-0.08320084577798843
1761414068325208000,7.8202080078125,4.8620472331941125,1.8455276211813092,-0.46331327521670607
1761414068335220200,7.83022021484375,4.912424252256751,1.9190935003906486,-0.6451126981191336
1761414068345233200,7.840233154296875,4.545016004231572,1.8927900153547523,-0.5290719512738287
1761414068355246300,7.850246337890625,3.692537005352974,1.9065056753657756,-0.1406174902869854
1761414068365258200,7.86025830078125,2.4124913500845433,1.8333984997093677,0.48584290426969523
1761414068375271400,7.870271484375,1.2667846071571112,1.9694845479786396,0.5324838055439293
1761414068385283300,7.880283447265625,0.49547699405550955,2.91885535659641,-0.3933045770322904
1761414068395296000,7.8902958984375,-0.43528234533369536,3.0934470766097304,-1.0755660158611833
1761414068405309200,7.90030908203125,-2.6367086862713096,3.3039465608283876,-0.8253031879875808
1761414068415321000,7.910321044921875,-4.2724487708956005,1.911707481792569,0.0775514782467857
1761414068425334300,7.920334228515625,-4.614409858453273,-0.4711085687354207,1.3500671398691833
1761414068435346200,7.93034619140625,-4.133596180522441,-1.198286532731354,1.6486434053391217
1761414068445359000,7.940359130859375,-3.4337884540110823,-2.373210894575715,1.1711077992308885
1761414068455372000,7.9503720703125,-3.5819390340834856,-3.7595600387901067,0.22110559737440197
1761414068465384200,7.96038427734375,-5.149923094820976,-4.318647919751704,-0.9160701581709086
1761414068475397000,7.970397216796875,-7.737188828009367,-4.112655391563475,-1.7923726618379354
1761414068485410300,7.980410400390625,-10.399975958389042,-2.830862892627716,-2.5852736825883387
1761414068495422200,7.990422119140625,-12.986327499341964,-0.9311515535771846,-3.0878093629837036
1761414068505435100,8.00043505859375,-14.884866287481785,0.37768881902098655,-3.233257113838196
1761414068515447000,8.010447021484374,-15.329682769358158,0.8553479784436523,-2.7545886312425134
1761414068525460200,8.020460205078125,-14.209969130343199,0.4013517264202237,-1.573254110094905
1761414068535473200,8.03047314453125,-11.954261748641729,-0.5414608927257358,-0.7103111464776098
1761414068545485300,8.0404853515625,-9.449794125649332,-1.2034053370498121,-0.4893819651160389
1761414068555498200,8.050498291015625,-7.519768312355875,-1.5050301764354108,-0.7407188519619405
1761414068565510400,8.060510498046876,-6.617977293297648,-1.3343085758537054,-1.2144833420336245
1761414068575523000,8.070523193359374,-6.63026452794075,-0.948887116754055,-1.4873840451076625
1761414068585536300,8.080536376953125,-6.584108925965428,-0.6875877118855714,-1.4937917201928794
1761414068595548200,8.090548095703125,-5.481731037154794,-0.6162254802003503,-1.4947035743407904
1761414068605561300,8.100561279296874,-3.531138236650824,-0.7262656714566051,-1.3974955382592975
1761414068615573200,8.1105732421875,-1.3082061663478612,-0.9313191652290522,-0.9621681847400962
1761414068625586200,8.120586181640626,0.8332803774118422,-1.1860491285793482,-0.5232546067645772
1761414068635599000,8.13059912109375,2.6882091564059256,-1.3720524694450198,-0.21559355595465748
1761414068645611300,8.140611328125,4.076424094492197,-1.2924986018672584,-0.026637137437053024
1761414068655624200,8.150624267578126,4.970739663103222,-0.9250029678195715,0.17191303885597733
1761414068665636400,8.16063623046875,5.401348171406984,-0.5746005073919892,0.40056298719532785
1761414068675649300,8.170649169921875,5.40320169031918,-0.2379573269214481,0.47477092716787006
1761414068685662200,8.180662109375,5.062120308205485,0.16424531723968683,0.3037422333983704
1761414068695674000,8.190674072265624,4.693782085853814,0.5051661750294267,0.11088186624478548
1761414068705687300,8.200687255859375,4.564701532432436,0.6844798089981079,0.06163301096186041
1761414068715699200,8.21069921875,4.743841709530353,0.8370219750929624,0.06458316600434481
1761414068725712400,8.22071240234375,5.09303333286345,0.954099225379154,0.08392547025810927
1761414068735725000,8.23072509765625,5.591797093504667,1.0173754004381597,0.08978829787690192
1761414068745737200,8.2407373046875,6.180718094933033,0.9261924698650836,0.0797185566201806
1761414068755750100,8.250750244140624,6.698665863993764,0.6871672214511781,-0.026970168783701953
1761414068765762000,8.260761962890625,7.042539507174491,0.41538061709888274,-0.2164267188431695
1761414068775775200,8.270775146484375,7.229544426298141,0.17968465923815966,-0.3756884389840066
1761414068785788400,8.280788330078124,7.2718386766701935,0.06002849837467074,-0.41426681063808496
1761414068795800300,8.29080029296875,7.123433829575776,-0.005415010786056518,-0.3420640364754945
1761414068805813200,8.300813232421875,6.837899562638998,0.006757219175249338,-0.24129417972657827
1761414068815825200,8.3108251953125,6.567723023831844,0.0922798589643091,-0.20233029761994256
1761414068825838000,8.320838134765625,6.255403041300177,0.16260894820950925,-0.20350516835190355
1761414068835851300,8.330851318359375,6.0792620460182425,0.1834156624600291,-0.23264784060278906
1761414068845863200,8.34086328125,6.013350188693404,0.16499606254175303,-0.2250581891913898
1761414068855876000,8.3508759765625,6.038965106943249,0.014051613967120647,-0.18402696275878697
1761414068865888000,8.360887939453125,6.038619654506444,-0.1581867478530854,-0.051920229916647076
1761414068875901200,8.370901123046876,5.729073228341341,-0.2699262903731316,0.0501874513072893
1761414068885914000,8.3809140625,5.018036251807213,-0.13696224658191203,0.032918153935298324
1761414068895926300,8.39092626953125,4.216977059042454,0.12028700611293315,-0.19472385947052387
1761414068905939200,8.400939208984376,3.5080320863515135,0.36458968347311016,-0.5498654772492125
1761414068915951400,8.410951416015624,2.6728935138523577,0.2904553567260504,-0.6103296270947903
1761414068925964000,8.420964111328125,1.446284265217185,-0.4746393732100725,0.024155476689152418
1761414068935977200,8.430977294921876,-0.05761106196939945,-1.779252775762975,1.099162506960705
1761414068945989000,8.440989013671874,-0.808817551806569,-2.7002760262966152,1.6022073789872229
1761414068956002300,8.451002197265625,-0.050290509822964666,-2.0262775715634227,0.08465440558716654
1761414068966014200,8.46101416015625,0.5963876840472221,-0.9471075398609041,-2.0795451975010333
1761414068976027100,8.471027099609374,-0.42350130664706226,-0.5579505474947393,-2.7681559688240287
1761414068986040000,8.4810400390625,-3.431186162558198,-0.39600218208581206,-1.5612620590060948
1761414068996052200,8.49105224609375,-6.860746769741177,0.12985153779387473,-0.28319398742094637
1761414069006065200,8.501065185546874,-9.30597134564817,0.7504166546337306,0.07210599925722927
1761414069016077300,8.511077392578125,-10.37678212980628,0.7251980422250927,-0.11096461262479423
1761414069026090200,8.52109033203125,-9.894302564489841,0.03698211543858051,-0.42070561151392755
1761414069036103200,8.531103271484374,-8.945009789544343,-1.4815626454778015,-0.31981567204929884
1761414069046115000,8.541114990234375,-7.779949526849388,-2.8330308843165635,-0.5799334659177809
1761414069056128300,8.551128173828126,-7.021973689007758,-3.553558158251643,-1.036996631231159
1761414069066140200,8.56114013671875,-7.162104044231772,-3.318084976296127,-1.627805199971795
1761414069076153300,8.5711533203125,-8.26216488827169,-1.7937480418443679,-2.608006031139195
1761414069086166000,8.581166015625,-10.577634372496604,0.1166533257856965,-2.9973280048087236
1761414069096178200,8.59117822265625,-13.03999128499031,1.5679033967167137,-2.0923454962328076
1761414069106191000,8.601191162109375,-13.878454033476114,2.63700620791316,-1.2013443128667771
1761414069116203300,8.611203369140625,-12.78092300017476,2.434266397910565,-0.28395918137347326
1761414069126216400,8.621216552734374,-10.180422522360086,1.0053070692427455,0.7573650855321437
1761414069136229400,8.6312294921875,-7.012246660241484,0.036020138538628815,0.6304730551309883
1761414069146241500,8.641241455078125,-4.6686254327654835,-0.8456734105169773,0.40474469332676377
1761414069156254200,8.651254150390624,-3.4462487071335315,-1.4534166013151406,0.40253129159361123
1761414069166266400,8.661266357421875,-3.0595839699745175,-1.6392738117083907,0.39744814311042426
1761414069176279300,8.671279296875,-2.9875778874278067,-1.5029672525562345,0.22443519845483823
1761414069186292500,8.68129248046875,-2.668612475532293,-1.2668264004722236,0.01391075789143797
1761414069196304400,8.691304443359375,-1.871056322452426,-1.1044565947808325,-0.0990208850565832
1761414069206317300,8.7013173828125,-0.7062135019004344,-0.9601251346051692,-0.07439420152595266
1761414069216330200,8.711330322265624,0.6404588809639216,-0.8242895539656281,0.13155521817291155
1761414069226342400,8.72134228515625,1.955660020765662,-0.5852886362753809,0.3727258993839845
1761414069236355300,8.731355224609375,3.1058272502332924,-0.3267297622866928,0.6365691800490021
1761414069246367200,8.7413671875,3.944865752780437,-0.11083324133008718,0.967336161962524
1761414069256380400,8.75138037109375,4.466906928634644,0.1444979027837515,1.2093161685287952
1761414069266392300,8.761392333984375,4.762262332361936,0.3858160113751888,1.3362845521017908
1761414069276405200,8.7714052734375,5.067510184550285,0.7970454270787537,1.3082631572321057
1761414069286418400,8.78141845703125,5.329965773716569,1.1539505473986267,1.1939198619544504
1761414069296430300,8.791430419921875,5.504365478289127,1.3196153029821813,1.1721502209559083
1761414069306443300,8.801443359375,5.718866307103633,1.5131917094506322,1.2552158960469066
1761414069316455400,8.811455322265624,5.960560847792029,1.6817463412567972,1.4286137301005422
1761414069326468400,8.82146826171875,6.340400122845172,1.7609969881042837,1.6095296846993266
1761414069336481300,8.831481201171876,6.828551888579129,1.8614954440332947,1.8409703962683677
1761414069346493200,8.8414931640625,7.344520466521382,1.867838821710646,2.0343144552856685
1761414069356506400,8.85150634765625,7.7592369936883445,1.86558402852118,2.1103224669501186
1761414069366518300,8.861518310546876,8.036725316813587,1.862613196016848,2.1259968598134815
1761414069376531500,8.871531494140624,8.130428851905465,1.7750997477367518,2.0880583204329013
1761414069386544000,8.881544189453125,8.161198668700456,1.606967286865413,1.8860177447408437
1761414069396556300,8.891556396484376,8.144715735933184,1.5212611802682279,1.7391583735227585
1761414069406569200,8.9015693359375,8.012311006525158,1.4619792624771595,1.7009898247785866
1761414069416582400,8.91158251953125,7.899080933186411,1.3322028357461093,1.6069754701718688
1761414069426594300,8.92159423828125,7.758221094644069,1.133768760113418,1.3806578007049857
1761414069436607500,8.931607421875,7.404590612080693,1.0175614245295523,0.9113106886841357
1761414069446619400,8.941619384765625,7.156081130680441,1.0751543663203715,0.5821060241838917
1761414069456632300,8.95163232421875,7.0043187898516654,1.1943874794661997,0.5054087881462648
1761414069466645200,8.961645263671874,6.530930878007411,1.1070490954920649,0.5205066232306882
1761414069476657400,8.971657470703125,6.13767857915163,0.9176207486137747,0.5394168927427381
1761414069486670300,8.98167041015625,5.6652498677283525,0.7284390699729323,0.34507673536017536
1761414069496682500,8.9916826171875,4.7961856447517865,0.525571688067913,0.18929217154430225
1761414069506695200,9.001695068359375,3.32286256596148,0.2693251826748252,0.39457057838011533
1761414069516707300,9.011707275390625,1.4256886364340782,0.0806225197225809,0.6380051311362535
1761414069526720300,9.02172021484375,-0.30850363911390305,-0.1431599321782589,0.857416893672198
1761414069536733400,9.0317333984375,-1.5413129114329813,-0.5688108180746436,1.00158293415308
1761414069546745300,9.041745361328125,-1.7701818728178738,-0.739612790416181,0.48915243067648256
1761414069556758500,9.051758544921874,-1.9644284336328506,-0.5605915635228157,-0.3261822114065289
1761414069566770400,9.0617705078125,-3.6890456561058755,-0.6165694713324308,-0.44012266150433565
1761414069576783400,9.071783447265625,-6.856618876156211,-0.8225676986090839,0.20648025690624489
1761414069586796300,9.08179638671875,-9.778490657964348,-0.8409268005117774,0.822925060679391
1761414069596808400,9.091808349609375,-11.13889930523634,-0.3267249399811029,0.45440337151959537
1761414069606821400,9.1018212890625,-11.28432835139036,0.5943745906591416,-0.4946681984232738
1761414069616833300,9.111833251953126,-11.552878750300406,0.9617378304988146,-0.7475321852385998
1761414069626846200,9.12184619140625,-12.180966225469112,1.0572452001422643,-0.5440193450368941
1761414069636859400,9.131859375,-12.883711174476145,1.3672617280371486,-0.5074481850193813
1761414069646871300,9.141871337890626,-13.343451669239997,1.643171842060238,-0.6886519801162183
