time,seconds_elapsed,z,y,x
1761414042352586000,0.0695859375,2.333611290115118,-0.4293341044537723,0.5619590524837375
1761414042362599200,0.07959912109375,2.1650603115707634,-0.4647131686098873,0.4834054479897022
1761414042372612000,0.089612060546875,2.1506734742999076,-0.44823695784434675,0.44516452812906354
1761414042382624300,0.099624267578125,2.2478858942955733,-0.3273243671789765,0.47495983733609315
1761414042392637000,0.109636962890625,2.4309955595463513,-0.0809228178434074,0.6510889229845255
1761414042402650000,0.119650146484375,2.7205396466463805,0.21345102750062941,1.0836435238547621
1761414042412662000,0.129662109375,3.039749388691783,0.14670754165723918,0.7057653197415172
1761414042422675200,0.13967529296875,3.444914243659377,0.14603636439740658,-0.055008428023220035
1761414042432687900,0.14968798828125,3.6155671629190445,0.4657618008799851,-0.5036704931115731
1761414042442700000,0.159699951171875,3.4521903721421956,0.6843922768451273,-0.5868993594076484
1761414042452713000,0.169712890625,3.8226363804280754,0.8746978449493646,-0.27918727253023534
1761414042462726100,0.17972607421875,4.883544779253006,1.0790594109348952,0.1391864254374057
1761414042472738000,0.189738037109375,5.57168661789,0.9703322019733488,0.23578254016563294
1761414042482751200,0.199751220703125,5.920695285871624,2.1516982873030006,-1.231647827324271
1761414042492764000,0.209763916015625,5.846224274516105,2.110597484499216,-1.2416599566422402
1761414042502776000,0.219776123046875,5.608398099693655,1.7452334556527436,-0.5218844143899157
1761414042512789000,0.2297890625,5.045377263197302,1.2992669269584118,-1.0481570538014173
1761414042522802200,0.23980224609375,3.5651276000142094,0.14627002702280878,-1.652589951007813
1761414042532814000,0.24981396484375,1.2510954551160334,-0.9501162201575934,-2.404205460037291
1761414042542827000,0.259826904296875,-2.063709476596117,-1.986732912160456,-2.1908673913918433
1761414042552840000,0.26983984375,-5.272877274316549,-3.99357454636991,0.5106156360743567
1761414042562852000,0.27985205078125,-7.881510205182432,-5.16888323135674,-0.4552501245420426
1761414042572865000,0.289864990234375,-7.715008560383319,-3.0421994121924043,-3.4919732242152093
1761414042582877200,0.299877197265625,-8.6221467856884,-3.2882857580989597,-0.2509655693154782
1761414042592890000,0.30989013671875,-9.624723407053947,-1.3461824073903261,0.3049509698673151
1761414042602903000,0.319903076171875,-12.203308990180492,-1.0050145160369575,-0.8348547871217131
1761414042612915000,0.3299150390625,-15.644215167242288,-0.6800745597764849,-2.815971028444171
1761414042622928100,0.33992822265625,-19.59772366068363,1.7818344628192484,-3.508441251674294
1761414042632941000,0.349941162109375,-22.615483920407293,2.6548539992928504,-4.114097699326276
1761414042642953200,0.359953125,-23.074995282590386,2.392635433752835,-4.120262067174911
1761414042652966100,0.369966064453125,-20.286524255490303,1.2761980399295687,-3.58083867162615
1761414042662979000,0.37997900390625,-16.223428429126738,0.13446443841680883,-3.430568615181744
1761414042672991000,0.389990966796875,-13.512413566672802,-0.6599414339385926,-3.2877252016067504
1761414042683004200,0.400004150390625,-11.681673472517728,-1.476569074974209,-3.0894413480997085
1761414042693017000,0.41001708984375,-9.77844974143207,-2.0262293485075236,-2.535627023626864
1761414042703029200,0.420029296875,-7.7316253486633295,-2.1326666929662226,-1.8435756103307008
1761414042713042000,0.4300419921875,-5.692728826284408,-2.0543743697568773,-1.4741408249139785
1761414042723055000,0.44005517578125,-3.8896775340437886,-2.092953545128554,-1.333578215752542
1761414042733067000,0.45006689453125,-2.3772628003150222,-2.160202934667468,-1.238925124850869
1761414042743080200,0.460080078125,-1.3980255534827708,-2.0883852142997084,-1.1554087833829223
1761414042753093000,0.470093017578125,-0.7138152090758085,-1.7331613250650464,-1.149599439517036
1761414042763105300,0.480105224609375,0.5761135423034429,-1.2842568432226775,-0.9168506410241126
1761414042773118000,0.490117919921875,2.365308743149042,-1.0512402606390416,-0.40429435574337835
1761414042783131100,0.500131103515625,4.072037257710099,-0.6745628106176853,0.24021610216628758
1761414042793143000,0.51014306640625,5.4303766974925995,-0.19045242922902106,0.7890834352236241
1761414042803156200,0.52015625,6.552599688979983,0.1506535028040409,1.224073081221059
1761414042813168000,0.530168212890625,7.330408354538679,0.14442732176557183,1.4274663136310874
1761414042823181000,0.54018115234375,7.860665570074319,0.02964132422171533,1.3406151286520063
1761414042833194000,0.550194091796875,8.514819214391707,-0.09080839817225933,1.2435529307819901
1761414042843206100,0.5602060546875,9.432330949673055,-0.15472827796228228,1.1237800116710364
1761414042853219000,0.570218994140625,10.470090528100728,-0.0676121584367007,0.7983839822061359
1761414042863232300,0.580232177734375,11.272047546488047,-0.02792443730123341,0.5536979315515608
1761414042873244200,0.590244140625,11.567841341632604,-0.17902889874316752,0.4874254607534036
1761414042883257000,0.600257080078125,11.495693804788589,-0.28812910573557016,0.4673518830830231
1761414042893270000,0.61027001953125,11.373736819636822,-0.34963900177441537,0.6254542040556669
1761414042903282200,0.6202822265625,11.379972499155997,-0.32203853573054075,0.9961194080501794
1761414042913295000,0.630295166015625,11.509114427375792,-0.3065408876735717,1.3538038421794771
1761414042923308000,0.64030810546875,11.69927576470375,-0.319514204884693,1.6339938254788517
1761414042933320000,0.65031982421875,11.564160022771357,-0.327902605458349,1.8289359673425554
1761414042943333000,0.6603330078125,11.110264746904372,-0.3252874910565093,1.9060016713663934
1761414042953346000,0.670345947265625,10.605544123685359,-0.30547355070300397,1.7886590481422842
1761414042963358200,0.680358154296875,10.145088174128531,-0.31302769240960476,1.6629504553720353
1761414042973371100,0.69037109375,9.714162854960561,-0.22409403860066085,1.582448054897785
1761414042983384000,0.700384033203125,9.331178852140903,-0.0951753977427259,1.615619379876554
1761414042993396000,0.71039599609375,8.954670767337083,-0.03589629296325147,1.6981665840514004
1761414043003409200,0.7204091796875,8.618962894955278,0.08167305168882012,1.672757563637197
1761414043013422000,0.730422119140625,8.400867256519199,0.23600257612448183,1.5871687998093664
1761414043023434200,0.740434326171875,8.375864917209745,0.32059195365142074,1.485336318797618
1761414043033447000,0.750447021484375,8.235506598448753,0.36037699768152087,1.353428432995826
1761414043043459000,0.760458984375,7.813097178691625,0.3900475114651024,1.2074594347462058
1761414043053472000,0.770471923828125,7.062393377679586,0.422109377364628,1.0907422499440609
1761414043063485200,0.780485107421875,5.816828084161878,0.3380200217816979,1.0291282359436154
1761414043073497000,0.7904970703125,4.329740683913231,0.27347483143387363,0.7325362030934542
1761414043083510300,0.80051025390625,2.941825021034479,0.4435270631203428,0.42135852246470745
1761414043093523700,0.810523681640625,1.673035503795743,0.7494811273492872,0.37782548754531886
1761414043103535900,0.820535888671875,0.442950103482604,0.9204498345598577,0.8467050185870378
1761414043113548800,0.830548828125,-0.8004173877298831,0.7182859978143126,1.8740826845362781
1761414043123562000,0.84056201171875,-1.6409692174494266,-0.05550442681265995,3.216481043343246
1761414043133574000,0.850573974609375,-1.4872025510609148,-1.1131306073628366,4.16492216989547
1761414043143586800,0.8605869140625,-1.0221820700675248,-0.9268285758115351,3.5223923278763887
1761414043153599700,0.870599853515625,-2.138541137957573,-0.06793150831786915,2.465114686769247
1761414043163612000,0.88061181640625,-5.391641016384959,0.7422378782227635,1.5434721352934837
1761414043173624800,0.890624755859375,-10.011429060745238,1.5781791454069316,1.2666165571138261
1761414043183637800,0.9006376953125,-14.211384842360019,2.335284191763401,1.1379629969328642
1761414043193649700,0.910649658203125,-16.48879669086933,2.7474641861900686,0.4570911858314648
1761414043203662800,0.920662841796875,-16.811803487110137,2.823484472814202,-0.42366420559119433
1761414043213675800,0.93067578125,-17.204094831979273,2.6607290288060903,-1.6671230648815631
1761414043223688000,0.94068798828125,-18.921816449719667,2.148642114602774,-2.481009590515494
1761414043233700900,0.950700927734375,-20.915060643470287,1.9630854945912957,-2.5295918351158497
1761414043243713800,0.9607138671875,-22.42167984266281,2.3258393409393725,-1.9583114120572804
1761414043253725700,0.9707255859375,-23.584780203461644,3.0069337452828884,-1.325494131887704
1761414043263739000,0.98073876953125,-24.107677119362354,3.865718566307425,-0.79889412368536
1761414043273750800,0.990750732421875,-23.313996930932998,4.382590815091133,-0.4031042326433584
1761414043283764000,1.000763916015625,-20.645425371932983,4.192669423998892,-0.45043965552039444
1761414043293776600,1.010776611328125,-17.033517316043376,3.3805253581181165,-0.7892183867149054
1761414043303788800,1.020788818359375,-13.146694586908817,2.3732531262822447,-1.4597937351316213
1761414043313801700,1.0308017578125,-9.178295982849598,1.2225706407688557,-1.9856246586576103
1761414043323815000,1.04081494140625,-5.919415182933211,0.19690511249974368,-1.7515566673249006
1761414043333826800,1.050826904296875,-3.5151831271499394,-0.3751064013123512,-1.2515975594192743
1761414043343840000,1.060840087890625,-1.7127040818393229,-0.604273907252401,-0.7458378754761069
1761414043353852700,1.070852783203125,0.14244389286339282,-0.7254996555201709,-0.14599961258359254
1761414043363864800,1.08086474609375,2.199744671460986,-0.9016668081566691,0.3593206570290029
1761414043373877800,1.090877685546875,4.297808253079652,-1.2484981320992112,0.7294195323776453
1761414043383891000,1.100890869140625,6.607426673188805,-1.5467385897435246,1.0976222917813807
1761414043393902800,1.11090283203125,8.801286378264427,-1.7436007398843765,1.277642978040874
1761414043403915800,1.120915771484375,10.423748463642596,-1.894449180738628,0.8513385966718197
1761414043413928700,1.1309287109375,11.171780999618768,-1.9551685839869082,-0.37414482627119866
1761414043423940900,1.14094091796875,11.09065169941783,-1.8644446492277085,-1.6339757053002715
1761414043433953800,1.150953857421875,10.477854147839546,-1.4571955353319643,-2.4012195760942996
1761414043443967000,1.160967041015625,9.661598554986714,-0.8451509940780699,-2.615786309751868
1761414043453979000,1.170978759765625,8.971488631147146,-0.20006211522594092,-2.4200901346504686
1761414043463991800,1.18099169921875,8.334775366452336,0.3583649637393653,-1.8993691014841199
1761414043474004700,1.191004638671875,7.782517331510782,0.9258910027004777,-1.498276610521972
1761414043484017000,1.201016845703125,7.271792499440908,1.2153447811685503,-1.1285279368504881
1761414043494029800,1.21102978515625,7.049053419113159,1.3804459115199743,-0.9515962295822799
1761414043504042000,1.2210419921875,7.1823004445642225,1.478018396999687,-0.7673803566552698
1761414043514054700,1.2310546875,7.649708697476982,1.5361020449168978,-0.5322720990220084
1761414043524067800,1.24106787109375,8.256646417111158,1.413353763256967,-0.5572792971696704
1761414043534079700,1.251079833984375,8.62994196960926,1.1902258297421038,-0.706929687345773
1761414043544093000,1.261093017578125,8.606746387460827,1.122279836241156,-0.607412059147656
1761414043554105900,1.27110595703125,8.53232739855349,1.09259956824854,-0.0663747255962342
1761414043564118000,1.281117919921875,8.567923028069734,1.0934169490460306,0.5815414491036907
1761414043574130700,1.291130615234375,8.579210145759582,1.104870290148258,1.2599173517361282
1761414043584144000,1.301143798828125,8.571337804949284,1.1225781616006045,2.035769622530043
1761414043594155800,1.31115576171875,8.87092105550468,1.1027035405684262,2.599354230388999
1761414043604169000,1.3211689453125,9.328446212306618,1.0112646624729036,2.793096348813176
1761414043614181600,1.331181640625,9.600146599680185,0.8151634867671876,2.48876590373069
1761414043624193800,1.34119384765625,9.636464113730192,0.46105165042765434,1.9134471650667488
1761414043634206700,1.351206787109375,9.542503973528742,0.17198577529862522,1.330902712932974
1761414043644220000,1.361219970703125,9.2731825902462,0.08515789812989533,0.9812405494786799
1761414043654231800,1.371231689453125,9.020151247507334,0.1787796732224524,0.9105869044542312
1761414043664245000,1.381244873046875,9.110680828738213,0.2893180963244289,1.1213956007525323
1761414043674257000,1.3912568359375,9.254150557518004,0.33699389360435306,1.3043079898655414
1761414043684269800,1.401269775390625,8.571426652276516,0.3510752451226115,1.3403043091371654
1761414043694282800,1.41128271484375,7.368740715542435,0.3849013076830655,1.5256396876133977
1761414043704295000,1.421294921875,6.555969457674026,0.31656938360445197,1.6667105385579168
1761414043714307800,1.431307861328125,5.935409455400705,-0.011284341210871934,1.3937752025619148
1761414043724320800,1.44132080078125,5.02721733712852,-0.2580221002308652,0.9997997039981186
1761414043734332700,1.451332763671875,3.1220319505810736,-0.45709217221215365,0.5316240103768185
1761414043744345900,1.461345947265625,0.08581365862488746,-0.3084787238683551,0.21757987093366682
1761414043754358800,1.47135888671875,-3.2485873694390057,-0.15705390789825469,0.3922070641191676
1761414043764371000,1.481370849609375,-6.170923846149444,-0.43823016228862105,0.6492053742602467
1761414043774383900,1.4913837890625,-8.338047519990802,-1.1283568180672823,0.7491776143580675
1761414043784396800,1.501396728515625,-9.607546646803616,-1.6452543474227188,0.46710817398764193
1761414043794408700,1.51140869140625,-10.77468137768507,-2.1818860664263364,-0.24237229381948708
1761414043804422000,1.521421875,-13.330833010685444,-2.5484999492034315,-0.7651872305251658
1761414043814434800,1.531434814453125,-17.709809142410755,-2.1217174289286134,-0.8225503821481018
1761414043824447000,1.541447021484375,-22.762245676469803,-0.8777442269079386,-0.5549048231232911
1761414043834460000,1.5514599609375,-27.02485051422119,0.8804394573412835,-0.04042736052162945
1761414043844472800,1.561472900390625,-29.781359884393215,2.6560218740284443,-0.017554361391067502
1761414043854484700,1.571484619140625,-30.158858149278164,3.975254753564298,-0.841027192146331
1761414043864498000,1.581497802734375,-27.755121768057343,4.2646898273319005,-1.8882699075818061
1761414043874509800,1.591509765625,-23.20401563025713,4.020461676512658,-3.003612491905689
1761414043884523000,1.60152294921875,-18.816486774241923,3.0315719274550674,-4.284624361857771
1761414043894535700,1.61153564453125,-16.003096409940717,2.2190470455631615,-5.2565860647290945
1761414043904547800,1.6215478515625,-13.649107517707346,2.0375755029082296,-5.328828294119239
1761414043914560800,1.631560791015625,-10.918723937916756,1.8288810222849248,-4.7175127977922555
1761414043924574000,1.641573974609375,-7.5266218315124505,1.4759464130312203,-3.8033334218040107
1761414043934585900,1.6515859375,-4.00799060973525,0.6462392179310321,-2.801977866666019
1761414043944599000,1.66159912109375,-1.084763906186819,-0.19503975701928136,-2.0569632172062993
1761414043954611700,1.67161181640625,1.0234808777064084,-0.9091746995687484,-1.5322136591762303
1761414043964624000,1.681623779296875,2.602313664716482,-1.474158652831614,-1.3433596050545573
1761414043974636800,1.69163671875,3.6815433176517485,-1.8937500925585626,-1.3520979150444268
1761414043984650000,1.70164990234375,4.567729940342903,-2.125564459745586,-1.5808382816135882
1761414043994662000,1.711661865234375,5.2990013111323115,-2.1174051186874507,-1.9746977525822818
1761414044004674800,1.7216748046875,5.686480871805548,-1.9239394791170954,-1.993518042255938
1761414044014687700,1.731687744140625,5.685032426562905,-1.4206129406049848,-1.9892193221487104
1761414044024700000,1.741699951171875,5.3362248341113325,-0.9761360659465194,-1.8923704747684298
1761414044034712800,1.751712890625,5.056020237764716,-0.5414313743703068,-1.9046268758818505
1761414044044726000,1.76172607421875,5.0511903333902355,-0.1809380203001201,-1.853870209851861
1761414044054738000,1.771738037109375,5.189556017029285,0.1184383095063269,-1.717415036009252
1761414044064750800,1.781750732421875,5.409540245690941,0.4087298539727926,-1.5893215939290821
1761414044074762800,1.7917626953125,5.8114212566822765,0.6627602907516061,-1.4479267717272042
1761414044084776000,1.80177587890625,6.389311161008477,0.8651905964136123,-1.3054068910181522
1761414044094788000,1.8117880859375,7.068534949174523,0.9837854116559028,-1.1399142771311104
1761414044104800000,1.821800048828125,7.735595421338081,1.0587402610056103,-0.9925720908321439
1761414044114813200,1.831813232421875,8.39047445732057,1.1466145054221153,-0.896420724196732
1761414044124826000,1.841826171875,8.972126929050683,1.178016190379858,-0.6732648797616362
1761414044134838000,1.851838134765625,9.492586973193287,1.082083873322606,-0.45724356338158245
1761414044144851200,1.861851318359375,9.790119720959662,1.0410432762734592,-0.2839236168697476
1761414044154864000,1.871864013671875,9.733655490937828,0.996146296057105,-0.12313304319381713
1761414044164876000,1.8818759765625,9.628657823893427,0.9116507342934608,-0.012366291228681802
1761414044174889000,1.891888916015625,9.629878305599092,0.8519707570955157,0.024199206233024597
1761414044184902100,1.901902099609375,9.582056816238165,0.8371851297654211,-0.01726999149173498
1761414044194914000,1.9119140625,9.516055527064204,0.869468565993756,0.023800781499966978
1761414044204927200,1.92192724609375,9.445362280681728,0.8737902285851538,0.007561959686875343
1761414044214940200,1.931940185546875,9.394197910633682,0.9117534640155732,0.08835910532400011
1761414044224952000,1.9419521484375,9.356011095580458,0.9275000453323126,0.2496107206404209
1761414044234965000,1.951965087890625,9.406509695196151,0.9918440688185394,0.3054560881115496
1761414044244977000,1.961976806640625,9.428224098876118,1.0910028005763888,0.30863866367042064
1761414044254990000,1.971989990234375,9.15977189964354,1.19527273786813,0.27704810507707295
1761414044265003300,1.982003173828125,8.742802625113725,1.2418826594822108,0.21136041189692914
1761414044275015200,1.99201513671875,8.5256504050076,1.3361267311915754,0.05335705778673291
1761414044285028000,2.002028076171875,8.525349960756301,1.3719972321264444,0.003030380671843886
1761414044295041000,2.012041015625,8.737911345940828,1.4724201386012137,-0.10613624262027442
1761414044305053000,2.022052978515625,9.25927155379355,1.766128067382425,-0.3342220177382231
1761414044315066000,2.032066162109375,9.791730078765749,1.9230917762465773,-0.3157200732987374
1761414044325079300,2.042079345703125,9.789113758787511,1.7739143373444675,-0.8717315424896777
1761414044335091200,2.05209130859375,9.355528865021467,1.7485551474213599,-0.7983456960223615
1761414044345104100,2.062104248046875,9.04203516253531,2.832461267735064,-0.6527891510311514
1761414044355117000,2.072116943359375,8.704256913620233,2.9324919600218533,-1.0796820728778838
1761414044365129000,2.08212890625,8.351020398810505,2.084776522283256,-1.7280483659654855
1761414044375142100,2.09214208984375,8.389234686392545,1.4165516825154423,-2.535831898549199
1761414044385155300,2.1021552734375,7.24761725860536,0.6049773793466389,-2.6527085116967557
1761414044395167200,2.112167236328125,2.3985014031767844,-0.21687135733813045,-2.427946985630691
1761414044405180200,2.12218017578125,-6.007680326363444,0.13278481476679443,-2.6960423342496154
1761414044415192000,2.132192138671875,-15.215069717228412,1.0876525403004138,-3.1349361480787397
1761414044425205000,2.142205078125,-22.253353905045984,1.651205364781618,-3.2390213764533398
1761414044435218200,2.15221826171875,-25.578336531901357,1.6411963042035698,-2.6840803860381244
1761414044445230000,2.16222998046875,-26.70947991194725,1.2183504657905548,-1.038553432219103
1761414044455243000,2.172242919921875,-27.657378017663955,1.3307098207093775,0.6766784145321697
1761414044465256200,2.182256103515625,-28.639947623789308,1.7145853655412793,1.3090256660372017
1761414044475268000,2.19226806640625,-29.21208933985233,1.497600757087022,1.0091940667439252
1761414044485281000,2.202281005859375,-29.43035215154886,1.3019970825746654,0.007561375164985657
1761414044495294200,2.212294189453125,-28.463167161560058,1.4566815944604574,-1.2178912507809698
1761414044505306000,2.22230615234375,-26.049346608698368,1.4157228304758667,-2.1618787589251993
1761414044515319000,2.232319091796875,-22.80943295958042,0.8144518313664942,-2.492306060555577
1761414044525332200,2.242332275390625,-18.962158981502053,-0.06543444907143711,-2.5400512698099016
1761414044535344000,2.25234423828125,-14.948071808457374,-0.9517692480616271,-2.458976622405648
1761414044545357000,2.262357177734375,-11.294683741188049,-1.8156969849325715,-2.204033893087506
1761414044555370000,2.272369873046875,-8.324804592058062,-2.521108961191773,-1.7383211920462547
1761414044565382000,2.2823818359375,-5.981733984202146,-2.984460632190108,-1.1326681784603745
1761414044575395000,2.29239501953125,-4.097931577423215,-3.1499829105630517,-0.5270881570454686
1761414044585408300,2.302408203125,-2.5422967106491328,-3.0408751778513192,0.016640145181067056
1761414044595420200,2.312420166015625,-1.0830950961917638,-2.7012235362797976,0.2567812881232239
1761414044605433000,2.32243310546875,0.3073509619474411,-2.233102897313982,0.21499800121430307
1761414044615445200,2.3324453125,1.7991490241050718,-1.887906627227366,-0.04487591916201636
1761414044625458000,2.3424580078125,3.3490093991309404,-1.6724053891986608,-0.39628023184221234
1761414044635471000,2.35247119140625,4.868847560858726,-1.430448398181796,-0.46939559080507604
1761414044645483000,2.36248291015625,6.362549995332956,-0.9559517944432795,-0.24336499465126543
1761414044655496200,2.37249609375,7.63289141818881,-0.4700030917115509,0.022737097791209814
1761414044665508900,2.3825087890625,8.4587331700325,0.00035758126601576805,0.17794073818027972
1761414044675521000,2.39252099609375,8.708042861899733,0.5035949801899492,0.2780819051042199
1761414044685534000,2.402533935546875,8.044222394570708,1.0623179733619093,0.38677002416439354
1761414044695547100,2.412547119140625,6.6715715208411215,1.6700420210681854,0.6913850583419203
1761414044705559000,2.42255908203125,5.683228007489443,2.1673120360203084,0.8331704872965813
1761414044715572200,2.432572265625,5.4257689114362,2.4240239669680594,0.6775565125409513
1761414044725584100,2.442584228515625,5.821833345103263,2.455961658498645,0.31595519722886384
1761414044735597000,2.45259716796875,6.775358643051981,2.4515923573732374,-0.13922544227354228
1761414044745610000,2.46260986328125,8.021796043229102,2.4187445652604103,-0.4054728980034589
1761414044755623200,2.472623046875,9.20074629958868,2.42000873997733,-0.5509693103052675
1761414044765635000,2.482635009765625,10.222181935203075,2.4875232101932165,-0.54934682366997
1761414044775648000,2.49264794921875,10.91231757800579,2.562311032412946,-0.4208327450249344
1761414044785660000,2.502659912109375,11.132104822790621,2.672747383379936,-0.30607268563993273
1761414044795673000,2.512673095703125,10.944873109173773,2.7499191781267522,-0.242454053818807
1761414044805686000,2.52268603515625,10.580731169468164,2.737760246038437,-0.34088425210639833
1761414044815698200,2.5326982421875,10.164029021441936,2.61507377756834,-0.56857043344751
1761414044825711000,2.542711181640625,9.687315180045365,2.4758155290037394,-0.8054260827373713
1761414044835724000,2.55272412109375,9.429556224262713,2.47545955517292,-1.137440726624429
1761414044845736000,2.56273583984375,9.46529564616382,2.3514145117007192,-1.3515050637178123
1761414044855749000,2.5727490234375,9.717327456471324,2.1379462408043444,-1.5024023121498524
1761414044865762000,2.582761962890625,10.18817211357355,2.009695270074904,-1.5292048327490686
1761414044875774200,2.592774169921875,10.564613562881945,1.9363848269313573,-1.3885299953848123
1761414044885787100,2.602787109375,10.70964747223854,1.8952568438597022,-1.1438335694666952
1761414044895800000,2.612800048828125,10.545747534370422,1.8531835427619516,-0.8840078904125839
1761414044905812000,2.62281201171875,10.05525417394638,1.854066755337268,-0.6719367729630321
1761414044915825200,2.6328251953125,9.353883435901999,1.7889853574872017,-0.5291272981902584
1761414044925837000,2.642837158203125,8.701813612121343,1.7058077464543282,-0.5306142122797668
1761414044935850200,2.652850341796875,8.116475145354867,1.4733176719628274,-0.5089525982329621
1761414044945863000,2.66286279296875,7.6230632671356195,1.1041517666153609,-0.40896245715226975
1761414044955875000,2.672875,7.159697567611932,0.8322105562232435,-0.3711226654384285
1761414044965888000,2.682887939453125,6.238309283158182,0.6653769029907882,-0.16131565699595957
1761414044975901200,2.692901123046875,4.744643089041114,0.6082346275769174,0.3068541548738256
1761414044985913000,2.7029130859375,2.9011580796033143,0.4454495190829038,0.7539862567488104
1761414044995926000,2.712926025390625,0.8247679851323366,-0.27304113445803524,1.1483184597957878
1761414045005939000,2.72293896484375,-0.5234726699620486,-1.128560523945838,1.0657106845401227
1761414045015951000,2.732951171875,-1.006290088930726,-1.4749439579904078,0.23575696733295917
1761414045025964000,2.742964111328125,-3.7536744878828525,-2.056800281729549,-0.6182705761618912
1761414045035977200,2.752977294921875,-9.68549673244655,-2.347887652748823,-0.8213920058932155
1761414045045989000,2.762989013671875,-16.62057831994295,-1.6421140035703776,-1.0013840505801141
1761414045056002000,2.773001953125,-22.546484618461132,-0.7297356856547296,-1.5757929809227584
1761414045066015000,2.783014892578125,-25.28319740127325,0.31976489171013234,-2.7393364093139767
1761414045076027100,2.793027099609375,-25.10971598058939,0.7581934261150658,-4.036504172036052
1761414045086040000,2.8030400390625,-24.125224466490746,-0.1123408694140613,-4.991738611990213
1761414045096052700,2.813052734375,-23.63150688332319,-1.1566665283590554,-6.182073016673326
1761414045106065700,2.823065673828125,-23.701523253357408,-1.6271971510760486,-7.397718388223647
1761414045116078600,2.83307861328125,-23.509512488770483,-1.7034782805934547,-7.395017312571406
1761414045126090500,2.843090576171875,-22.983777134573458,-1.0719131924420595,-6.833834797418117
1761414045136103700,2.853103759765625,-21.48300783045292,-0.42948330366611476,-6.327912981715798
1761414045146116600,2.86311669921875,-18.945656759512424,-0.1651233421832323,-5.712841055464744
1761414045156128800,2.873128662109375,-15.715446173763274,-0.3554994913056493,-4.989511583590507
1761414045166141700,2.8831416015625,-12.068225981473923,-0.8667202901989222,-4.039630779623985
1761414045176154600,2.893154541015625,-8.644721605589986,-1.3353709443882107,-2.929154340031743
1761414045186166500,2.90316650390625,-5.930778872990608,-1.6037249439433217,-1.6967483878165484
1761414045196179700,2.9131796875,-3.651695876398682,-1.5983786144793033,-0.3688765670120716
1761414045206192600,2.923192626953125,-1.5661340489566324,-1.5591177404537797,0.7549902461595833
1761414045216204500,2.93320458984375,0.42464813859462736,-1.4611281986057758,1.528230727019906
1761414045226217700,2.9432177734375,2.411870587837696,-1.2422642061457037,1.9118004207730293
1761414045236229600,2.953229736328125,4.278701986071467,-1.000374435146153,2.2136410948663947
1761414045246242800,2.963242919921875,5.979869359374046,-0.805660256819427,2.4891440893933177
1761414045256255700,2.973255859375,7.582377036482096,-0.6459817360386252,2.5859140263184903
1761414045266267600,2.983267578125,8.928460221281647,-0.5161249375477432,2.291085422944277
1761414045276280600,2.993280517578125,9.810568634748458,-0.30130408299863337,1.8504707766719162
1761414045286293800,3.003293701171875,10.30410267804265,0.04149813155829906,1.5718614866927265
1761414045296305700,3.0133056640625,10.244452219200134,0.6473612076982855,1.3935248810626566
1761414045306318800,3.02331884765625,9.32840704934001,1.3506088455304504,1.3864327308446167
1761414045316331500,3.03333154296875,7.897803168335557,1.875282123453915,1.473404911854863
1761414045326343400,3.043343505859375,6.840983500128984,2.295266654151678,1.3352967101082205
1761414045336356600,3.053356689453125,6.274875803533196,2.578201259984076,1.1694530177611857
1761414045346369800,3.063369873046875,6.241665607848763,2.7021128863349557,1.061790734617412
1761414045356381700,3.073381591796875,6.562109275603294,2.8058608455792067,1.030645070247352
1761414045366395000,3.083394775390625,6.996742217117547,2.91202083440125,1.0560114936288445
1761414045376407600,3.093407470703125,7.428297066360711,2.986870908202231,1.2207764508284629
1761414045386419500,3.10341943359375,7.972909554985165,2.982733370006084,1.4224099070243537
1761414045396432600,3.1134326171875,8.548416948089002,2.995579992097616,1.612494379723817
1761414045406444500,3.123444580078125,9.034790013712644,2.980182516479492,1.7029881589889526
1761414045416457700,3.133457763671875,9.339969476839899,2.988518967670202,1.7894012448117136
1761414045426470700,3.143470703125,9.456889052346348,2.9931399054691195,1.8790692407771943
1761414045436482600,3.153482666015625,9.312520913422107,2.9294536152392623,1.7803522614374756
1761414045446495500,3.16349560546875,9.091205143895746,2.8411586611926554,1.5160212337881325
1761414045456508700,3.1735087890625,8.979096183541417,2.6921371435046195,1.2030664604842662
1761414045466520600,3.1835205078125,8.852945838353037,2.514098790168762,0.9509251984529197
1761414045476533800,3.19353369140625,8.751170055964588,2.4068822780311105,0.8235384433373808
1761414045486546700,3.203546630859375,8.825791873967647,2.3080782049298283,0.7426759043138473
1761414045496558600,3.21355859375,9.067513887184857,2.2427128755718466,0.6589790186472236
1761414045506571500,3.223571533203125,9.310478009417652,2.20871679020673,0.6317582726359366
1761414045516584700,3.233584716796875,9.213713917711377,2.217887354134023,0.49068701983261853
1761414045526596600,3.2435966796875,8.777103538644313,2.191585622663796,0.4048654701622203
1761414045536609500,3.253609619140625,8.229252214229106,2.028839531005919,0.5320145075317472
1761414045546622700,3.263622802734375,7.8221467465877526,1.6597379230663178,0.604777107534185
1761414045556634600,3.273634521484375,7.754314734855294,1.2408432334318755,0.5827113331332803
1761414045566647600,3.2836474609375,7.934214790409803,0.8302312189742922,0.5774337215239181
1761414045576659700,3.29365966796875,7.762877396017313,0.4061988741904497,0.7441221575994044
1761414045586672600,3.303672607421875,7.0855416135549545,-0.03155950586795807,0.9279488850783556
1761414045596685600,3.313685546875,6.140315941917896,-0.36515783874988555,1.0703575604978948
1761414045606697500,3.323697509765625,4.98404162774682,-0.5461325377985835,1.328899118025601
1761414045616710700,3.333710693359375,3.5526077256590125,-0.7036006890535355,1.5642840371757745
1761414045626723600,3.3437236328125,1.4121476023375987,-0.9799055014826357,1.5348539445519447
1761414045636735700,3.35373583984375,-1.519810104677081,-1.2840436388634144,0.9816190274022519
1761414045646748400,3.36374853515625,-4.741494269621372,-1.6340272893570362,0.32273177869170905
1761414045656761600,3.37376171875,-7.7676441720277065,-1.8147139652445912,0.24382992701558395
1761414045666773500,3.3837734375,-10.3630540487051,-1.7292124413087964,1.1400453561648727
1761414045676786700,3.39378662109375,-12.773885356622934,-1.566396937676519,2.617919814649224
1761414045686799600,3.403799560546875,-15.144869807320832,-1.675628589028865,3.9699066705346104
1761414045696811800,3.413811767578125,-17.525625125926734,-1.8622146982185541,4.510609584499895
1761414045706824400,3.423824462890625,-20.706482190442085,-1.800602291653305,4.150643761435151
1761414045716837600,3.433837646484375,-24.279369903063774,-1.5295624140150845,3.08579247020334
1761414045726849500,3.443849609375,-27.13818697054386,-0.9518522501699626,1.0640418014798312
1761414045736862700,3.45386279296875,-29.121680170130727,-0.3869413621433079,-1.4112544528901576
1761414045746874600,3.46387451171875,-29.51637974518537,-0.09931348392814397,-3.6401439702928062
1761414045756887600,3.473887451171875,-28.034403988862035,0.5485659024253488,-5.722977249553799
1761414045766900500,3.483900390625,-25.576272000586986,1.1061629603073,-7.0313739700376985
1761414045776912600,3.49391259765625,-21.687541392004487,0.4528586262956261,-6.45474721751511
1761414045786925600,3.503925537109375,-17.173416785120963,0.3198576845601201,-5.782916462209821
1761414045796938800,3.513938720703125,-12.919142553341388,-0.054008361302316184,-5.097491481316089
1761414045806950700,3.52395068359375,-9.062702102988958,-0.6482569874942302,-4.651093867728114
1761414045816963600,3.533963623046875,-5.62362723300755,-1.1880620758369564,-4.3486806544438
1761414045826976500,3.5439765625,-2.645451380175352,-1.6213134998649357,-3.594146481488645
1761414045836988700,3.55398876953125,-0.22752163842916487,-1.685090683248639,-2.319196688054502
1761414045847001600,3.564001708984375,1.6263544166415929,-1.6176622838810086,-1.1797848074875772
1761414045857014800,3.574014892578125,3.097563864278793,-1.5793731774970887,-0.7717526534553617
1761414045867026700,3.584026611328125,4.798397475582361,-1.4450506317690015,-0.6902294585660099
1761414045877039600,3.59403955078125,6.8601236694067715,-1.1997305940598249,-0.5129506183605641
1761414045887051500,3.604051513671875,8.855248854598402,-0.7366872583582997,-0.18487477522715925
1761414045897064700,3.614064697265625,10.411002379316091,-0.11789192766994237,0.2378716213993728
1761414045907077600,3.62407763671875,11.431730743443966,0.45606677468717094,0.5916976996000856
1761414045917089800,3.63408984375,11.880042666220664,0.9766785022601485,0.7535083370387554
1761414045927102500,3.6441025390625,11.795109297561645,1.591827585400641,0.6973422131806611
1761414045937115600,3.65411572265625,10.894280401533841,2.237858129017055,0.6739484050463884
1761414045947127600,3.66412744140625,9.602049802953005,2.7689582251176237,0.759731595467776
1761414045957140700,3.674140625,8.480980657675861,3.127842098164558,0.7878560853857547
1761414045967153700,3.684153564453125,7.480060571345686,3.3427947623997927,0.6672489804729819
1761414045977165800,3.694165771484375,6.869789323374628,3.427819316473603,0.358735331421718
1761414045987178500,3.704178466796875,6.713738345441222,3.47519598467648,-0.010757175531610846
1761414045997191700,3.714191650390625,6.945498936614394,3.4411192352905866,-0.21415501105152068
1761414046007203600,3.72420361328125,7.4656170354515305,3.367357248987257,-0.27347762617915866
1761414046017216800,3.734216796875,8.105082229202985,3.283410261017084,-0.2721767727136612
1761414046027228700,3.744228759765625,8.645070565158129,3.2511578044489022,-0.2833100880812853
1761414046037241600,3.75424169921875,8.98425692730546,3.3023338649347425,-0.3422584630690515
1761414046047254500,3.764254638671875,9.066617815127968,3.2581741129517554,-0.29920440730564296
1761414046057266700,3.7742666015625,9.041379328975081,3.163025639748573,-0.20247114912904798
1761414046067279600,3.784279541015625,8.98115896129012,3.042749739551544,-0.26202333522886034
1761414046077292800,3.794292724609375,8.82882846518457,2.8740006080865856,-0.3512047897864133
1761414046087304700,3.8043046875,8.710017961364985,2.746739963568747,-0.36290764867030084
1761414046097317400,3.8143173828125,8.584854289126396,2.712966581043601,-0.28295966720841825
1761414046107330600,3.82433056640625,8.536833477801084,2.7095322226807474,-0.16785254795141516
1761414046117342500,3.834342529296875,8.521464643755555,2.735727278906107,0.0399699721429497
1761414046127355600,3.844355712890625,8.494194944036007,2.770930109712481,0.2749589142454788
1761414046137368300,3.854368408203125,8.598544960826635,2.744908364227414,0.2066864652691409
1761414046147380500,3.86438037109375,8.767800872769952,2.553093706734478,-0.06870762552320957
1761414046157393400,3.874393310546875,8.752261942854522,2.3197177893191574,-0.2752728755654767
1761414046167405300,3.8844052734375,8.323553715214132,2.1308131740540266,-0.3020634865311906
1761414046177418500,3.89441845703125,7.333284202235936,1.8813661195427178,-0.002505936672631651
1761414046187431700,3.904431640625,5.87478752117753,1.5743404440268873,0.5060155584003776
1761414046197443600,3.914443603515625,3.9381916818439957,1.2467764228731393,0.9775906486690044
1761414046207456500,3.92445654296875,1.7294260840594768,0.7866948595866561,1.004850776842609
1761414046217469400,3.934469482421875,-0.5485515816390514,0.12787614606767891,0.6350763111427425
1761414046227481300,3.9444814453125,-2.42396668382287,-0.5745455623343586,0.059398657772224396
1761414046237494500,3.95449462890625,-3.6410821279257535,-1.1986334464728832,-0.3585976399840787
1761414046247507500,3.964507568359375,-4.612666814178228,-1.4409572249755263,-0.9170904411293566
1761414046257519400,3.974519287109375,-5.418358342918753,-1.5459712586328387,-1.4649804901197552
1761414046267532500,3.984532470703125,-5.792868531903625,-1.7232614239498971,-1.8741680247321724
1761414046277545500,3.99454541015625,-5.626764946511387,-1.5105495243787765,-2.2762308220312
1761414046287557400,4.004557373046875,-5.3572606078773735,-0.9042281830772757,-2.519470254074037
1761414046297570600,4.014570556640625,-5.460280252847075,-0.6695385527148843,-2.0579007903173565
1761414046307582500,4.02458251953125,-5.6803603430986405,-1.0238383128419517,-1.2636461630009115
1761414046317595400,4.034595458984375,-5.442242491853237,-1.7811510105997324,-0.41536132787652313
1761414046327608600,4.044608642578125,-5.274482955947518,-2.7284260159820315,0.15415332761853934
1761414046337620500,4.054620361328125,-6.142298640167713,-3.680839261035621,0.017393444341467692
1761414046347633400,4.06463330078125,-8.424610535678267,-4.262635525150597,-0.4614746250800788
1761414046357646600,4.074646484375,-12.044053663247823,-4.517531784978509,-1.1412691258061676
1761414046367658500,4.084658447265625,-15.718322021460532,-4.386665809445083,-1.7408908964037895
1761414046377671400,4.09467138671875,-18.49461044333577,-3.7949227363333105,-2.7216657280668617
1761414046387684600,4.1046845703125,-20.042699132514,-2.9342843963965772,-4.169206130824983
1761414046397696500,4.114696533203125,-20.591712486445903,-2.197821886704862,-5.210701680910587
1761414046407709400,4.12470947265625,-20.46765589866638,-2.1238979878380895,-4.904314011037349
1761414046417722400,4.134722412109375,-18.90319241327047,-2.414367373089492,-3.212530552151799
1761414046427734300,4.144734375,-16.120211215758324,-2.8303414991021154,-1.219004180458933
1761414046437747500,4.15474755859375,-13.200216918259859,-3.430469830982387,0.13567078199926763
1761414046447760600,4.1647607421875,-10.868819797062873,-3.8083319607436654,0.6009864465469494
1761414046457772500,4.1747724609375,-9.050022069635986,-3.755284845688939,0.524420033814758
1761414046467785500,4.184785400390625,-7.073014140415191,-3.5153713431984186,0.4897079822000116
1761414046477797600,4.194797607421875,-4.4733477753371,-2.9941113808497786,1.0030994761958718
1761414046487810300,4.204810302734375,-1.7113234411358833,-2.331647004304826,1.6359133953645824
1761414046497823500,4.214823486328125,0.5635825620323419,-1.7393172173462808,1.8070426999643443
1761414046507835400,4.22483544921875,2.2630834634274244,-1.4376540917769074,1.4757644805930554
1761414046517848600,4.2348486328125,3.411949547168612,-1.114169741152227,0.5792825277283787
1761414046527861500,4.244861572265625,4.080990379494429,-0.6557873829990625,-0.2198615521300584
1761414046537873400,4.254873291015625,5.014543148994446,-0.006876900032162666,-0.40011451277546584
1761414046547886300,4.26488623046875,6.12956541532278,0.5403327654786407,-0.025887013189494608
1761414046557899500,4.2748994140625,6.719239280945062,0.9075243020132183,0.5300691456176341
1761414046567911400,4.284911376953125,6.659766516757011,1.201823913077265,0.9516124500647186
1761414046577924600,4.294924560546875,6.545020193636417,1.3236268767111004,1.0978712981063872
1761414046587937500,4.3049375,6.975618765068054,1.2432868271917104,0.9618642333574593
1761414046597949400,4.314949462890625,7.910583739453553,1.112180467031151,0.6483073294419794
1761414046607962400,4.32496240234375,9.05822174270451,1.1120132937707006,0.3935693289157003
1761414046617974500,4.334974609375,10.120718287503719,1.1452651366397737,0.16651567332446573
1761414046627987500,4.344987548828125,11.138847867310046,1.23764166091159,-0.1817109774339944
1761414046638000400,4.35500048828125,12.185682148075102,1.1487012485682964,-0.4958952194675803
1761414046648012300,4.36501220703125,12.990610875749587,1.0295014531701803,-0.5543888364251702
1761414046658025500,4.375025390625,13.11804132387638,1.0240509326793252,-0.4083032991237938
1761414046668038400,4.385038330078125,12.268698284935951,1.1642736423619091,-0.18250066650696098
1761414046678050600,4.395050537109375,11.022440332978963,1.3183759704455733,0.04307670598663389
1761414046688063500,4.4050634765625,10.205967297983168,1.5673345107875762,0.2509946858121082
1761414046698076400,4.415076416015625,9.807073193848133,1.757784748059511,0.40796402069944887
1761414046708088300,4.42508837890625,9.830367560195922,1.786668312716484,0.3576067292505875
1761414046718101500,4.4351015625,10.028087934601306,1.6760370236992834,0.15792564923148603
1761414046728113400,4.445113525390625,10.103437482357025,1.6029763175331055,-0.08335837442725896
1761414046738126600,4.455126708984375,10.164092149806022,1.5134163119867443,-0.3287965586233884
1761414046748139300,4.46513916015625,10.18533718240857,1.4648422506928442,-0.5423297479821368
1761414046758151400,4.4751513671875,9.978512295049429,1.4955682283461094,-0.7065479945518076
1761414046768164400,4.485164306640625,9.401216849485039,1.6681313651412724,-0.7270742113605141
1761414046778177500,4.495177490234375,8.641610780093073,1.9593470387153327,-0.6478745640479028
1761414046788189400,4.505189453125,7.944242847949266,2.3032873173914847,-0.5655685116851702
1761414046798202600,4.51520263671875,7.346655724984407,2.7387925116956233,-0.6488759231101721
1761414046808215300,4.52521533203125,6.990100879406929,3.0097715990573164,-0.4102622511718422
1761414046818227500,4.5352275390625,6.983945863908529,2.770906144315004,0.2578873314026743
1761414046828240400,4.545240478515625,7.275422380375861,2.2194388213597236,1.2201307002708315
1761414046838253600,4.555253662109375,7.643511011880636,1.7153246396012602,2.0447186526611447
1761414046848265500,4.565265380859375,7.725589575630426,1.4493584119655192,2.257041845175624
1761414046858278400,4.5752783203125,6.917908334377407,0.9933326999410986,2.2671745321333407
1761414046868290300,4.585290283203125,5.174568291255832,0.426248121137172,1.976824389347434
1761414046878303500,4.595303466796875,2.717253464582562,-0.39808308001309634,1.2212117735058068
1761414046888316400,4.60531640625,-0.6140975282609462,-1.90999439426437,0.03658288698792457
1761414046898328600,4.61532861328125,-4.930139357167482,-3.3527389410480857,-1.307605131714791
1761414046908341500,4.625341552734375,-9.463340420442819,-3.1229812141299247,-2.5471385977223515
1761414046918354400,4.6353544921875,-13.921426913762092,-1.8355363885208964,-2.9426264005452394
1761414046928366300,4.645366455078125,-17.769203580665586,-0.21063955027647316,-2.2526693291798234
1761414046938379500,4.655379638671875,-21.427309908628462,3.008411416620016,-2.6610525616720317
1761414046948392400,4.665392333984375,-24.46503743610382,4.4429266258493065,-1.9480276261910796
1761414046958404600,4.675404541015625,-26.14942143238783,4.470289556810259,-0.5721181890569627
1761414046968417300,4.685417236328125,-26.11904032264948,3.866289644193649,0.19366189279481769
1761414046978430500,4.695430419921875,-23.978280339598655,2.613684369036555,0.784842071326822
1761414046988442400,4.7054423828125,-20.421726506662367,1.3152365033760667,0.44993221745491024
1761414046998455600,4.71545556640625,-16.799809097933768,0.5234983889251947,-0.7640373298376798
1761414047008467500,4.725467529296875,-14.298749822080135,0.3630480069890618,-1.3464517258509994
1761414047018480600,4.735480712890625,-12.820953397268056,0.8366079143993556,-1.4464387251265347
1761414047028493300,4.745493408203125,-11.66652500322461,1.3227234981305895,-1.929574270133674
1761414047038505500,4.75550537109375,-10.520473976904153,2.06638468715474,-2.640879834476113
1761414047048518400,4.765518310546875,-9.33288273344934,2.4763094500005245,-2.941625114548206
1761414047058531600,4.775531494140625,-8.090069953510165,2.155269277657568,-2.475825465875864
1761414047068543500,4.78554345703125,-6.242533038333058,1.7049258490532635,-1.0647481961835175
1761414047078556400,4.795556396484375,-3.6182279065608975,0.9228196324311196,0.6575932633772492
1761414047088569300,4.8055693359375,-0.912478417289257,-0.1027498881176114,1.975854375271499
1761414047098581500,4.81558154296875,1.2384458169013262,-1.2267156316190957,2.6118650446549054
1761414047108594400,4.825594482421875,2.4525994885891675,-1.9673424213834105,2.6785098924294113
1761414047118607600,4.835607666015625,2.732697701951861,-2.460498717406392,2.3022087283745405
1761414047128619500,4.84561962890625,2.630100666308403,-2.768295377294719,1.8236106806665657
1761414047138632400,4.855632568359375,2.7077988230168817,-2.85432647806257,1.117559602786228
1761414047148644400,4.865644287109375,3.21152225189209,-2.6250585804879663,0.3586572977494448
1761414047158657500,4.875657470703125,4.046311280301213,-2.1904713778115807,-0.2977444908209145
1761414047168670500,4.88567041015625,4.8489334845989935,-1.7003500655703245,-0.6207073017895222
1761414047178682600,4.8956826171875,5.429595191726088,-1.1438714903242886,-0.6687910953484475
1761414047188695600,4.905695556640625,5.755802245312929,-0.6621235272180289,-0.6958615461688489
1761414047198708500,4.91570849609375,5.915889931416511,-0.19521306775957345,-0.6952058587390929
1761414047208720400,4.925720458984375,6.090695294180512,0.18890498059131203,-0.6256311680577695
1761414047218733600,4.935733642578125,6.2504842895984645,0.31782880908101796,-0.28401630012188106
1761414047228746500,4.94574658203125,6.446314904734492,0.8170672014966607,-0.28121841303166
1761414047238758700,4.955758544921875,6.294883987817168,0.8149230290748178,0.2731272418389097
1761414047248771300,4.965771240234375,6.084829617017507,0.3418887529738247,0.7706390661902726
1761414047258783500,4.975783447265625,6.338430284076929,0.5109733269382268,0.7541442968547344
1761414047268796400,4.98579638671875,6.593869272479415,0.666435983589664,1.2716884535506368
1761414047278809600,4.9958095703125,6.937118061760067,0.6516453147582709,1.6763852526150642
1761414047288821500,5.005821533203125,7.43184394518733,0.5098625892173498,1.8845956029832363
1761414047298834700,5.015834716796875,7.855432930117845,0.36853988240361213,1.8643737759485839
1761414047308847400,5.025847412109375,8.0202318626523,0.2708154212325811,1.827130525355786
1761414047318859500,5.035859619140625,8.084571356093884,0.18274360841736195,1.9806182286724447
1761414047328872400,5.04587255859375,8.151897756391763,0.13865736006200313,2.3518048261925575
1761414047338885600,5.0558857421875,8.16527453983724,0.23395123308524488,2.460028469546139
1761414047348897500,5.0658974609375,7.943740159124135,0.4324748136322945,2.155596025393903
1761414047358910500,5.075910400390625,7.446368729624152,0.5364127424906939,1.8062495037600397
1761414047368923400,5.08592333984375,6.853955209904909,0.36801110928915437,1.584852485691011
1761414047378935600,5.095935546875,6.403861664408445,0.15848478095158933,1.506069164094329
1761414047388948500,5.105948486328125,6.2599827703058715,0.1782591564796865,1.2214236626908181
1761414047398960600,5.115960693359375,5.922397998136281,0.31256372815966604,0.9676742348104714
1761414047408973600,5.1259736328125,5.38596881596744,0.38610593423247336,0.9078731885161251
1761414047418986500,5.135986572265625,5.3348202280104156,0.4793367372460663,0.9816928232908249
1761414047428998400,5.145998291015625,5.121131300100684,0.530983045592159,1.0784388678837566
1761414047439011600,5.156011474609375,4.340874072346091,0.550632625696808,1.1538329854335636
1761414047449024500,5.1660244140625,3.3496021043270825,0.5132952670797706,1.1661417743213474
1761414047459036700,5.17603662109375,2.586015440866351,0.43007147881761193,0.8632732915502042
1761414047469049300,5.18604931640625,1.7088205184042453,0.4875301267042756,0.38867256985008714
1761414047479062500,5.1960625,0.7515735695838928,0.5164858798146248,0.09646700845584273
1761414047489074400,5.206074462890625,-0.3158148389101028,0.3179514125473797,0.09942556600049138
1761414047499087600,5.216087646484375,-1.4665005392938852,-0.027007687782496213,0.3121354197449982
1761414047509100500,5.2261005859375,-2.0313900922715664,-0.858049054095894,1.2508584314897655
1761414047519112700,5.23611279296875,-1.753439412331581,-2.0558824362322685,2.5979537159413097
1761414047529125400,5.24612548828125,-0.31393209390342236,-2.5596523345977067,2.967045679269731
1761414047539137500,5.256137451171875,0.8316372863799333,-2.3070859790220855,1.3590043334320188
1761414047549150500,5.266150390625,-1.1073720438361168,-2.6502725167214867,-0.9040621788606047
1761414047559163600,5.27616357421875,-5.234692212828993,-3.205395877966285,-1.844296910342574
1761414047569175600,5.286175537109375,-9.291877938365936,-3.172594555343687,-2.0389055824682116
1761414047579188500,5.2961884765625,-11.815285824149846,-2.4635449532344937,-2.8167303223788736
1761414047589201400,5.306201416015625,-12.622612260615824,-1.5348770331665873,-3.258922885492444
1761414047599213600,5.316213623046875,-12.806706260728836,-1.5122668496906757,-2.4198069337949155
1761414047609226500,5.3262265625,-12.87174718043804,-2.1562806466571987,-1.33801093750298
1761414047619239700,5.33623974609375,-12.441804442566632,-2.351633122887462,-0.9285185016598552
1761414047629251600,5.34625146484375,-11.813335859125852,-1.927366238695383,-1.03437899607867
1761414047639264500,5.356264404296875,-11.651740106546878,-1.55125139099285,-0.717345940485224
1761414047649277400,5.36627734375,-12.12412147169709,-1.511191621674597,0.010205085473647341
1761414047659289600,5.37628955078125,-12.597337534105778,-1.2842187031693755,0.3714100675450638
1761414047669302500,5.386302490234375,-12.399279306048154,-0.5946406942494213,0.33383232430089266
1761414047679314700,5.396314697265625,-11.19348897355795,-0.08488923725634813,0.2512871476863511
1761414047689327400,5.406327392578125,-9.314507118803261,-0.009308949484676123,0.5265752390872687
1761414047699340500,5.416340576171875,-7.660182160696387,-0.6896634952463209,0.5600231525177136
1761414047709352400,5.4263525390625,-6.561423046904802,-1.1193050582140684,-0.10219421786307356
1761414047719365600,5.43636572265625,-5.657258868974447,-1.0182356705293059,-0.7445483471222222
1761414047729378600,5.446378662109375,-4.9247646783918135,-1.0057222259148955,-0.7755139056850224
1761414047739390700,5.456390625,-4.486722805216909,-0.9567425064295529,-0.2160413727873936
1761414047749403400,5.4664033203125,-4.196874182212352,-0.7568079631060362,0.3055867470202036
1761414047759416600,5.47641650390625,-3.9207618236154316,-0.5400748451948165,0.7396769416935741
1761414047769428500,5.486428466796875,-3.40975291390717,-0.4446567612700164,0.9328255512040108
1761414047779441700,5.496441650390625,-2.3528590114206076,-0.24712474904358386,0.7906006348535418
1761414047789453600,5.50645361328125,-0.8001549374014139,-0.05379866407439112,0.42223899509366597
1761414047799466500,5.516466552734375,0.9319073403805493,-0.054187078870087856,-0.027763218857534227
1761414047809479400,5.5264794921875,2.5985434985280036,-0.09355755074992775,-0.5205293099865317
1761414047819491600,5.53649169921875,4.169419189053774,-0.03273322582244873,-1.020303416714072
1761414047829504500,5.54650439453125,5.486809363332391,0.0940250221312046,-1.3235055884189904
1761414047839517700,5.556517578125,6.393402814236283,0.3342385304816067,-1.380469292395562
1761414047849529600,5.566529541015625,6.793589880791306,0.686144088948518,-1.1998292321287094
1761414047859542500,5.57654248046875,6.825607651820778,1.072152115764469,-0.8727709685400128
1761414047869555500,5.586555419921875,6.630853141483664,1.44562682422176,-0.5298971135189756
1761414047879567600,5.596567626953125,6.4379264310956,1.7177623881421982,-0.31523287430368363
1761414047889580500,5.60658056640625,6.332155441591143,1.9786483899042009,-0.19134943286767228
1761414047899592400,5.616592529296875,6.226410755571723,2.08681635754779,-0.10037970665385947
1761414047909605400,5.62660546875,6.262851603740454,2.032500537731498,-0.21356946624852716
1761414047919618600,5.63661865234375,6.5124278375893825,2.0902296731226144,-0.41629652636740355
1761414047929630500,5.64663037109375,6.760400727894901,1.9908197430826722,-0.5108521847765892
1761414047939643600,5.6566435546875,6.865502439835667,1.7487534464724361,-0.43531865875609216
1761414047949656600,5.666656494140625,6.889440949305891,1.5345591993890701,-0.33412590041998774
1761414047959668700,5.676668701171875,6.946953227075934,1.4048013312280176,-0.34240010002944615
1761414047969681400,5.686681396484375,7.14940764426589,1.3927606186918913,-0.5160741572085767
1761414047979694600,5.696694580078125,7.45513772701323,1.3587613184563814,-0.6680719872936606
1761414047989706500,5.70670654296875,7.715104421973228,1.3113169918447731,-0.77002824081555
1761414047999719700,5.7167197265625,7.870897041231394,1.286155516450852,-0.8683489143140614
1761414048009731600,5.726731689453125,7.8972075405299655,1.3367811034470796,-0.8985830167971551
1761414048019744500,5.73674462890625,7.787327362141013,1.4528499073430894,-0.9322074923709034
1761414048029757400,5.74675732421875,7.667593898257612,1.6156008213065565,-0.8535666479848325
1761414048039769300,5.756769287109375,7.522618441089987,1.7149183968879282,-0.6592443915851414
1761414048049782500,5.766782470703125,7.317170687302947,1.7197972549706697,-0.3936826165644452
1761414048059795700,5.776795654296875,7.099153959321975,1.6440052241444587,-0.09611450522374361
1761414048069807600,5.7868076171875,7.0428259229004375,1.4727639836028217,0.16407080092299728
1761414048079820500,5.796820556640625,7.000469713208079,1.230245851571858,0.31148192427232857
1761414048089833500,5.80683349609375,6.978806162932515,0.9799480254501104,0.3653597545301541
1761414048099845400,5.816845458984375,6.982746424990892,0.8902826598331331,0.2585472383498214
1761414048109858300,5.8268583984375,6.4961266911298035,0.9113079122051596,0.0719864097318612
1761414048119871500,5.83687158203125,5.344301757583022,0.7776631196081638,0.13230568948034196
1761414048129883400,5.84688330078125,3.8699633642703293,-0.05678571706116199,0.9946399100821465
1761414048139896300,5.856896240234375,2.013937437689304,-1.708477988576889,2.8797040804252028
1761414048149908200,5.866908203125,0.62723874938488,-2.8410432181194425,4.010820864725113
1761414048159921400,5.87692138671875,0.9126964439541101,-1.966608115759492,2.0321596153393386
1761414048169934300,5.886934326171875,1.353393800073862,-0.5029860545113682,-1.2485147909730672
1761414048179946500,5.896946533203125,0.27576807520389557,-0.4520367885187268,-2.820707993838191
1761414048189959200,5.906959228515625,-3.4049235940545794,-1.90674489094913,-1.7132918185994028
1761414048199972400,5.916972412109375,-8.324469076493381,-3.7505019953265784,0.5162863751871511
1761414048209984300,5.926984375,-12.024882514309882,-4.298388975577057,1.2516656562194228
1761414048219997400,5.93699755859375,-13.306671213853358,-3.5843136542603373,0.4020729533668607
1761414048230010400,5.94701025390625,-12.378022583007812,-2.874895511099696,-0.48447574410233646
1761414048240022500,5.9570224609375,-11.108238794034719,-2.8166429363563656,-0.5918445607248694
1761414048250035200,5.96703515625,-10.704585512673853,-2.69177210958451,-0.4324932260718196
1761414048260047400,5.97704736328125,-11.402712738752365,-1.9743511311016975,-0.5405128347532824
1761414048270060300,5.987060302734375,-13.19269879771471,-0.7412899298481643,-0.708520828994736
1761414048280073500,5.997073486328125,-15.323476315933465,0.5698287629455328,-0.5723975905202329
1761414048290085400,6.00708544921875,-16.919603352093695,1.326500532451272,-0.3226126823566854
1761414048300098300,6.017098388671875,-17.298583964490888,1.364008279199153,-0.21783611071705816
1761414048310111200,6.027111328125,-17.058026318877936,0.9654192954905331,-0.1239328152693808
1761414048320123400,6.037123291015625,-16.102387974298,0.6863778977043926,-0.28237397627495225
1761414048330136300,6.04713623046875,-14.266860645866393,0.31860636932477354,-0.9001406215026975
1761414048340149500,6.0571494140625,-11.999418402707576,-0.16631678975149988,-1.7642844853423534
1761414048350161400,6.067161376953125,-9.737442608261107,-0.5469508684441446,-2.3391553341083227
1761414048360174300,6.07717431640625,-7.429619254875183,-0.6439826711758971,-2.348763412670046
1761414048370187300,6.087187255859375,-5.260397147449851,-0.6787244603417814,-1.7405641486674546
1761414048380199400,6.097199462890625,-3.2658675900638103,-0.6853047155149281,-0.8979076017536223
1761414048390212400,6.10721240234375,-1.4330366611093281,-0.6898129867196082,-0.1084152204029262
1761414048400224500,6.117224609375,0.25942075151503086,-0.6504948295488954,0.4581052217122167
1761414048410237400,6.127237548828125,1.7881804708451032,-0.47291094198226924,0.7469632993094623
1761414048420250400,6.13725048828125,3.1617817771673202,-0.2809288189679384,0.7796348580725491
1761414048430262300,6.14726220703125,4.39546490971148,-0.054593906105309724,0.7425089502491057
1761414048440275500,6.157275390625,5.437635874840617,0.150563778693974,0.726783046394214
1761414048450288400,6.167288330078125,6.205159293228387,0.29890783551186323,0.6902448022656142
1761414048460300500,6.177300537109375,6.630137686690688,0.3950964654177427,0.6839192525058985
1761414048470313200,6.187313232421875,6.753601569274068,0.45044133602082725,0.7579234500672668
1761414048480326400,6.197326416015625,6.72798957363367,0.48495223904028534,0.8252163134217262
1761414048490338300,6.20733837890625,6.734265000641345,0.5472257398627698,0.7551786083385348
1761414048500351500,6.2173515625,6.893379457798599,0.6159766200058162,0.6080822865594178
1761414048510363400,6.22736328125,7.122931725272536,0.6108277128100394,0.4121206654548645
1761414048520376300,6.237376220703125,7.36724024785161,0.5833924472652375,0.25045175630813465
1761414048530389200,6.24738916015625,7.391096924257278,0.5118496713813394,0.1797659808460623
1761414048540401400,6.2574013671875,7.204291911619901,0.3968034885313362,0.2262276896284893
1761414048550414300,6.267414306640625,6.857214503961801,0.28927323426939544,0.29598895239047707
1761414048560427500,6.277427490234375,6.5793234452545635,0.21096001440249382,0.2818386820881627
1761414048570439400,6.287439453125,6.35718992960453,0.13245222181156277,0.18796583657767624
1761414048580452400,6.297452392578125,6.165559104245901,0.04726604743525385,0.07486965528428555
1761414048590465300,6.30746533203125,6.008449557170271,0.018568287673965095,-0.1333219173181802
1761414048600477400,6.3174775390625,6.08230740506351,0.002603387431427836,-0.40872415488436814
1761414048610490400,6.327490478515625,6.240239958959817,0.0805637022074312,-0.6203183024719358
1761414048620502300,6.337502197265625,6.4480345681339495,0.12786759743504225,-0.8072945800229907
1761414048630515500,6.347515380859375,6.750089177238941,0.192706857092306,-0.9914407487146556
1761414048640528400,6.3575283203125,7.052901911234855,0.25598668541312214,-1.024636915873736
1761414048650540300,6.367540283203125,7.188848258772492,0.3250214970640838,-0.9607239772811531
1761414048660553500,6.377553466796875,7.108650686463713,0.380013097250089,-0.8775058881074189
1761414048670566400,6.38756640625,6.894767112764716,0.49152043844945725,-0.909603592505306
1761414048680578600,6.39757861328125,6.642686787140369,0.7277903968058526,-1.0646176286064089
1761414048690591200,6.40759130859375,6.4138417911529535,0.8641352421417832,-1.0950777949303387
1761414048700604400,6.4176044921875,6.367500311216712,0.5769060078553855,-0.7442559400469064
1761414048710616300,6.4276162109375,6.545664336758851,0.1478061505489051,-0.3431562886916101
1761414048720629500,6.43762939453125,6.93435385774374,-0.12589417847022413,-0.2412875673227012
1761414048730641400,6.447641357421875,7.3149810683041805,-0.34520343047976493,-0.3492341473005712
1761414048740654600,6.457654541015625,7.141273437649011,-0.4671817506805062,-0.6619738165490329
1761414048750667300,6.467667236328125,6.512186430048942,-0.38114509695470333,-1.0814297933280468
1761414048760679200,6.47767919921875,5.47798834349513,-0.12554244242310522,-1.3258023210540413
1761414048770692400,6.4876923828125,3.91155209672153,0.03221665460243821,-1.0107428305558859
1761414048780705500,6.49770556640625,1.6590782901138066,-0.4319337655581534,0.4588558939490467
1761414048790717400,6.507717529296875,-0.5338537787228822,-1.5526184415623545,2.5789070701658723
1761414048800730400,6.51773046875,-1.345861066481471,-1.8845188844852148,3.2138439728379247
1761414048810743300,6.527743408203125,-1.28635030837059,-1.08825423252061,1.4662246449619531
1761414048820755200,6.537755126953125,-1.4827011479884384,-1.2401029364585876,-0.188233657201007
1761414048830768400,6.547768310546875,-2.063392665731907,-2.4301591087222096,-0.6590226385932415
1761414048840780300,6.5577802734375,-3.5145956826508042,-3.4963615223020312,-0.7224580958671868
1761414048850793500,6.56779345703125,-5.665751972031593,-4.0490608712702985,-0.9102981506407261
1761414048860806400,6.577806396484375,-7.869655516737699,-4.193582739451528,-0.8517253309670835
1761414048870818300,6.587818359375,-9.474207266893982,-4.35975003772974,-0.15589249943606553
1761414048880831200,6.597831298828125,-10.253147566831112,-4.648607896131277,0.9913754283934831
1761414048890844400,6.607844482421875,-10.697314060366153,-4.380488582114875,1.7005160697869957
1761414048900856300,6.617856201171875,-11.511798551893234,-3.5491333275467154,1.4202899922609329
1761414048910869200,6.627869140625,-12.403291464298963,-2.131576559641957,0.21953904217742382
1761414048920882400,6.63788232421875,-13.460267199850081,-0.26973390960618854,-1.1255452677778899
1761414048930894300,6.647894287109375,-14.972336481142044,1.3465627850100397,-1.6134788607165216
1761414048940907300,6.6579072265625,-16.55975764827728,2.2512714450806377,-1.081669374237582
1761414048950919400,6.66791943359375,-17.36423512505293,2.4022699619300663,-0.024248817528411744
1761414048960932400,6.677932373046875,-16.75592787063122,2.1698948921203614,0.6607130758982152
1761414048970945300,6.6879453125,-14.717223071432112,1.7328379383295773,0.6693783206518739
1761414048980957200,6.697957275390625,-11.990175942587852,0.8614394271865486,0.5309947360299527
1761414048990970400,6.707970458984375,-9.013977527308464,0.04276917440742254,0.2643842191413045
1761414049000983300,6.7179833984375,-6.108487555980682,-0.4987010706685483,0.042348610907793044
1761414049010995500,6.727995361328125,-3.5748330014705654,-1.0484966610193251,0.1808683891300112
1761414049021008100,6.738008056640625,-1.397583070412278,-1.5686542150840161,0.5032541673956439
1761414049031021300,6.748021240234375,0.4828834699422121,-1.9223846508905291,0.8916386044867336
1761414049041033200,6.758033203125,2.052971809482574,-2.15169463404119,1.3179295418523251
1761414049051046400,6.76804638671875,3.2872453091353178,-2.133527401448786,1.5690147189594805
1761414049061058300,6.778058349609375,4.203081804680824,-1.8518856119059026,1.4787838284142314
1761414049071071500,6.788071533203125,4.799433832892775,-1.42476669928357,1.0135320959482341
1761414049081084200,6.798084228515625,5.1638972596377135,-0.9991101142987608,0.3160637721698731
1761414049091096300,6.808096435546875,5.181531116005778,-0.5419777562066912,-0.43423521090093997
1761414049101109800,6.81810986328125,4.848095864731073,-0.03645473056361079,-1.0608489967878907
1761414049111122700,6.828122802734375,4.432070008531213,0.4886078389383852,-1.3473955825723707
1761414049121134800,6.838134765625,3.968473422861099,0.8020213157951831,-1.4174300727851687
1761414049131147500,6.8481474609375,3.822037245491147,0.9408492831837385,-1.3935766112498937
1761414049141160700,6.85816064453125,3.7915333861559626,1.0169382511299103,-1.0858481212269515
1761414049151172600,6.868172607421875,4.0156817487597465,1.014759591916576,-0.6015896000718698
1761414049161185800,6.878185791015625,4.527604266181588,1.03132501533553,-0.10602774074450134
1761414049171197700,6.88819775390625,5.177638784742355,1.0586263523023576,0.31336035843007265
1761414049181211000,6.8982109375,5.814796286073327,1.1225967932358383,0.5662142987754195
1761414049191223600,6.9082236328125,6.438239150306582,1.077242643836513,0.7270064068213105
1761414049201235700,6.918235595703125,7.067105208632349,0.9148471191819757,0.7040484328210354
1761414049211248600,6.92824853515625,7.538031114277243,0.7249279931120574,0.7332249890752136
1761414049221261800,6.93826171875,7.734816838181018,0.5700567264825105,0.8825453435793519
1761414049231273700,6.948273681640625,7.776568652239441,0.40659357259646056,1.1433687284339218
1761414049241286700,6.95828662109375,7.751633532947301,0.180541860589385,1.4439024846471846
1761414049251299600,6.968299560546875,7.739648496121168,-0.06259674142748117,1.647158135217428
1761414049261311700,6.978311767578125,7.746336595582962,-0.2784653514638543,1.7680239641316233
1761414049271324700,6.98832470703125,7.719954200091958,-0.40903672796487806,1.745548659081757
1761414049281336800,6.9983369140625,7.551586176899075,-0.368584890589118,1.574066887782514
1761414049291349800,7.008349853515625,7.244241644692421,-0.09912760596722364,1.3292559686392544
1761414049301362700,7.01836279296875,6.766587307575344,0.18932225615531206,0.9665420889753847
1761414049311374600,7.02837451171875,6.214691676205396,0.3609323300093412,0.5964994738586247
1761414049321387800,7.0383876953125,5.646291484758257,0.5564277218416332,0.4793110182829201
1761414049331400700,7.048400634765625,5.162666256538033,0.7419875567235052,0.5313941106110811
1761414049341412900,7.058412841796875,4.707022675698996,0.760967128612101,0.7613197414420545
1761414049351425500,7.068425537109375,4.430027104526758,0.6392153106436133,1.1156325071811675
1761414049361438700,7.078438720703125,4.52536204021275,0.5001201436862349,1.3678352901414037
1761414049371450600,7.08845068359375,4.707366374570131,0.48766763547882436,1.4197468252949417
1761414049381463800,7.0984638671875,4.820590018168091,0.557389698741585,1.260298460008204
1761414049391475700,7.108475830078125,4.577167630773783,0.5085517258144915,1.10676669835411
1761414049401489000,7.118489013671875,3.7412943142592905,0.45024289083927865,0.9865426014095544
1761414049411501600,7.12850146484375,2.5076819088637827,0.34004721676036714,1.0543353040449321
1761414049421513700,7.138513671875,1.1830547690689563,-0.23358634529560804,1.7748501568898558
1761414049431526700,7.148526611328125,-0.04011865989863872,-0.8780848570391535,2.7150489402756093
1761414049441539800,7.158539794921875,-0.6181318983435631,-0.501571949929744,2.1357659741558135
1761414049451551700,7.1685517578125,-0.8642857565283775,0.6223299345552921,0.42704807587582616
1761414049461564700,7.178564697265625,-2.039614899781346,0.891130654964596,-0.6662513477377593
1761414049471577600,7.18857763671875,-4.096471441742778,-0.129001496835798,-0.6065276044633239
1761414049481589800,7.19858984375,-6.662997169241309,-1.1160719215117394,-0.4626590856242925
1761414049491602700,7.208602783203125,-8.643105987086892,-0.9318443581469357,-1.2642311232820151
1761414049501614800,7.21861474609375,-9.992358449572324,-0.22715280511677263,-2.5961598182618615
1761414049511627800,7.228627685546875,-11.373531067931651,0.13127747894376515,-3.7182185590982435
1761414049521640700,7.238640625,-12.857779445362091,0.22147943565547465,-4.399447257345915
1761414049531652600,7.248652587890625,-14.455551326119899,0.4093726819209754,-4.683783254408836
1761414049541665800,7.258665771484375,-16.151239975750446,0.9303954745128751,-4.7346015874981875
1761414049551678700,7.2686787109375,-17.494567139840125,1.4584585410051047,-4.369394064387679
1761414049561691000,7.27869091796875,-17.69486174864769,1.7007190450131893,-3.3633979899674653
1761414049571703600,7.28870361328125,-16.663246079802512,1.4155796226128936,-1.8154355575174093
1761414049581716700,7.298716796875,-14.77828690420389,0.6384188265036791,-0.3521817450597882
1761414049591728600,7.308728759765625,-12.474155391073227,-0.1690077824011445,0.44343942136950787
1761414049601741800,7.318741943359375,-10.210194560289382,-0.718010980265215,0.6165967977307737
1761414049611753700,7.328753662109375,-8.11391435495615,-1.1138306453909725,0.33153354583922773
1761414049621767000,7.338766845703125,-6.429852430233359,-1.3911428082317112,-0.09088741822522133
1761414049631779600,7.348779541015625,-5.376497807788849,-1.4551418176725506,-0.5245232019282877
1761414049641791700,7.358791748046875,-4.768629529306292,-1.2894367300786078,-0.9054891429238021
1761414049651804700,7.3688046875,-4.288474607545137,-1.0936639826096595,-0.981255162525922
1761414049661817900,7.37881787109375,-3.742649235999584,-0.9333307973124086,-0.6831582050055265
1761414049671829800,7.388829833984375,-2.928585600233078,-0.6817232768315822,-0.2671932486800477
1761414049681842700,7.3988427734375,-1.7017776141554115,-0.34688740151133385,-0.03904635449200868
1761414049691854600,7.4088544921875,-0.2657581378430128,0.0404742684032768,0.0591411576135084
1761414049701867800,7.41886767578125,1.1334189237624406,0.3588095657017082,0.14469751700907946
1761414049711880700,7.428880615234375,2.4801754777789116,0.5606002582859247,0.19827044603619723
1761414049721892900,7.438892822265625,3.6941076156705615,0.6119345780733972,0.24148984842915086
1761414049731905800,7.44890576171875,4.614209367445111,0.545181374553591,0.319898893353343
1761414049741918700,7.458918701171875,5.306530537593364,0.4964961079701781,0.4248644482264295
1761414049751930600,7.4689306640625,5.882968489545584,0.5603083626672625,0.4523635362550616
1761414049761943800,7.47894384765625,6.462997159466147,0.7336594349697232,0.48305542897563425
1761414049771956700,7.488956787109375,7.006839832761884,0.8938425442717969,0.4922733757086098
1761414049781969000,7.498968994140625,7.502991365078091,0.959767407208681,0.5216608347671107
1761414049791981800,7.50898193359375,7.822875645384192,0.963794909159094,0.5983028334861621
1761414049801994800,7.518994873046875,8.032825386765598,0.9273908858694135,0.6528215189307928
1761414049812006700,7.529006591796875,8.235590769600869,0.8577081317037344,0.584006414445117
1761414049822019800,7.539019775390625,8.400072306749225,0.852296628049016,0.5343775834012776
1761414049832031700,7.54903173828125,8.427260173404216,0.859283856587857,0.5567394912045449
1761414049842045000,7.559044921875,8.266520745393633,0.847537889214605,0.661250909101963
1761414049852057600,7.5690576171875,8.090894713896512,0.8549655549973249,0.7441831670716405
1761414049862069800,7.57906982421875,7.930792999267577,0.9371469945997,0.6923501039817929
1761414049872082700,7.589082763671875,7.803965193209051,1.0590388055607676,0.5635646610494702
1761414049882095900,7.599095947265625,7.644130605083704,1.2264081731051206,0.4271712273314595
1761414049892107800,7.609107666015625,7.548240373602509,1.3612427600085735,0.30290960023282093
1761414049902120700,7.61912060546875,7.408682849830389,1.401005446076393,0.23558254234781487
1761414049912132900,7.6291328125,7.1572431601971385,1.4322174536809325,0.12753246546285227
1761414049922145800,7.639145751953125,6.728011785465479,1.455411574524641,-0.06419140847409144
1761414049932158700,7.64915869140625,6.267286371317505,1.4932780715823173,-0.3172624804351479
1761414049942170600,7.659170654296875,5.504619160789251,1.7195155154198407,-0.4480023453708738
1761414049952183800,7.669183837890625,4.27250371595323,1.912377051617205,-0.24224852130934596
1761414049962196700,7.67919677734375,2.8907138424783945,1.6088158373415469,0.3642050315370783
1761414049972208600,7.689208740234375,1.6722078207999467,0.8141746949255466,1.191365793557465
1761414049982221800,7.699221923828125,1.1117471901804208,0.14220248532295227,1.5896448345340788
1761414049992234800,7.70923486328125,0.8733382470339536,-0.08118775238990783,1.1850011538963765
1761414050002246700,7.71924658203125,0.44682489908933637,-0.1257493631720543,0.42417774460390206
1761414050012259800,7.729259765625,-0.36622166858911515,-0.326995281355083,-0.05256249160924926
1761414050022271700,7.739271728515625,-1.6461404826074837,-1.130555351024866,0.42807237742226567
1761414050032284700,7.74928466796875,-2.874013467568159,-2.9468840579897164,2.271663075724244
1761414050042297900,7.7592978515625,-2.7311627474695443,-3.823730313144624,2.616653740236163
1761414050052309800,7.769309814453125,-1.6287667384803295,-2.318359652708471,-0.32286683978084474
1761414050062322700,7.77932275390625,-1.1565227359741925,-1.0000324898406863,-3.338722690655291
1761414050072335600,7.789335693359375,-1.9197125090718268,-0.550814558134973,-4.736300792631507
1761414050082347500,7.799347412109375,-3.6198335881918666,-0.3273497938811779,-4.561014952874183
1761414050092360700,7.809360595703125,-5.452001669323444,-0.14009426099732517,-3.3728286661356686
1761414050102373600,7.81937353515625,-6.523682806575298,-0.010715016890317201,-1.8597656976312398
1761414050112385500,7.829385498046875,-6.701857938033342,0.11171470033973455,-0.3142200074667111
1761414050122398700,7.839398681640625,-6.518916030564903,-0.03780877552106976,1.0731493831735104
1761414050132410600,7.84941064453125,-6.1203580265164375,-0.40457828725129363,2.184026293325424
1761414050142423600,7.859423583984375,-5.5362710211157795,-0.6437579225093126,2.370144785003364
1761414050152436500,7.8694365234375,-5.069250306215882,-0.6479734943777322,1.5773080616608262
1761414050162448600,7.87944873046875,-5.025858323734998,-0.5377461099863052,0.3393837113503366
1761414050172461600,7.889461669921875,-5.300819174209237,-0.4921363053254783,-0.6178181562192737
1761414050182474500,7.899474609375,-5.629498755389451,-0.4093029776856303,-0.9829220728248357
1761414050192486400,7.909486328125,-5.693085969159006,-0.39639702662229537,-0.9562699204817414
1761414050202499600,7.91949951171875,-5.3536961933940646,-0.3180207514565438,-0.8056493700992315
1761414050212512500,7.929512451171875,-4.529098304131627,-0.0042826457552611824,-0.6948467431031167
1761414050222524700,7.939524658203125,-3.466566688019037,0.2882650801401585,-0.5530104607440531
1761414050232537600,7.94953759765625,-2.4592180299460886,0.440053797519207,-0.3291266673605889
1761414050242549800,7.9595498046875,-1.6271254010140894,0.486934864224866,-0.133220648900792
1761414050252562400,7.9695625,-0.9648410572111606,0.49320524973124263,-0.05829582936316728
1761414050262575600,7.97957568359375,-0.3637140696823597,0.5035558172233402,-0.025056772910431027
1761414050272587500,7.98958740234375,0.18866203868091105,0.47822636485137043,-0.025093963115662334
1761414050282600700,7.9996005859375,0.7983300600618124,0.40220023300833996,-0.042834640859067435
1761414050292613600,8.009613525390625,1.485152632793784,0.338550329266116,-0.09136025990135967
1761414050302625500,8.01962548828125,2.199506186529994,0.32573921687938273,-0.19932620216682553
1761414050312638500,8.029638427734374,2.9665672481030225,0.341636897104606,-0.2886443617813289
1761414050322650600,8.039650634765625,3.635626200607419,0.38546785552464424,-0.36115751706734295
1761414050332663600,8.04966357421875,4.150692276751995,0.4606948728792369,-0.40737434771060943
1761414050342676700,8.0596767578125,4.441950766554474,0.47756505139842625,-0.42657253078594803
1761414050352688600,8.069688720703125,4.432109171497822,0.6100698801800608,-0.421779451290518
1761414050362701600,8.07970166015625,4.3336394449174405,0.8171120635516941,-0.3905240429356694
1761414050372714500,8.089714599609374,4.231744420063495,0.9544953120246529,-0.2546213884092867
