time,seconds_elapsed,z,y,x
1761414022678107400,0.073107421875,-0.6290045900136232,-0.20815511304959652,-0.07207637130394577
1761414022688120600,0.08312060546875,-0.618570289760828,-0.24294863240271805,-0.056191514027677476
1761414022698133500,0.093133544921875,-0.5450497109979391,-0.23226408371590077,-0.04464139802008867
1761414022708145700,0.103145751953125,-0.44029462053775786,-0.2533016841128468,-0.05304145249892026
1761414022718158600,0.11315869140625,-0.3428986606687307,-0.25370799989141524,-0.003988375516422092
1761414022728171500,0.123171630859375,-0.20642507438659666,-0.2720745544482022,0.06258826586008072
1761414022738183400,0.133183349609375,-0.05781447558701038,-0.29520598531924186,0.09916742652095854
1761414022748196600,0.143196533203125,0.01859188774526119,-0.29549912304691967,0.1257575464785099
1761414022758209500,0.15320947265625,0.09226210411190987,-0.33286453871466215,0.12815678963996469
1761414022768221700,0.1632216796875,0.1455699159294367,-0.34855946290940043,0.12633837857376784
1761414022778234400,0.173234375,0.161162621858716,-0.3574206686265766,0.10090897295866161
1761414022788247600,0.18324755859375,0.12845628404319284,-0.31773017101213336,0.09636175798308104
1761414022798260500,0.193260498046875,0.12027063950002193,-0.25884339001849294,0.10477540259584783
1761414022808272600,0.203272705078125,0.09628361471295356,-0.22214505995735526,0.1338890496816486
1761414022818285600,0.21328564453125,0.06256371594071387,-0.20960545798838137,0.19079751633964478
1761414022828298500,0.223298583984375,0.05804360816776752,-0.19555523226074872,0.2456527037296444
1761414022838310400,0.233310302734375,0.06350771879255772,-0.19255787707567215,0.2727678704746067
1761414022848323600,0.243323486328125,0.10128536852300167,-0.1953282185718417,0.28185921341953796
1761414022858336500,0.25333642578125,0.09170037857592106,-0.17468422060236333,0.26283782994952054
1761414022868348700,0.2633486328125,0.03531973518431186,-0.15062814916707573,0.2401881364471279
1761414022878361300,0.273361328125,-0.03212766114473343,-0.0730460200536996,0.2939408424879424
1761414022888374500,0.28337451171875,-0.09556815991997718,-0.009007336189597844,0.31071795416250825
1761414022898386400,0.293386474609375,-0.10110007508397102,0.04041201682202518,0.3051559361211955
1761414022908399600,0.303399658203125,-0.06848609172701835,0.09121332571133971,0.2963592470075935
1761414022918412500,0.31341259765625,0.00047580081820487974,0.12566804156415165,0.2944994262187742
1761414022928424700,0.3234248046875,0.12798749748766422,0.1093218869190663,0.27626897393073885
1761414022938437400,0.333437255859375,0.2427700609654188,0.06655548899061978,0.2815911188015714
1761414022948450600,0.343450439453125,0.4472469238936901,0.0503798686068505,0.2915155698360875
1761414022958463500,0.35346337890625,0.679641721317172,0.06726297967284918,0.3428830247081816
1761414022968475600,0.3634755859375,0.8404273265570401,0.04926167823188007,0.4634229826688766
1761414022978488300,0.37348828125,1.0152741903752087,0.006099485918879509,0.5476229590194299
1761414022988501500,0.38350146484375,1.2214379834771156,-0.006863675224408507,0.6291559081178159
1761414022998513400,0.393513427734375,1.3584656965106725,-0.006379033512622118,0.6570633942842483
1761414023008526600,0.403526611328125,1.4573013337939977,0.03685600484088063,0.687325553818047
1761414023018539500,0.41353955078125,1.5256751973181961,0.061860389976948496,0.6731488521665334
1761414023028551700,0.4235517578125,1.5847013867825268,0.09212605664208531,0.6329843072995543
1761414023038564400,0.433564453125,1.7254601030379533,0.0842011088617146,0.6579063479144126
1761414023048577500,0.44357763671875,1.9398083716392516,0.03921155499108135,0.6214269943661987
1761414023058589400,0.45358935546875,2.2386796745330093,0.027970103073865174,0.6762085319980978
1761414023068602600,0.4636025390625,2.3953882395923136,0.15256342807859183,0.8403830490238964
1761414023078615600,0.473615478515625,2.568618900385499,0.1146272998508066,0.771825207234919
1761414023088627500,0.48362744140625,2.7988644108206033,-0.014079817148298025,0.6912232919089496
1761414023098640600,0.493640625,3.0099054545700548,-0.1700189322050661,0.656633186173439
1761414023108653600,0.503653564453125,3.152225428792834,-0.14054222396053373,0.5004147061860189
1761414023118666800,0.513666748046875,3.3111750507771966,0.22317608350552617,0.43861591020319607
1761414023128678700,0.5236787109375,3.480975737121701,0.5978530073594301,0.4384799357986077
1761414023138691600,0.533691650390625,3.618091128438711,0.9861247413236647,0.24219978679679333
1761414023148704500,0.54370458984375,3.905336875468492,1.8595307198315858,-0.5314573120404035
1761414023158716700,0.553716552734375,4.169831861507892,1.755140078769624,-0.6251016642909497
1761414023168729600,0.5637294921875,4.59546784209609,1.1584499046444892,-0.4891087011326104
1761414023178742500,0.573742431640625,5.161435253438353,0.9014102030470966,0.0006720905752852558
1761414023188754400,0.58375439453125,5.639640210175514,1.163440406408161,0.45674387023113666
1761414023198767600,0.593767578125,5.671401960617303,1.4888278141751885,0.7318721862267702
1761414023208780500,0.603780517578125,4.7087166201353075,1.426732446398586,1.0614783076673746
1761414023218792700,0.613792724609375,4.443390443968773,0.7263358140833676,1.1111658100958912
1761414023228805600,0.6238056640625,4.091702912166714,-0.2874567594319582,0.9230964035458862
1761414023238818600,0.633818603515625,3.448971994617581,-1.6209059419773517,1.0878317693248392
1761414023248831700,0.643831787109375,2.121540903317928,-3.172376820939779,1.6833264500550924
1761414023258843600,0.65384375,-0.4678717787712812,-3.967012702658772,2.4292852484971283
1761414023268856600,0.663856689453125,-4.688501515102386,-3.254434049640596,2.8357278683155775
1761414023278869500,0.673869384765625,-9.68892962950468,-2.3149171110391618,3.505972523473203
1761414023288881700,0.683881591796875,-14.045492853891849,-1.9274482178904115,4.987740482264757
1761414023298894600,0.69389453125,-17.447176443111896,-1.663032434567064,5.9818310148358345
1761414023308907800,0.70390771484375,-21.28033304851055,-0.9100677028857171,4.8887750811219215
1761414023318919700,0.713919677734375,-24.837588307714462,0.7687512796822935,1.9120042727820574
1761414023328932600,0.7239326171875,-23.48917580318451,2.220201037903875,-0.6405407140284777
1761414023338945500,0.733945556640625,-22.178457946276662,2.7105948834761975,0.37656039951294656
1761414023348957400,0.74395751953125,-17.42344368534684,2.712045374545455,1.3259222941718996
1761414023358970600,0.753970703125,-12.737109577411413,1.7108265975296497,1.4505496675767005
1761414023368983800,0.76398388671875,-9.006554683831334,0.4397459736790508,1.1892664831906556
1761414023378996700,0.773996826171875,-6.341584364193677,-0.3497458962149918,0.5229696888759732
1761414023389008600,0.784008544921875,-4.45029657009542,-0.8334107988584786,-0.58219899969697
1761414023399021600,0.794021484375,-3.073833444601297,-1.0917878865394741,-1.1429282181248068
1761414023409034800,0.80403466796875,-2.3316087181210516,-1.2798521785229444,-1.0122536735102534
1761414023419046700,0.814046630859375,-1.8518343201100824,-1.2257014861404896,-0.8840069405645131
1761414023429059800,0.824059814453125,-0.5319745408475399,-0.791934659936279,-0.7503846520602703
1761414023439072500,0.834072509765625,0.937599999064207,-0.06099069447033107,-1.4196604621857405
1761414023449084400,0.84408447265625,1.9124673602491615,0.17955445698723196,-1.7803256656914948
1761414023459097600,0.85409765625,2.345334461134672,-0.3014488982968032,-1.6991729846149681
1761414023469110800,0.86411083984375,2.743951501893997,-0.5322206976283341,-2.015707954493165
1761414023479122700,0.874122802734375,3.420170847547054,-0.1634014320277609,-2.3111644805073737
1761414023489135600,0.884135498046875,4.0646126606673,0.12743296887744218,-2.186141970305145
1761414023499148500,0.8941484375,4.445721517264842,0.29214117265483364,-1.8562687954261898
1761414023509160400,0.904160400390625,4.726432309567928,0.6158131000071764,-1.6092011833973228
1761414023519173600,0.914173583984375,5.114434432810545,0.8322697390645742,-1.5997392353080213
1761414023529186800,0.924186767578125,5.729588776648044,0.8399721301354467,-1.736759934078902
1761414023539199500,0.934199462890625,6.467647615620494,0.8143600614298134,-1.8192001707479357
1761414023549211600,0.944211669921875,7.084557278692722,0.9687898679021746,-1.5395378645844757
1761414023559224600,0.954224609375,7.79386114782393,0.9416684175468981,-1.2080883802995086
1761414023569237800,0.96423779296875,8.429298401233554,0.8554358028575777,-0.8816131772957742
1761414023579249700,0.974249755859375,8.7653610784024,0.7722460629954934,-0.8066082051940262
1761414023589262800,0.984262939453125,8.92640445779562,0.6699536363217979,-0.8983359101682901
1761414023599275500,0.994275634765625,9.04927037448585,0.5922261073883622,-0.9304908977113664
1761414023609287700,1.00428759765625,9.14923413901627,0.5851111608166247,-0.8762311919964849
1761414023619300600,1.014300537109375,9.304224794241785,0.5553088008143008,-0.8058489112593233
1761414023629313800,1.024313720703125,9.610983635514973,0.4855395374089479,-0.7696428216945379
1761414023639325700,1.03432568359375,10.130223782473802,0.48867359765097496,-0.8648699861571192
1761414023649338600,1.044338623046875,10.682537346994875,0.44576516090333457,-0.9371457524906843
1761414023659351600,1.0543515625,10.98954694815874,0.5386759381823242,-0.968407444455847
1761414023669363700,1.06436376953125,10.893209557431936,0.7700766100019216,-0.8977974924426525
1761414023679376600,1.074376708984375,10.639238303494453,0.9589500994764267,-0.8834193499349057
1761414023689389800,1.084389892578125,10.53070194092989,1.0175168547354638,-0.6718047440811992
1761414023699402500,1.094402587890625,10.42991516957879,1.034867364117503,-0.5314142035510391
1761414023709414700,1.10441455078125,10.352892720174788,1.0842449968792498,-0.4840037426764145
1761414023719427600,1.114427490234375,10.134774869906902,1.2428443441212176,-0.26324633768517525
1761414023729440800,1.124440673828125,9.818161574095488,1.3486878143399954,-0.10241941405422984
1761414023739452700,1.13445263671875,9.523065113565325,1.266200962050259,0.16021960538756103
1761414023749465600,1.144465576171875,9.357329192441702,1.0087409892141819,0.41261111585292964
1761414023759478500,1.154478515625,9.687225748196244,0.5188729210816323,0.2935813249931671
1761414023769490700,1.16449072265625,10.406515589290857,0.13483283333778381,0.05998325272714719
1761414023779503600,1.174503662109375,10.411943459558486,0.10502192470282315,0.08778064784891904
1761414023789516800,1.184516845703125,8.41067261121869,0.47133594775050874,0.449605323588103
1761414023799528700,1.19452880859375,4.488684460678696,0.5491673754498362,1.0204274084199219
1761414023809541600,1.204541748046875,0.12210370014607906,0.3851205764569342,1.2403257854290306
1761414023819554600,1.214554443359375,-4.242821694394946,0.599202156946063,0.29211196482665835
1761414023829566700,1.224566650390625,-9.430266418358682,0.44613545552045103,-1.4025734260454774
1761414023839579600,1.23457958984375,-15.51554436366558,0.0026157354563474656,-3.1939819190263745
1761414023849592600,1.244592529296875,-21.395112104856967,0.44390506611987945,-4.583786464391649
1761414023859605500,1.25460546875,-25.689066020596027,1.2658804979242384,-5.111874811455607
1761414023869617700,1.26461767578125,-28.19993123567104,1.8975474390149116,-4.858036536248028
1761414023879630600,1.274630615234375,-29.671958429431914,1.9439235518731175,-4.270266458420455
1761414023889643800,1.284643798828125,-30.641264064836502,1.6006328231468796,-4.2467008739158505
1761414023899655700,1.29465576171875,-30.164132874810694,1.315965109911561,-4.602898284357786
1761414023909668600,1.304668701171875,-27.25957580041885,0.9713152216613292,-4.435362912596762
1761414023919681500,1.314681640625,-23.310569294571874,0.5854693996697664,-4.283927027243376
1761414023929693700,1.324693603515625,-19.93138979810476,0.6716919313564896,-4.734880696700513
1761414023939706600,1.33470654296875,-17.465696434664725,0.9694713473603129,-4.70751718121767
1761414023949719600,1.344719482421875,-14.98183613089323,0.667262862867862,-3.575938332363963
1761414023959731500,1.3547314453125,-11.693128932511806,0.10057853542789816,-2.401668635036051
1761414023969744600,1.36474462890625,-7.93160957634747,-0.47313495999649163,-1.5997914038866758
1761414023979757600,1.374757568359375,-4.609266650345921,-1.1455419077545403,-0.9158697402279824
1761414023989769700,1.384769775390625,-2.4503297900915144,-1.6940559338621795,-0.18201470962092278
1761414023999782700,1.39478271484375,-1.4003478589504956,-1.771732170999795,0.3943436012238264
1761414024009795600,1.404795654296875,-1.0483435162842274,-1.588933033002913,0.4935734985217452
1761414024019807500,1.414807373046875,-1.0265782591998576,-1.3161382745213805,0.41746743331030006
1761414024029820700,1.424820556640625,-0.6012520752131939,-0.9264648570656776,0.6630408612586558
1761414024039833600,1.43483349609375,0.5698363617300987,-0.5185149744894355,1.1657944221884011
1761414024049846500,1.444846435546875,2.1142355487406252,-0.31455526730306443,1.6197184857584535
1761414024059858700,1.454858642578125,3.670821432629227,-0.3115451987668872,1.9254094055391846
1761414024069871600,1.46487158203125,5.0286634442836045,-0.2933254322696477,1.9621789011403916
1761414024079885300,1.47488525390625,6.103248486283421,-0.0962649830777198,1.716258559450507
1761414024089897200,1.484897216796875,6.894694632050395,0.1763117487389594,1.4106896586142479
1761414024099910100,1.49491015625,7.464786429846287,0.41400932874567803,1.1184957876577972
1761414024109923000,1.504923095703125,8.007799082058668,0.6198579914838075,0.9535667990028858
1761414024119935000,1.51493505859375,8.772555958342553,0.7917538965418934,0.9384300201475619
1761414024129948200,1.5249482421875,9.62097194556594,0.9059821871377527,0.9315460327874868
1761414024139961300,1.53496142578125,10.462114142394066,0.958497533403337,0.8282774545580148
1761414024149973200,1.54497314453125,11.238098515135048,0.8045785990625619,0.7613203259639442
1761414024159986000,1.55498583984375,11.8095528334558,0.5808376482158899,0.6557020428031682
1761414024169999000,1.5649990234375,12.067131756496428,0.36260099387392397,0.460992248390615
1761414024180011000,1.575010986328125,11.994153029525279,0.11175853948146104,0.3323374461006373
1761414024190024200,1.585024169921875,11.77348198764324,0.013158902911096811,0.21182452227734028
1761414024200037000,1.595037109375,11.331157907104492,0.011159545787423848,0.12099756553508341
1761414024210049300,1.60504931640625,10.78848077045679,0.12540128038674592,0.087722414855659
1761414024220062000,1.61506201171875,10.15452820264697,0.3177348471872508,0.10802446751967072
1761414024230075100,1.6250751953125,9.568029459929466,0.4997640237249434,0.1282216715697199
1761414024240087000,1.635087158203125,9.140548143735527,0.6589820873871445,0.11144516268335282
1761414024250100200,1.645100341796875,8.853194260156155,0.8714376741096377,0.10671316572539508
1761414024260113200,1.655113037109375,8.743647843766212,1.0532229588888584,0.02105162892229855
1761414024270126000,1.6651259765625,8.692924787744879,1.1929635841429234,-0.19007994265481828
1761414024280138000,1.675137939453125,8.539258659121394,1.360742847662419,-0.4515407486300915
1761414024290151200,1.685151123046875,8.275746254378557,1.5725181970357893,-0.60890927543547
1761414024300164000,1.6951640625,7.854531597363948,1.7843755256041884,-0.6803292651899159
1761414024310176300,1.70517626953125,7.389446818962693,2.0499781806245445,-0.7076050293240695
1761414024320189200,1.715189208984375,7.0694608318477865,2.19682790723145,-0.5845994849674403
1761414024330202000,1.7252021484375,6.770631030008197,2.159432534816861,-0.24898614073498174
1761414024340214000,1.735214111328125,6.488457179415225,1.9765709991082547,0.07333658223180099
1761414024350227200,1.745227294921875,6.2098939205348485,1.8623335022926328,0.0809671501754783
1761414024360240000,1.755240234375,5.931846794483065,1.848754182012379,0.04951207736295182
1761414024370252000,1.765251953125,5.761165233650803,1.8416975414991377,0.1713310925158672
1761414024380265200,1.77526513671875,5.496650373867154,1.5388772087186573,0.5172152900677174
1761414024390278100,1.785278076171875,5.117653394857049,0.9187570591673254,0.9729877579834312
1761414024400290000,1.7952900390625,4.542770271131396,0.20989421180188655,1.4923120030291377
1761414024410303200,1.80530322265625,3.829204068380594,-0.47951925420612096,1.8819687616109846
1761414024420316200,1.815316162109375,3.2881817132025954,-0.7569812738463282,1.8300749082446097
1761414024430328000,1.825328125,2.1477105328410864,-0.6721123487256467,1.1611338830314577
1761414024440341200,1.83534130859375,-0.46770752812027927,-1.06902156265378,0.7171617430247366
1761414024450354200,1.845354248046875,-4.364354901176691,-1.6431997529804705,0.3041144642442465
1761414024460367000,1.8553671875,-9.179629277279972,-1.6050208289727568,-0.6880629281818866
1761414024470379000,1.86537890625,-13.759872077715396,-1.1614813812948763,-1.7722671546593307
1761414024480392200,1.87539208984375,-16.592151851403713,-0.5128801104076206,-2.151862684084475
1761414024490405000,1.885405029296875,-18.220770121324062,-0.2724117505133152,-2.0477996675416827
1761414024500417300,1.895417236328125,-19.96336314547062,-0.08668678819760679,-2.22241593747437
1761414024510430200,1.90543017578125,-22.402311125326154,0.19626199229061603,-2.8540084981545806
1761414024520443100,1.915443115234375,-25.07571784939766,0.4459961931802332,-3.180527101908624
1761414024530455000,1.925455078125,-26.205409277069567,0.9642444064922631,-2.720051570868492
1761414024540468200,1.93546826171875,-25.363396142625806,1.6884155898876487,-1.927628250632435
1761414024550481200,1.945481201171875,-23.5925870778203,2.584855457176268,-1.347437229757011
1761414024560493300,1.955493408203125,-21.426236726438997,3.158775581088662,-0.8346434824585914
1761414024570506000,1.965506103515625,-18.75086834690571,2.8994699803858994,-0.3011814064670354
1761414024580519200,1.975519287109375,-15.337000983417033,2.133233679199219,-0.5963240442264824
1761414024590531000,1.985531005859375,-11.40098723013401,0.813026986195147,-1.4328960835948585
1761414024600544300,1.995544189453125,-7.718936547482013,-0.8229854856297373,-1.6410330764658747
1761414024610557200,2.00555712890625,-4.511021964693069,-1.8755872438803314,-1.2778605663143097
1761414024620569300,2.0155693359375,-1.625414505442977,-2.30516611687541,-0.4771890576928854
1761414024630582000,2.02558203125,1.2362871775627136,-2.2626059090435504,0.46383682416677474
1761414024640595200,2.03559521484375,4.0033664570659395,-1.8768752378642557,1.4343544657096265
1761414024650607000,2.045607177734375,6.3619280640423295,-1.5392141855880617,2.4231103592544794
1761414024660620300,2.055620361328125,8.145673767310381,-1.1306032818198204,3.20807181917727
1761414024670633000,2.065633056640625,8.954708761259912,-0.6677487466886639,3.5378935561299323
1761414024680646100,2.075646240234375,9.03022957392931,-0.33301147290468214,3.1837583389148114
1761414024690658000,2.085657958984375,8.980539952608943,-0.0864046102553606,2.291269985730946
1761414024700671200,2.095671142578125,8.936603195726871,-0.013786241029202938,1.304875852881372
1761414024710684200,2.10568408203125,8.96612564280927,0.02895779893696308,0.6570883825950324
1761414024720696300,2.1156962890625,8.995225480565429,0.1591156262010336,0.2522410691440105
1761414024730709000,2.125708984375,8.90506590169072,0.3279932063512504,0.09668006668463348
1761414024740722200,2.13572216796875,8.566721835586428,0.5322855064928531,0.1057986081637442
1761414024750734000,2.145734130859375,7.8256579695791,0.7264939272545278,0.39547552786320445
1761414024760747300,2.155747314453125,7.023448437735438,0.9851917713224887,0.7154182603582739
1761414024770760000,2.165760009765625,6.338068465027213,1.2117917648620902,0.9460147761881351
1761414024780772000,2.175772216796875,5.992092296609282,1.3718034631200133,1.1577477477245033
1761414024790785000,2.185784912109375,6.054655428028107,1.3110609712570904,1.4243828145325184
1761414024800798200,2.195798095703125,6.259928409770131,1.1489243897996841,1.4842124293342231
1761414024810810000,2.20581005859375,6.484410534372925,0.8813985116317867,1.3776885756358503
1761414024820823300,2.2158232421875,6.695172176659107,0.5414261136732995,1.2162125769790262
1761414024830836000,2.2258359375,6.826602508077025,0.22232063571996985,1.171173484878242
1761414024840848100,2.23584814453125,6.960915701454877,-0.013498437063768505,1.2453642179876565
1761414024850861000,2.245861083984375,7.036583813640475,-0.1489138195298612,1.4055797682546078
1761414024860874200,2.255874267578125,7.033582878258824,-0.19998079361803828,1.5716989896073936
1761414024870886100,2.26588623046875,6.78405223711729,-0.18976488535627722,1.7226413923554122
1761414024880899000,2.275899169921875,6.434591149193048,-0.11756583752073346,1.8653154407128691
1761414024890912000,2.285912109375,6.275704071050882,-0.03053710401766002,1.957931765089929
1761414024900925200,2.29592529296875,6.15039894451499,0.013424933436140417,1.9325370654620229
1761414024910937000,2.30593701171875,6.11656681753993,0.054590325908735395,1.875867522126436
1761414024920950300,2.3159501953125,6.326157662481069,0.17020320273078976,1.8208955764889716
1761414024930963000,2.325962890625,6.584574789911509,0.25853498165644706,1.605337639836967
1761414024940975000,2.33597509765625,6.797232036685943,0.22497253846824167,1.04724994889386
1761414024950988000,2.345988037109375,6.86941347579956,-0.08213533543832599,0.3117224550299346
1761414024961001200,2.356001220703125,6.924684696644544,-0.5637842220842838,-0.4274776994647458
1761414024971013000,2.36601318359375,6.883337956255674,-1.0223707245074212,-0.880404970549792
1761414024981026000,2.376026123046875,6.446125519642234,-1.2115054222013801,-0.9946469243448227
1761414024991039000,2.3860390625,5.556399032387137,-1.1954913490548729,-0.7758155189801007
1761414025001051100,2.396051025390625,4.568875603246688,-1.0874843441266566,-0.4160468259226531
1761414025011064000,2.40606396484375,3.7785330348074435,-0.9597280981115996,-0.03623896892108023
1761414025021077200,2.4160771484375,3.211218885031342,-0.8411905660144984,0.29557390531618144
1761414025031089200,2.426089111328125,2.788890713816881,-0.9823316326510161,0.4292599067064002
1761414025041102000,2.43610205078125,2.26327810921669,-1.4408841597393154,0.3363772230107337
1761414025051115000,2.446114990234375,1.3195377077013253,-2.2080196017228064,0.17994060676060616
1761414025061127200,2.456127197265625,-0.2517804658949375,-3.472350239856541,0.07176082081506029
1761414025071140000,2.46614013671875,-1.9965332984238862,-4.315477180761099,-0.6366239789761603
1761414025081152800,2.47615283203125,-3.9659570561259985,-4.004759080468118,-1.8587617812857031
1761414025091165000,2.4861650390625,-7.115126604479551,-3.1139094344019886,-2.3533522017650306
1761414025101177600,2.496177490234375,-11.737082640528678,-1.7716097136639057,-1.9823900606505571
1761414025111190800,2.506190673828125,-17.675082696944475,0.25994185277968646,-1.5870355288185178
1761414025121203700,2.51620361328125,-23.244976586198806,2.3323203735217453,-1.7700930254906415
1761414025131216000,2.5262158203125,-26.8499709171772,3.4168647917389867,-2.6693057184934617
1761414025141228800,2.536228759765625,-27.69132237284183,3.4567151560902594,-3.478715390974283
1761414025151241700,2.54624169921875,-26.223695459866523,3.064387570863962,-4.015090212607383
1761414025161253600,2.556253662109375,-22.958170399630067,2.4925349008753894,-4.377280725984275
1761414025171266800,2.566266845703125,-18.927482804918288,1.6884765262946486,-4.296593908853828
1761414025181279700,2.57627978515625,-15.470162084150314,0.9603052404124289,-3.7867642720580097
1761414025191292000,2.5862919921875,-12.994459367871285,0.5347521888673306,-2.840316072888672
1761414025201304600,2.5963046875,-11.042729087769985,0.17436857878193257,-1.4942697129681706
1761414025211317800,2.60631787109375,-8.979539251133799,-0.32615415435582396,-0.19746026216447352
1761414025221329700,2.61632958984375,-6.693271311473846,-0.6561866114497185,0.7047630108311772
1761414025231342800,2.6263427734375,-4.255942457252741,-1.0125028259657323,1.1716548386543988
1761414025241355800,2.636355712890625,-1.841029432979226,-1.4155952585734426,1.3284749012641608
1761414025251367700,2.64636767578125,0.16003040295839308,-1.5930220558822155,1.342498604311049
1761414025261380600,2.656380615234375,1.5334908395051956,-1.5453770921319723,1.1319947361782192
1761414025271393800,2.666393798828125,2.064405057644844,-1.4681673034623264,0.24923984150141476
1761414025281405700,2.67640576171875,1.3116314646214247,-1.8286741015359758,-1.0686606203868985
1761414025291419000,2.6864189453125,1.0070926374852656,-2.1651666945546864,-1.4250202356532216
1761414025301431600,2.696431640625,1.8691449358731507,-1.9537723073229192,-1.2160048525124787
1761414025311443700,2.706443603515625,3.4273055217325687,-1.513045432847738,-0.5291334722027182
1761414025321456600,2.71645654296875,5.016573778039216,-0.9362083985753357,0.36942718663215635
1761414025331469800,2.7264697265625,6.201821088716388,-0.4095803333222866,1.1482032359182834
1761414025341481700,2.736481689453125,7.0933426426947115,-0.03980396792627871,1.845567076408863
1761414025351495000,2.746494873046875,7.696907086503505,0.2483529756642878,2.4459666264459488
1761414025361507600,2.756507568359375,7.952965083587169,0.4631283105712384,2.8701664367511865
1761414025371520800,2.766520751953125,7.978825501030683,0.48162630948796864,2.9006068754613397
1761414025381532700,2.77653271484375,8.004117178675532,0.4044471351522952,2.635715583580732
1761414025391545900,2.7865458984375,8.320425938582419,0.2745284504063427,2.3681197089165447
1761414025401558500,2.79655859375,8.88461114268303,0.12691007751449943,2.126038214737177
1761414025411570700,2.80657080078125,9.678761286711692,-0.017475158675014972,2.13103543850258
1761414025421583600,2.81658349609375,10.395962631094456,-0.02616853354461491,2.3205258908316493
1761414025431596800,2.8265966796875,10.712640224313736,-0.05802760688103735,2.5994725960716605
1761414025441608700,2.836608642578125,11.007033505010604,-0.2359805469557643,2.8395167392045257
1761414025451622000,2.846621826171875,11.360987228178978,-0.3906485460981726,2.9600802241712807
1761414025461634800,2.856634765625,11.325198121917246,-0.4425343622885644,3.0041563895240424
1761414025471646700,2.866646728515625,11.080509075587987,-0.33762685774564744,3.030831922742724
1761414025481659600,2.87665966796875,10.794491993570327,-0.29443017864115534,2.9205741432130337
1761414025491672800,2.8866728515625,10.308249276328086,-0.4148231293465942,2.6556737912431356
1761414025501684700,2.896684814453125,9.682660632237791,-0.5102145444601774,2.1151173000112173
1761414025511697700,2.90669775390625,8.9074530890882,-0.7158934766545891,1.5096899849399923
1761414025521710800,2.9167109375,8.148153309166432,-0.9130760909214616,1.0434444921962915
1761414025531722800,2.92672265625,7.620706474876403,-0.9517594573199748,0.8130532166149467
1761414025541735700,2.936735595703125,7.333481770634651,-0.7801560324024409,0.8406856121670454
1761414025551748900,2.946748779296875,6.985961879906058,-0.5403349574357271,0.8231410415176301
1761414025561760800,2.9567607421875,6.315595351934433,-0.316704188965261,0.8369947948250919
1761414025571773700,2.966773681640625,5.494407563376426,-0.18654219698272645,0.8773671372238546
1761414025581787000,2.976786865234375,4.635368475329876,-0.33635194243900474,0.8937116113685071
1761414025591798800,2.986798828125,3.8180075515836474,-0.7216196722816676,0.9793376384668052
1761414025601811700,2.996811767578125,3.2792303449839353,-1.1198462524186819,0.9545673543475568
1761414025611824600,3.00682470703125,3.147344671013951,-1.4329824467040597,0.663917424897477
1761414025621836500,3.01683642578125,3.0230408304750918,-1.6136977641642092,0.15920293915830552
1761414025631849700,3.026849609375,2.1834458630889655,-1.7085281113289295,-0.24753099175691604
1761414025641863000,3.03686279296875,-0.3498451188057661,-1.554133522300422,-0.337897052989155
1761414025651875800,3.046875732421875,-4.7085523694843054,-1.29188017770797,-0.3237739812210202
1761414025661887700,3.0568876953125,-9.261345437458157,-0.8639394273087382,-0.42928515074551105
1761414025671900700,3.066900634765625,-12.07044833369851,-0.24692772863414136,-0.8735719096593558
1761414025681913900,3.076913818359375,-12.495654106175898,0.08399206922091543,-1.7536089236795902
1761414025691925800,3.08692578125,-11.821664127010106,0.22027959487903861,-2.4817303060054776
1761414025701939000,3.09693896484375,-12.554859159338474,0.47392943484243005,-2.7071751381605864
1761414025711951600,3.10695166015625,-15.679502753722666,1.3849413232430814,-2.9080528075531125
1761414025721963500,3.116963623046875,-21.077078420853613,2.6117352807953953,-2.7401670149192214
1761414025731976700,3.126976806640625,-26.924726590692995,3.7858921653985975,-2.4019258246675133
1761414025741990000,3.136989990234375,-29.615923822998997,5.156560340878367,-2.1532038695603606
1761414025752001800,3.147001708984375,-28.55499321234226,6.417137910088896,-2.520388830223679
1761414025762015000,3.157014892578125,-26.253716504120824,6.325046486368775,-2.933718286946416
1761414025772027600,3.167027587890625,-24.0947919188261,6.118364222350716,-4.552786638233066
1761414025782039600,3.17703955078125,-21.718855398678777,5.565378457656502,-6.179319918572903
1761414025792052700,3.187052734375,-18.56745823740363,4.773033317223191,-6.455277378869057
1761414025802066000,3.19706591796875,-14.766037663483619,4.048888437312841,-5.346481439709663
1761414025812077800,3.207077880859375,-10.836198799443244,3.3773242239892483,-3.4663150513455268
1761414025822090800,3.2170908203125,-7.298654787403344,2.9414082569271325,-1.7158248442083597
1761414025832103700,3.227103759765625,-4.115103661498427,2.301671552757919,-0.42908224858455357
1761414025842115600,3.237115478515625,-1.325612643700838,1.3765443740367889,0.056835949411056935
1761414025852128800,3.247128662109375,0.94647187230587,0.13068272792100905,-0.10358402825365774
1761414025862142000,3.257141845703125,3.4082378331691023,-0.8660317234128713,-0.10144319856637157
1761414025872153900,3.26715380859375,6.182879656881093,-1.5267111162371934,0.3245633049678057
1761414025882166800,3.277166748046875,8.517438456979393,-1.949763071681559,0.8073466024711727
1761414025892179700,3.2871796875,10.303194331026077,-2.117606778739393,0.9815526111025362
1761414025902191600,3.297191650390625,11.241852314710616,-2.0138065047860145,0.8397067571975291
1761414025912204800,3.307204833984375,11.067192497897148,-1.7436494013316928,0.5051432325452566
1761414025922217700,3.3172177734375,10.391342570078372,-1.2629440060809254,0.2393001563651487
1761414025932230700,3.327230712890625,9.534013793081044,-0.466987251021713,0.17878354567997157
1761414025942242800,3.337242919921875,8.543513393956422,0.35226869269087907,0.3593319090753794
1761414025952255700,3.347255859375,7.331371062090993,1.0122751546896993,0.5730168549297378
1761414025962269000,3.35726904296875,6.4673600308507675,1.5201380214571951,0.6945618617471307
1761414025972280800,3.36728076171875,6.217387491160631,1.7814429792836308,0.8359672053430229
1761414025982293800,3.377293701171875,6.514702796784043,1.9106861759208142,0.893782630778104
1761414025992306700,3.387306640625,7.1858671971350905,1.8300236164487897,0.7421298147384077
1761414026002318800,3.39731884765625,7.980663822373748,1.5844785378120838,0.5480846947796643
1761414026012331800,3.407331787109375,8.667757028740644,1.3352565242283045,0.4438941063344478
1761414026022344700,3.4173447265625,9.15486717646718,1.2385115756139158,0.44127500987723467
1761414026032356900,3.42735693359375,9.55936684552431,1.2727933460526168,0.6376609208084643
1761414026042369800,3.437369873046875,9.635394438672066,1.3236862056829035,1.0386097655162214
1761414026052382700,3.4473828125,9.364247593528031,1.366399558249861,1.2897183234989642
1761414026062395000,3.457394775390625,8.856972609651088,1.357963007685542,1.4400339726507663
1761414026072407800,3.46740771484375,8.27727185651064,1.2365189404919743,1.3370643043026327
1761414026082421000,3.4774208984375,7.766447071197629,0.9958464363276958,0.8696662074577063
1761414026092433000,3.487432861328125,7.565778952902555,0.6333034562513232,0.29808760517016053
1761414026102446000,3.497446044921875,7.621275214675069,0.2512155254885554,-0.15801497148275376
1761414026112459000,3.507458984375,7.840406041377783,-0.037267654381692404,-0.43309148422591387
1761414026122471200,3.51747119140625,7.9533859393477435,-0.10296689186915754,-0.4768173748362809
1761414026132483800,3.52748388671875,7.914135878977179,0.03830474234446883,-0.25216961134299637
1761414026142497000,3.5374970703125,7.745206714770197,0.3973801924407482,0.026154797280207275
1761414026152509000,3.547509033203125,7.416843359932303,0.788889300891012,0.20365370997712015
1761414026162522000,3.557522216796875,7.13844084457159,1.1382023586466907,0.302778612530604
1761414026172535000,3.56753515625,6.829638514772057,1.3468328341230749,0.3239603341059759
1761414026182547200,3.577547119140625,6.591603665634989,1.50255604140684,0.08041410113628954
1761414026192559900,3.587559814453125,6.424173800075054,1.5573744039177895,-0.24754045370500533
1761414026202573000,3.597572998046875,6.217200444155931,1.3379334883525966,-0.42695707312412556
1761414026212586200,3.607586181640625,6.04200403624773,0.8902114942930638,-0.44019609206672755
1761414026222598100,3.61759814453125,5.888034540763497,0.4158911239042878,-0.3646559171097353
1761414026232610800,3.62761083984375,5.6477785084456205,-0.0012779109813272952,-0.3058578007802367
1761414026242624000,3.6376240234375,5.400190233543515,-0.16883520231321453,-0.28197463822644203
1761414026252636000,3.647635986328125,5.027485048153996,-0.2803391825117171,-0.13874982411842793
1761414026262649000,3.657649169921875,4.115451452022791,-0.28373277047276496,0.09967950422894209
1761414026272662300,3.667662353515625,2.486342183715105,-0.17620134716704486,0.6646273267325014
1761414026282674200,3.677674072265625,0.881398219370842,-0.04834478258267045,1.1698415786873548
1761414026292686800,3.687686767578125,-0.05864975736737251,-0.07792875059396027,1.5153512255720794
1761414026302700000,3.697699951171875,-0.13491817353367805,-0.3449982632964849,1.7875230298496783
1761414026312712000,3.7077119140625,-0.025142040041089057,-0.9140637867845595,1.740647443036735
1761414026322725000,3.71772509765625,-0.7604109560340643,-1.6271937900751827,1.1801973338112235
1761414026332738000,3.727738037109375,-3.4806069038093086,-1.9880247055366633,0.9060143358416854
1761414026342750000,3.73775,-7.753667084601521,-1.782632481329143,1.358063107059151
1761414026352763000,3.747762939453125,-12.079150695592164,-1.31127636757344,2.008310976109654
1761414026362776000,3.757776123046875,-15.96922453547716,-0.9050671181194484,2.159190688885003
1761414026372788000,3.7677880859375,-18.87214494857788,-0.8478430096410214,1.357810155211389
1761414026382801200,3.77780126953125,-20.875652177667618,-0.7698740731671452,0.29860145471012217
1761414026392814000,3.78781396484375,-22.787097209131716,-0.5086965411126614,-0.28319510166579853
1761414026402826000,3.797825927734375,-24.319208576977253,0.13111191311851142,-0.7278564477793872
1761414026412839000,3.8078388671875,-26.288048981833455,1.1522823219254612,-1.3611422222435474
1761414026422852000,3.81785205078125,-27.486781797027586,1.8392916494011877,-1.825613983312994
1761414026432864000,3.827864013671875,-25.817548608124255,1.5739260180070995,-1.8440870669841765
1761414026442877000,3.837876953125,-21.86400387432575,0.7142756661944091,-1.7863497482866049
1761414026452890000,3.84789013671875,-17.308352494311332,-0.3304614961609244,-1.7871254088342188
1761414026462902000,3.857902099609375,-13.253574414438008,-1.279527330482751,-1.8123785080343484
1761414026472915000,3.8679150390625,-9.811238496834038,-2.1083345080032942,-1.8662481915183364
1761414026482928000,3.87792822265625,-6.7549260958760975,-2.725271643604338,-1.7333610854208468
1761414026492940000,3.88793994140625,-3.9954485235482453,-3.1635780129343267,-1.4164280561357736
1761414026502953000,3.897952880859375,-1.715913691535592,-3.4194460404038427,-1.3156488835692406
1761414026512966100,3.907966064453125,0.2030903770059347,-3.4452193640857933,-1.3135286765448748
1761414026522979000,3.91797900390625,1.614910647085309,-3.2298651333123445,-1.2068882837947457
1761414026532991000,3.927990966796875,2.346768293330073,-2.714020474010706,-0.9042096245072782
1761414026543004200,3.938004150390625,2.8403473448097705,-1.9513880425348877,-0.5798108624514192
1761414026553017000,3.94801708984375,3.181638570281863,-1.219010756330192,-0.4193273088980466
1761414026563029000,3.958029052734375,3.6487972323477265,-0.5330548834301531,-0.3322876156095415
1761414026573042200,3.968042236328125,4.543196387588978,0.030299861195683477,-0.39099936882983893
1761414026583055000,3.97805517578125,5.707661022478342,0.3543872922800481,-0.40983544059451665
1761414026593067000,3.98806689453125,7.069095505666732,0.5293699113070964,-0.36164267023578284
1761414026603080000,3.998079833984375,8.511483932489156,0.5992730302251875,-0.273873164835386
1761414026613093000,4.008093017578125,9.717086048930883,0.5884055992521345,-0.2512583234506659
1761414026623105000,4.01810498046875,10.44237366913557,0.6400935547828674,-0.251667653170228
1761414026633118200,4.0281181640625,10.811977381378412,0.7884064858101308,-0.1913079866124317
1761414026643131100,4.038131103515625,10.897264970302581,0.9068345661833882,-0.0805833567559719
1761414026653143000,4.04814306640625,10.8510503316164,1.0110659250304102,-0.05643244664408266
1761414026663156000,4.058156005859375,10.55763203343153,1.1717677975095808,0.0363994201797992
1761414026673169200,4.068169189453125,10.210247167259453,1.3421619197025894,0.3148141009023413
1761414026683181000,4.07818115234375,9.921188233327864,1.5510596678130328,0.5779256332267075
1761414026693194200,4.0881943359375,9.75642495662868,1.7188227108500898,0.7462948985286056
1761414026703207000,4.09820703125,9.671835286840796,1.8031470077000558,0.7412802852369844
1761414026713219000,4.108218994140625,9.46197614635229,1.7922626255922018,0.5693858414836227
1761414026723232000,4.11823193359375,9.102854665157198,1.7557991272002458,0.3635188393712043
1761414026733245200,4.1282451171875,8.742948171064256,1.6921389943249523,0.12992920613996684
1761414026743257000,4.138257080078125,8.525531747063994,1.6230071520403027,-0.14856712498404084
1761414026753270300,4.148270263671875,8.41300660712421,1.6427309664249419,-0.29801497832536694
1761414026763283000,4.158282958984375,8.25912420540154,1.7790914477214217,-0.32226335746236145
1761414026773295000,4.168295166015625,8.038457839694619,1.9598069113120435,-0.3401186014961451
1761414026783308000,4.17830810546875,7.805013240957259,2.1347280094102024,-0.3815481978628784
1761414026793321200,4.1883212890625,7.683882769757509,2.2919676126062867,-0.44104470825269815
1761414026803333000,4.1983330078125,7.724961214599013,2.4378452793106433,-0.574804943922907
1761414026813346000,4.208345947265625,7.831760962629318,2.5966546160414814,-0.7003447559975087
1761414026823359000,4.21835888671875,7.788681114837527,2.702995806649327,-0.6833897487390787
1761414026833371100,4.22837109375,7.532522579988837,2.665797125850618,-0.6151573395121842
1761414026843384000,4.238384033203125,7.194030045324563,2.3764178739234803,-0.6202100197918713
1761414026853397200,4.248397216796875,7.061301490789652,2.018285403765738,-0.8776037955239414
1761414026863409200,4.2584091796875,6.97780779954493,1.7205322912469505,-1.2872862740464508
1761414026873422000,4.268422119140625,6.5393123373836275,1.3248913436889647,-1.5612693655297158
1761414026883435000,4.27843505859375,5.886100942352414,0.8309408285483717,-1.5144428785555064
1761414026893447200,4.288447265625,5.01474013287127,0.4318754594996571,-1.1765043245121836
1761414026903460000,4.298460205078125,3.540963465094566,-0.03366904536783695,-0.28508650490297005
1761414026913473000,4.30847314453125,1.9577339044302702,-0.8752274217814207,0.8972797521788627
1761414026923486000,4.31848583984375,1.1554898857951164,-1.214655775991082,0.9318903892457485
1761414026933498000,4.328498046875,0.34366906051933765,-1.089745201730728,-0.4258966773509979
1761414026943511000,4.338510986328125,-2.5822002664923667,-1.8602885524615644,-1.4164511447504162
1761414026953524200,4.348524169921875,-7.29743255213201,-2.8763100540727375,-1.8848676979228853
1761414026963536100,4.3585361328125,-12.027037061995268,-3.19979937313348,-2.6426114805743097
1761414026973549000,4.368549072265625,-15.125488230502604,-2.7982053623899814,-3.2153444405287503
1761414026983562000,4.37856201171875,-16.485993323886394,-2.259803857234865,-2.4176488789781927
1761414026993574100,4.38857421875,-17.610607594424486,-1.7996660337164998,-1.043274469391629
1761414027003587000,4.398587158203125,-19.2765148537755,-1.3002739120438693,-0.4669481245877221
1761414027013600000,4.40860009765625,-21.30129634156227,-0.8466258889362216,-0.4318375021094456
1761414027023612000,4.41861181640625,-23.594403771853447,-0.3696406832523644,-0.07447790688718668
1761414027033625000,4.428625,-25.688605417346952,0.27725013045519586,1.052020524296537
1761414027043638000,4.438637939453125,-26.383204469299315,1.0877215869486332,2.2227293873377145
1761414027053650200,4.448650146484375,-24.487022473418712,1.7612974323555826,2.8830115975379944
1761414027063663000,4.4586630859375,-20.752343777906894,1.676376192525774,3.1770106182202693
1761414027073676800,4.4686767578125,-16.876337041819095,0.9444159626893699,2.830866399759054
1761414027083688700,4.478688720703125,-13.586507561409473,-0.035347061582654715,1.9295013510279357
1761414027093702000,4.488701904296875,-10.58058971517086,-0.9892959917709231,1.0398473444871603
1761414027103714800,4.49871484375,-7.3795958715558045,-1.8143354873210191,0.5739587023571133
1761414027113727000,4.50872705078125,-3.9811856049180028,-2.3728683647483586,0.5272958084467798
1761414027123739600,4.51873974609375,-0.8002753489106893,-2.66139158436805,0.6169052791580557
1761414027133752800,4.5287529296875,1.8580208997905254,-2.905985645890236,0.8775856753453611
1761414027143764700,4.5387646484375,3.9093221457123755,-2.991478401997685,1.1940703032758087
1761414027153778000,4.54877783203125,5.385201338726282,-2.9000585939288137,1.3659645278334618
1761414027163790600,4.55879052734375,5.970003798919916,-2.5703373947411774,1.3814470513865351
1761414027173802800,4.568802734375,5.614884539103508,-2.003932176503539,1.3473549583010376
1761414027183815700,4.578815673828125,5.169489965078235,-1.295824093028158,1.3498155031956731
1761414027193828900,4.588828857421875,5.337790183731913,-0.5867603162631392,1.327611270172149
1761414027203840800,4.5988408203125,6.0208449283629655,-0.069708326998353,1.323592828311026
1761414027213854000,4.60885400390625,6.598897329774498,0.33270313760787246,1.22099381990619
1761414027223866600,4.61886669921875,6.977427275794744,0.6856121740289032,0.9596326018478721
1761414027233878800,4.628878662109375,7.352341369405388,1.0149930353462695,0.61455214016065
1761414027243891700,4.6388916015625,7.7422303293079135,1.1198505632676183,0.2798423389054835
1761414027253905000,4.64890478515625,8.206111577138305,1.241014206084609,0.03225084913298488
1761414027263916800,4.658916748046875,8.653205356296896,1.312893447381258,-0.06012556554097682
1761414027273929700,4.6689296875,9.098011901301145,1.2843917216487228,-0.05537720197010785
1761414027283942700,4.678942626953125,9.57354383943677,1.3483727570414543,0.010122640487737953
1761414027293954800,4.688954833984375,9.732380064174531,1.418459854224324,0.13878423784468322
1761414027303967700,4.6989677734375,9.621521396142244,1.4883637037947772,0.3573419408345595
1761414027313981000,4.70898095703125,9.386773898112773,1.5106445091858505,0.5848716529723257
1761414027323992800,4.718992919921875,9.076008743807673,1.4496325527317822,0.7036753617249428
1761414027334005800,4.729005859375,8.74928263478279,1.335957073713094,0.6348982511620969
1761414027344018700,4.739018798828125,8.616712485679983,1.2270501242704688,0.4586845559701323
1761414027354030800,4.74903076171875,8.615128431358933,1.075978980576247,0.1919101537566632
1761414027364043800,4.759043701171875,8.764421751725672,0.9463936925031244,-0.017237477461621166
1761414027374056700,4.769056640625,8.964981148949265,0.9247400790996849,-0.10158318242579698
1761414027384069600,4.779069580078125,9.178241037791967,1.0151781826548278,-0.12485475241988897
1761414027394081800,4.789081787109375,9.310337724164128,1.1621586960345507,-0.07569752094317227
1761414027404094700,4.7990947265625,9.362197090739011,1.345365099658072,-0.12578571312706915
1761414027414108000,4.80910791015625,9.189158153125643,1.6363558784350751,-0.3334760216765105
1761414027424119800,4.819119873046875,8.554214236190914,1.8475771010570228,-0.45925015396364033
1761414027434132700,4.8291328125,7.6891235930204385,1.9384736159041522,-0.5115624884704127
1761414027444145700,4.839145751953125,7.123083116441965,1.8283176893137394,-0.40922516320906577
1761414027454157800,4.84915771484375,7.067732400619983,1.421704389103502,-0.14206011771019547
1761414027464170800,4.859170654296875,7.516220849007368,0.8857923626765608,0.17552958538532257
1761414027474183700,4.86918359375,8.11046275319755,0.4686449551008641,0.39368732927218075
1761414027484195600,4.879195556640625,8.47180775566101,0.24952450366169213,0.4348503105919808
1761414027494208800,4.889208740234375,8.362360707992314,0.0937549730181694,0.1299830186864361
1761414027504221700,4.8992216796875,7.560214304512739,0.08136822352334856,-0.3260819659024477
1761414027514233900,4.90923388671875,5.655709885966777,0.2656722131252289,-0.9679914110008626
1761414027524246800,4.919246826171875,2.955988570943475,0.19421675019860266,-1.679177513682097
1761414027534259700,4.929259765625,0.4827648119986057,0.06050152271389961,-2.2531081589885056
1761414027544271600,4.939271728515625,-0.780368871435523,0.02055003607571125,-2.5810887981191275
1761414027554284800,4.949284912109375,-1.1931161443561316,-0.44683761244043707,-2.611172678476572
1761414027564297700,4.959297607421875,-1.6493407399535178,-1.214739947143197,-3.0377693207904697
1761414027574310000,4.969309814453125,-3.160996179747581,-2.058443372761458,-3.8243037291184065
1761414027584322800,4.97932275390625,-6.287776786160468,-2.4834113909602165,-4.471136529028415
1761414027594335700,4.989335693359375,-11.800737074315547,-2.3005909179143607,-4.956218385797738
1761414027604347600,4.99934765625,-19.445711729007957,-1.6545295407682656,-4.723914773789048
1761414027614360800,5.00936083984375,-26.998829937779902,-0.11043898131549358,-4.074507739476859
1761414027624373800,5.019373779296875,-31.96549139165878,0.9616039749860763,-3.30029651388824
1761414027634386000,5.029385986328125,-33.04367241232395,1.8768005651928483,-3.356090589563548
1761414027644398600,5.039398681640625,-31.270476160120964,1.5012186553232372,-2.460509823322296
1761414027654411800,5.049411865234375,-29.01272295180559,1.1062215586267412,-1.6638802835680544
1761414027664423700,5.059423583984375,-27.193412598681448,0.9941250193625688,-1.2489727638736368
1761414027674436900,5.069436767578125,-25.506449691820144,0.3832034907892346,-0.17470464233588426
1761414027684449800,5.07944970703125,-23.29855152451992,0.17896569731384515,0.3539733777169138
1761414027694461700,5.089461669921875,-19.9165102088809,0.07472776259556413,0.4238809536144137
1761414027704474600,5.099474609375,-15.786747322911022,-0.34600802486091853,0.5350943168358877
1761414027714487800,5.10948779296875,-11.905567568099498,-0.9675479780822992,0.3707758247621357
1761414027724499700,5.119499755859375,-8.742453081023692,-1.6871239426419138,-0.14260193296931684
1761414027734513000,5.129512939453125,-5.669589942759275,-2.2107079640239475,-0.37871074594724924
1761414027744525600,5.139525634765625,-2.2311019327551125,-2.41913677944839,-0.280521114949882
1761414027754537700,5.149537841796875,1.2474994764506817,-2.378818797585368,0.2525236489450559
1761414027764550700,5.159550537109375,4.159845305022597,-2.1592837739959356,1.0278126233004032
1761414027774563800,5.169563720703125,6.483721967586875,-1.7555796392306684,1.8701690182238817
1761414027784575700,5.17957568359375,8.333750699579715,-1.1587228763669728,2.480582305014133
1761414027794589000,5.1895888671875,9.48653775615692,-0.40541123094409703,2.573215872786939
1761414027804601600,5.1996015625,9.625832829600572,0.41165070985555646,2.4614707773089406
1761414027814613800,5.20961376953125,8.935568007460237,1.2461138673111796,2.011900963425636
1761414027824626700,5.219626708984375,7.906849813622236,1.9298288294166326,1.4902856117680667
1761414027834640000,5.229639892578125,7.160957212284207,2.47734346922338,1.3527715765222905
1761414027844651800,5.23965185546875,7.082841706946492,2.8142767917469143,1.58017280344218
1761414027854664700,5.249664794921875,7.610561512959003,3.0589053400605914,2.1901883230865002
1761414027864677600,5.259677734375,8.657778655561804,3.1789106066226958,2.8188655808418988
1761414027874689800,5.269689697265625,9.874937354284524,3.145349990065396,3.094587186555564
1761414027884702700,5.27970263671875,10.757769990372656,2.9968001815423366,3.0930785355582833
1761414027894716000,5.2897158203125,11.195738213789463,2.8440435689792034,2.9652687327250837
1761414027904727800,5.299727783203125,11.107764162260294,2.692190042735636,2.670311096143722
1761414027914740700,5.30974072265625,10.492231048238278,2.5092355680465697,2.4109416364245115
1761414027924753700,5.319753662109375,9.718319390118122,2.315604216520488,2.2787238078907133
1761414027934765800,5.329765869140625,9.104998691448568,2.1584902855306862,2.1114543935894963
1761414027944778800,5.33977880859375,8.808325190860032,1.9717489857792854,1.9849090577341615
1761414027954791700,5.349791748046875,8.890210277864336,1.7596023188754915,1.824286241840571
1761414027964803600,5.359803466796875,9.261012844502925,1.5562266951873898,1.6286857821986078
1761414027974816800,5.369816650390625,9.59903717713356,1.342099375860393,1.416423379960656
1761414027984829700,5.37982958984375,9.616945174267887,1.1539859109729527,1.2073370504755525
1761414027994841900,5.389841796875,9.43922421631813,1.0772285422459245,1.0411148802049457
1761414028004854800,5.399854736328125,9.018196021786332,1.1582970521703362,0.9506487195990979
1761414028014867700,5.40986767578125,8.429781800836324,1.34159230312109,1.0117602639701218
1761414028024880600,5.419880615234375,7.943399382862448,1.5574205811470747,1.1258238655235617
1761414028034892800,5.429892822265625,7.550335300055146,1.6734239185914397,1.0901226567409932
1761414028044905700,5.43990576171875,7.344222944879531,1.6471642726972697,1.0190443565636873
1761414028054918700,5.449918701171875,7.304179688304663,1.4930664746582507,0.9087823392502963
1761414028064930600,5.4599306640625,7.316750416064262,1.2415350150883198,0.6883242094665766
1761414028074942700,5.469942626953125,7.253450202542543,0.9970385687217116,0.30934787138570097
1761414028084956000,5.479955810546875,6.894726780754327,0.703720808301866,-0.12982815691828728
1761414028094967800,5.4899677734375,6.426373355945945,0.38219372922480105,-0.4822584699116647
1761414028104981000,5.49998095703125,6.139035254457593,0.09663315880298613,-0.7399795779019593
1761414028114994000,5.509993896484375,6.092106330022215,-0.10995061327666043,-0.7980036776516586
1761414028125006000,5.520006103515625,5.97719341816306,-0.2831009023100138,-0.6769158765498549
1761414028135018800,5.530018798828125,5.6083864092558615,-0.43416064782738684,-0.6615396629154682
1761414028145031000,5.540031005859375,4.985811560028791,-0.48897477255463595,-0.563268966038525
1761414028155043800,5.5500439453125,4.2896056574016805,-0.49566111845076083,-0.4118560962345451
1761414028165057000,5.56005712890625,3.756448628771305,-0.36044980718940495,-0.8060136003017425
1761414028175069700,5.570069580078125,2.663092250806093,-0.39619098265618086,-1.354122991131246
1761414028185081900,5.580081787109375,0.3425497011005878,-0.9069885877013206,-1.8169287186846137
1761414028195094800,5.5900947265625,-2.9899913783103225,-1.590913100904226,-2.070650089514255
1761414028205108000,5.60010791015625,-6.317760421013832,-2.1069497756466267,-1.7633907513730227
1761414028215120000,5.610119873046875,-8.73343157017827,-2.469801383280754,-1.2772507638528943
1761414028225133000,5.620133056640625,-10.2112420235157,-2.8228642950892446,-0.8723203021630644
1761414028235145700,5.630145751953125,-11.680172420305013,-3.1450559755548833,-1.1666002586785704
1761414028245158000,5.640157958984375,-15.431766010260581,-3.2840248857840892,-2.291086445857584
1761414028255170800,5.6501708984375,-21.47276466885805,-2.593262927776575,-3.083641429649293
1761414028265184000,5.66018408203125,-28.25461910367012,-0.9539391394466161,-3.0448508034840223
1761414028275196000,5.67019580078125,-33.84998996400833,1.1254942682430147,-1.7602393016047775
1761414028285208800,5.680208740234375,-36.165038007950784,3.779218094462156,-0.8415145372718572
1761414028295221800,5.6902216796875,-34.88938678824901,5.4406444090068335,-0.9689392132449894
1761414028305234000,5.70023388671875,-30.23631431392431,4.392601336973906,-0.521748293854855
1761414028315246800,5.710246826171875,-23.847765953981874,2.9762001688450574,-0.2035920429177582
1761414028325260000,5.720260009765625,-18.782182353579998,1.7603979992978274,0.09629077510610222
1761414028335272000,5.73027197265625,-15.465927807581425,0.609526859344542,0.8252087146371603
1761414028345284900,5.740284912109375,-12.759988933217524,0.055894759570807216,0.765839922280237
1761414028355297800,5.7502978515625,-10.08377065885663,-0.3991908951245248,0.3025052024167031
1761414028365310000,5.76031005859375,-7.578401118588447,-0.9219802589975297,0.14766411172971128
1761414028375323000,5.770322998046875,-5.127430692505836,-1.1896510985940694,0.20563794259689747
1761414028385335800,5.780335693359375,-2.3616771086484194,-1.2714520144462584,0.26534933784641324
1761414028395347700,5.79034765625,0.4667740466624498,-1.3541165613904595,0.33182818140424786
1761414028405361000,5.80036083984375,3.1130005028635264,-1.225301380906999,0.47101562975496053
1761414028415374000,5.8103740234375,5.357487402370571,-0.8213701593875885,0.7126344017934054
1761414028425386000,5.820385986328125,7.094217087441683,-0.3823723006621003,0.9327475905969739
1761414028435399000,5.83039892578125,8.561185244247318,-0.10224369216114282,0.9882915639687329
1761414028445411800,5.840411865234375,9.910800110304356,0.1667360380768776,0.7943765001304447
1761414028455423700,5.850423828125,10.688726264762877,0.5378828881084918,0.23250169186405836
1761414028465437000,5.86043701171875,10.760996551203727,0.7442915958821773,-0.3749984839584678
1761414028475450000,5.8704501953125,10.763348667287826,0.9532502803996205,-0.7194443010039627
1761414028485462000,5.8804619140625,10.960940446877478,1.230978257499635,-0.6520926931995898
1761414028495474700,5.890474609375,11.21979947285652,1.4555132813334464,-0.30944976085759696
1761414028505488000,5.90048779296875,11.501349638593195,1.5060492903500795,-0.027909093601629135
1761414028515499800,5.910499755859375,11.723774246144295,1.5361051136568187,0.15441592407748103
1761414028525513000,5.920512939453125,11.674969006443023,1.6285378981605172,0.29910072773545976
1761414028535526100,5.930526123046875,11.136791519302129,1.781535626003146,0.45263563119471073
1761414028545538000,5.9405380859375,10.29595327385664,1.976285460165143,0.4879124040201306
1761414028555550700,5.95055078125,9.633006082230805,2.1264120164856313,0.38314576925262805
1761414028565564000,5.96056396484375,9.202773421502112,2.1486887302234767,0.29704496424943205
1761414028575575800,5.970575927734375,9.044455667680502,2.1976757562324405,0.13759206891804932
1761414028585589000,5.980589111328125,9.118926094514132,2.196691421370208,-0.023521453101933
1761414028595602000,5.990601806640625,9.110228408795594,2.045061474749446,-0.05008505037873983
1761414028605613800,6.00061376953125,9.026396279376744,2.0234397177889942,-0.16420352392457424
1761414028615626800,6.010626708984375,8.973175561320781,1.9860200877159833,-0.23634243907071648
1761414028625640000,6.020639892578125,9.03541545213461,1.8527736467868088,-0.42962702298574146
1761414028635651800,6.03065185546875,9.169174518761038,1.6783473464682697,-0.734114412195608
1761414028645665000,6.0406650390625,9.307328020954131,1.5893278775393962,-0.8733381739687174
1761414028655678000,6.050677978515625,9.37245661894679,1.6144845306277273,-0.828424461813271
1761414028665689900,6.06068994140625,9.272594561225175,1.7550941938012838,-0.7242462944582104
1761414028675702800,6.070702880859375,9.010379795077442,1.8845389043599365,-0.640040363290906
1761414028685716000,6.080716064453125,8.459732702463866,1.9851263537466526,-0.5784263492904603
1761414028695727900,6.090727783203125,7.946573921245336,2.084804287073016,-0.49917654269319023
1761414028705741000,6.100740966796875,7.2166101259231565,1.975612090948224,0.009887370427139103
1761414028715754000,6.11075390625,6.779274939712882,2.3319579699501394,-0.37155904756169766
1761414028725766000,6.120765869140625,7.179668927016854,2.736853652587533,-1.2670967418462038
1761414028735778800,6.13077880859375,7.655193266367911,2.4462656093925235,-1.7725097312435507
1761414028745792000,6.1407919921875,7.717686255159974,1.6442478007286787,-1.8985963635459542
1761414028755804000,6.150803955078125,7.523646615093946,1.0488102570131421,-1.4542282099589705
1761414028765816800,6.16081689453125,6.4818211024016135,1.3151356733500956,-1.2820089181654155
1761414028775830000,6.170830078125,5.083135623705386,1.7751158220887182,-0.9918011064596474
1761414028785842000,6.180842041015625,3.3242548971027133,2.143893020379543,-0.09464176579006016
1761414028795854800,6.190854736328125,0.15380641387701033,1.4764090621069073,1.667071042433381
1761414028805868000,6.200867919921875,-2.6993600804954765,-1.122660798382759,3.6008608844354746
1761414028815880000,6.2108798828125,-2.4176123463600874,-1.8874460239782929,2.8174972150981423
1761414028825892900,6.220892822265625,-1.8451707705676554,-0.2923047839850187,-1.4104726548627018
1761414028835906000,6.230906005859375,-3.038756286001205,-0.210954534509778,-4.6625282849341625
1761414028845918000,6.24091796875,-8.143943582516908,-1.946027684545517,-4.561233271799981
1761414028855931000,6.250930908203125,-16.435895121765135,-0.7330087159760296,-5.305737925910949
1761414028865943800,6.26094384765625,-22.988955998516083,2.631331961669028,-5.116452786895633
1761414028875955700,6.270955810546875,-26.856194906258583,5.008197579360008,-2.796051691487431
1761414028885969000,6.280968994140625,-29.119952323424815,5.304331566244364,-0.7316003104828298
1761414028895982000,6.290982177734375,-27.34656200995445,3.478448264470696,-1.6511369757205248
1761414028905994000,6.300993896484375,-22.90969483027458,1.3283854694150388,-4.3903246242135765
1761414028916007000,6.3110068359375,-19.34212392876148,-0.28667832240536806,-5.86156446698904
1761414028926019800,6.321019775390625,-18.84553049789667,-0.9659105861388146,-4.944781045982241
1761414028936031700,6.33103173828125,-20.538990950083733,-0.7866336309187114,-2.3469705379039048
1761414028946045000,6.341044921875,-21.12863325152397,0.73965195338279,-0.4904883189227432
1761414028956058000,6.35105810546875,-19.517945775091647,2.1093436850458382,-0.1834534371871501
1761414028966070000,6.361070068359375,-15.612411331224441,1.8629162706166504,-0.4148291206959635
1761414028976083000,6.3710830078125,-11.000049637472628,0.634549656920135,-0.8946049069464206
1761414028986095900,6.381095947265625,-7.752174800217151,-1.0571049148887395,-1.5145646052390336
1761414028996107800,6.391107666015625,-5.625763075992465,-2.7824574658989905,-1.8696796272717415
1761414029006121000,6.401120849609375,-3.1902327956259247,-3.8267651507958766,-1.776723111154884
1761414029016134100,6.411134033203125,-0.4385422239124775,-4.260245999665558,-1.2351298242211342
1761414029026146000,6.42114599609375,2.4835785642206667,-4.50722461823672,-0.34949042361658067
1761414029036159000,6.431158935546875,5.213497449108958,-4.47851377979815,0.49605629178080707
1761414029046172000,6.441171875,7.408315770083665,-4.246054100444913,1.09591965258196
1761414029056183800,6.451183837890625,9.237679315188526,-3.9167388517096637,1.5479247307881712
1761414029066197000,6.461197021484375,10.483781199800967,-3.5101354883715508,1.8526193330079317
1761414029076210000,6.4712099609375,10.791584581691026,-2.9518390500485894,1.7317855066671966
1761414029086221800,6.481221923828125,10.144993481582402,-2.3022664499111474,1.3100392269939183
1761414029096235000,6.491235107421875,8.923769433116913,-1.5542140401907265,0.9161382549710572
1761414029106248200,6.501248291015625,7.726933391454815,-0.8845131365209817,0.7218069384820759
1761414029116260000,6.511260009765625,7.194899229374528,-0.27841449805945157,0.61421180229038
1761414029126273300,6.521273193359375,7.698024107834696,0.0908709420144558,0.4762273365212604
1761414029136286000,6.531285888671875,8.652642461717129,0.27155601046681405,0.4771224952626973
1761414029146297900,6.5412978515625,9.438625665903091,0.4999209678523242,0.5685257905881852
1761414029156311000,6.55131103515625,9.931129781627654,0.7124642328582703,0.7079509932175279
1761414029166324200,6.56132421875,10.042398199504614,0.7750549829363822,0.9704944067977368
1761414029176336100,6.571336181640625,9.747055070737003,0.7457032162457704,1.17434320095554
1761414029186349000,6.58134912109375,9.268349763262272,0.9194406575173139,1.1511102094061672
1761414029196362000,6.591362060546875,8.970067073911428,1.1902528638795018,1.2518547490507363
1761414029206374000,6.601373779296875,8.545258776319027,1.3020254318863154,1.636346818345785
1761414029216387000,6.611386962890625,8.104198432105779,1.3726445901192723,2.0293048104301095
1761414029226400300,6.621400146484375,7.840218409851193,1.183041471195966,1.9997021377183495
1761414029236412200,6.631412109375,7.786665098839998,1.0646309264793992,1.7361521774441002
1761414029246425000,6.641425048828125,7.830661476954817,1.0311908675618469,1.42783938472718
1761414029256438000,6.65143798828125,7.702385810175538,0.9991969157993793,1.2058511958319693
1761414029266450000,6.661449951171875,7.468053907209634,0.9760346513986587,1.1169436628449707
1761414029276463000,6.671463134765625,7.247856328058242,1.0527952349960803,1.0326436236534267
1761414029286476000,6.68147607421875,7.113279515308141,1.2935983798027038,0.935311230539903
1761414029296488000,6.691488037109375,6.961118530550599,1.4505498137071728,0.86845171710141
1761414029306501000,6.701501220703125,6.823029910287261,1.529807620947808,0.8710361806366592
1761414029316514000,6.71151416015625,6.8976400378525256,1.577476403965056,0.8789356286495923
1761414029326526200,6.721526123046875,7.151614214399457,1.1169162633813916,1.2506317831270395
1761414029336539100,6.7315390625,7.108385313525796,1.2085777712516486,0.8106669060003012
1761414029346552000,6.741552001953125,6.87342271144092,0.8705068230003118,0.4651983217783272
1761414029356564000,6.75156396484375,6.697466425076127,0.09130714147463441,0.5650624253265559
1761414029366577200,6.7615771484375,6.3389107610702515,-0.33171953339800236,0.7439565187089144
1761414029376590000,6.771590087890625,5.624176099061966,-0.5813324459955096,0.8233077033214271
1761414029386603000,6.78160302734375,4.8924336036294696,-0.9131463796786964,0.6955009692281484
1761414029396615000,6.791614990234375,4.06735465285182,-1.2517033578813075,0.6592528671525418
1761414029406628000,6.801628173828125,2.8480969360232353,-1.1227012765236197,0.6338080447725951
1761414029416640000,6.811639892578125,1.294959731283784,-0.6332092020966112,0.41306569122001524
1761414029426653200,6.821653076171875,-0.8663111248761415,-0.44552916019037364,0.2097048267096281
1761414029436666000,6.831666015625,-3.1275656193107366,-0.7901091980747879,-0.17980298838820308
1761414029446678300,6.84167822265625,-5.47097641890645,-1.3769047317817806,-0.8345601880893111
1761414029456691000,6.85169091796875,-8.186401499018073,-1.9878380969233809,-1.1832066716950387
1761414029466704100,6.8617041015625,-10.751487549102306,-2.7192484377920625,-1.453945593625307
1761414029476716000,6.871716064453125,-12.513713494479655,-3.432141271325946,-1.8759571001060307
1761414029486729200,6.881729248046875,-15.074688602113723,-2.1749106744557616,-2.430433395618945
1761414029496742000,6.891741943359375,-20.626977861094474,0.22830993926264345,-1.7670736776694655
1761414029506755000,6.901755126953125,-27.085848880541324,2.0188272555574773,-0.2974983705727383
1761414029516767000,6.91176708984375,-31.589148142027852,2.138782837758958,0.15091419956684113
1761414029526780200,6.9217802734375,-33.49947790572643,3.1541520129412413,-1.6922544373981654
1761414029536793000,6.93179296875,-32.4222975865364,4.336776573899388,-3.7420211672291157
1761414029546805200,6.94180517578125,-28.96003414866924,3.3229040670156476,-2.8601681898280975
1761414029556818000,6.95181787109375,-24.796042829883095,3.3629204355835913,-1.4003954974845052
1761414029566831000,6.9618310546875,-20.74162364645004,2.9198446598947045,0.8043563346140086
1761414029576843000,6.971843017578125,-16.04309407380819,1.8692491268999873,1.1280911528684199
1761414029586856200,6.981856201171875,-10.856244393128156,0.4827094285495579,0.17517021402101962
1761414029596868000,6.9918681640625,-6.316701851871609,-0.5535416450113058,-0.4585502620659768
1761414029606881000,7.001881103515625,-3.088744598007202,-1.130051785416901,-0.6145551358353346
1761414029616894000,7.01189404296875,-1.0536807856589556,-1.2086109428688883,-0.33219610140118744
1761414029626907100,7.0219072265625,0.7772405102819204,-1.0467001329913734,0.040016880024597044
1761414029636919000,7.0319189453125,2.865803857627511,-0.8865481494799256,0.5060005069617182
1761414029646932200,7.04193212890625,4.736293778368831,-0.5809343865886331,0.8360065875053405
1761414029656945000,7.05194482421875,5.87527267434597,-0.34822657769322396,0.7959680071055889
1761414029666957000,7.06195703125,6.150415311127901,-0.054392392183840274,0.3801177266683429
1761414029676970000,7.071969970703125,6.59371028252542,0.22914485571682452,-0.16181699411422013
1761414029686983200,7.081983154296875,7.725870146137476,0.43548079051524397,-0.5406895430270582
1761414029696995000,7.0919951171875,9.382482922920584,0.5989046353042126,-0.8554969584602862
1761414029707008000,7.102008056640625,11.172435664135216,0.5410910365000366,-0.9351028484862297
1761414029717021000,7.11202099609375,12.487844893729687,0.5764198317736386,-0.8968637187238783
1761414029727033000,7.122033203125,13.080428509318828,0.7454530408769846,-0.9092152507748454
1761414029737046000,7.1320458984375,13.051381278532743,0.7811044922336936,-0.9279200973752886
1761414029747059200,7.14205908203125,12.552023059129715,0.7635211970090866,-0.8542336605262011
1761414029757071000,7.152071044921875,11.974926935529709,0.9348243968710302,-0.7890930798348039
1761414029767084000,7.162083984375,11.568120743095873,1.3299307991608977,-0.628277079456672
1761414029777096000,7.172095947265625,11.12164538809657,1.5170672357097268,-0.32657902870438993
1761414029787109000,7.182109130859375,10.373841984701157,1.4549150231793522,-0.08098748057745396
1761414029797122000,7.1921220703125,9.891613763797283,1.6724799157395958,-0.31801023006252943
1761414029807134200,7.20213427734375,9.843422272080183,1.7666303178161382,-0.5567815767806022
1761414029817147100,7.212147216796875,9.986916550779343,1.6637936281979082,-0.6431153137568384
1761414029827160000,7.22216015625,10.051464134013653,1.4692384398251772,-0.4499839476421475
1761414029837172000,7.232171875,9.73342928096652,1.4223890103667973,0.026461890468001365
1761414029847185200,7.24218505859375,9.093132897087932,1.6176394875273108,0.5211918290158734
1761414029857198000,7.252197998046875,8.679193199512362,2.0475708272218704,0.7340621705517172
1761414029867210200,7.262210205078125,8.48393015513122,2.436395080502331,0.6273758197680115
1761414029877223000,7.272222900390625,8.303634962779283,2.6548352945923805,0.5088889218796044
1761414029887236000,7.282236083984375,8.1873577768296,2.8449682826086877,0.432075731312111
1761414029897248000,7.292248046875,7.999819189220666,2.9639716786518693,0.39531288464739917
1761414029907261200,7.30226123046875,7.834937839099764,3.1354616332575675,0.3630288638971746
1761414029917274000,7.312274169921875,7.7286454560697075,3.33109643356055,0.4089375053741038
1761414029927286300,7.322286376953125,7.554852485218643,3.276739112690091,0.44838886047042903
1761414029937299000,7.332298828125,7.166003389757871,2.9911098609462377,0.5180728202125058
1761414029947312000,7.34231201171875,6.7915943230599165,2.70588100669682,0.7234281099431217
1761414029957324000,7.352323974609375,6.663040423861146,2.401741700272262,0.9079941845472902
1761414029967337200,7.362337158203125,6.790432293543219,2.039521960800886,1.0169706920947879
1761414029977350000,7.372349853515625,6.797613144958019,1.6790490649968384,1.1413609688080846
1761414029987362000,7.382362060546875,6.244739608466625,1.2716162650972604,1.3432526375487446
1761414029997375000,7.392375,5.2744128133207555,0.8853317594274878,1.32808502516374
1761414030007388200,7.40238818359375,3.7821325206041334,0.8277516771182417,0.742566598720476
1761414030017400000,7.412400146484375,0.9043646689385175,0.6598340280413627,-0.06139181348397396
1761414030027413200,7.422413330078125,-2.902161703687906,-0.022510522493720053,-0.7773932896908372
1761414030037426000,7.432426025390625,-6.465128910797834,-1.0815291620492935,-1.069724450226128
1761414030047438000,7.44243798828125,-9.364440485751627,-2.030083685848117,-1.08421182526201
1761414030057451000,7.452450927734375,-11.482551414620875,-2.611545018920302,-0.5926161296192556
1761414030067464200,7.462464111328125,-13.180917174506186,-2.809077761799097,0.2989935775665566
1761414030077476000,7.47247607421875,-14.630028772103786,-2.7377105616778135,0.6473574083060025
1761414030087489000,7.482489013671875,-16.973297532880306,-2.4175574013024566,-0.0060181277783587575
1761414030097502200,7.492502197265625,-21.064525228750703,-1.8971371046483516,-0.36751192759536205
1761414030107514000,7.50251416015625,-25.570354300975797,-1.47154554772377,-0.012641016516834497
1761414030117527300,7.51252734375,-28.757289224100113,-0.7100070489645004,0.12376703024841844
1761414030127540200,7.522540283203125,-29.422096364378927,0.5749693407043814,-0.2207506829895079
1761414030137552100,7.53255224609375,-27.349655299794673,0.3861819220781326,0.5783378672894091
1761414030147565000,7.54256494140625,-22.761574645340442,-0.3656657882720232,0.981172306548059
1761414030157578200,7.552578125,-18.036451664805412,-0.8666732361868024,0.2105263722255826
1761414030167590100,7.562590087890625,-14.37048468647003,-1.643970737352967,-0.751458564902097
1761414030177603300,7.572603271484375,-11.364036094355583,-2.185848832577467,-1.266933952499926
1761414030187616000,7.582615966796875,-8.687250249239803,-2.6230548394501207,-1.2070819797359407
1761414030197628000,7.5926279296875,-6.153303433784842,-3.3208395357012748,-0.5944500670481473
1761414030207641000,7.60264111328125,-3.5995682142764327,-3.6068744456365702,-0.0841295779954642
1761414030217654300,7.612654296875,-1.399163033080101,-3.208178202161193,0.1022293713748455
1761414030227666200,7.622666259765625,0.24930033951699732,-2.6109356548503038,0.05432349166609347
1761414030237679400,7.632679443359375,1.5479893204569817,-2.1702204708129167,-0.019914733846858143
1761414030247692000,7.642692138671875,2.584595637196302,-1.7594070885643363,0.3688734252069145
1761414030257704000,7.652703857421875,3.466559089234471,-1.4128808850482106,0.9659427348427474
1761414030267717000,7.662717041015625,4.383303347274661,-0.971356722715497,1.127300733143091
1761414030277730300,7.672730224609375,5.075190802180766,-0.5208621952027083,0.8746174731895328
1761414030287742200,7.6827421875,5.365941926982998,-0.031355215467512604,0.17341737900432197
1761414030297755100,7.692755126953125,5.343928248095512,0.3940449105381965,-0.48141032864972944
1761414030307768000,7.70276806640625,5.548047968149185,1.092951596556604,-0.5633670561181381
1761414030317780000,7.712780029296875,5.748513257348537,1.4907286793604493,-0.38096575833242385
1761414030327793200,7.722793212890625,6.342228507316112,1.7736480876237153,-0.3584881151949987
1761414030337806300,7.732806396484375,7.111629994535446,1.772087414178252,-0.10941752931326627
1761414030347818200,7.742818359375,8.054851925134658,1.777820697133243,0.1927534361803904
1761414030357831200,7.7528310546875,8.936003476268052,1.961225253677368,0.38318774523083116
1761414030367844000,7.762843994140625,9.431732399258017,2.257054120135307,0.4625439348120242
1761414030377856000,7.77285595703125,9.634382046759129,2.5007801666513085,0.32244722612928595
1761414030387869200,7.782869140625,9.842527953588961,2.5671128797367215,0.0968630951013416
1761414030397882000,7.792882080078125,10.015761536991596,2.5176564826503394,-0.0074212725745514034
1761414030407894000,7.80289404296875,10.045230792582034,2.4656916098743675,-0.006964541782997548
1761414030417907200,7.8129072265625,9.880669175934791,2.491523093484342,0.13606705130785704
1761414030427920100,7.822920166015625,9.711137954181432,2.489633334214985,0.2305488772958517
1761414030437932000,7.83293212890625,9.565096913608908,2.512886491769552,0.1784160275418311
1761414030447945200,7.8429453125,9.429429383012652,2.5026596967875956,0.020270671145059167
1761414030457958100,7.852958251953125,9.309514717343449,2.484920918740332,-0.08486998456660658
1761414030467970000,7.862969970703125,9.284890563696623,2.4447651417016982,-0.14108842313382775
1761414030477983200,7.872983154296875,9.278432765859366,2.3879244795829058,-0.21710849056225268
1761414030487996200,7.88299609375,9.319219534277915,2.37611129219234,-0.2780340108418837
1761414030498008000,7.893008056640625,9.351347779944538,2.3221926550000904,-0.31816673579849303
1761414030508021000,7.90302099609375,9.383882268324493,2.305214632192254,-0.3902703604355454
1761414030518034200,7.9130341796875,9.386897232231497,2.3142755982652305,-0.4449694074157625
1761414030528046000,7.923046142578125,9.221920020520686,2.3464456372469664,-0.4110156633550301
1761414030538059300,7.933059326171875,8.779300171905755,2.4714254773512483,-0.2816368576394394
1761414030548072200,7.943072265625,8.16975373107791,2.5815052699655294,-0.14350271773394196
1761414030558084400,7.95308447265625,7.649274982234835,2.69733997284472,-0.1864886401645839
1761414030568097000,7.963096923828125,7.448415140759945,2.7526883505791426,-0.3667063833661377
1761414030578110200,7.973110107421875,7.522590384039282,2.522524965469539,-0.35993458767626435
1761414030588122000,7.9831220703125,7.85484665466249,2.0707035732671617,-0.22350082194786516
1761414030598135300,7.99313525390625,8.064973506176472,1.4867913399115205,-0.23450945148989558
1761414030608148200,8.003148193359374,7.552756389722227,1.0124252306848764,-0.3020379136985168
1761414030618160000,8.01316015625,6.325524040752649,0.7057955687493086,-0.37854711635075505
1761414030628173000,8.023173095703125,4.5923523404240605,0.3351175052732229,-0.25678601909726856
1761414030638186200,8.033186279296874,2.79310745472908,-0.3299655293375253,0.26188268464915454
1761414030648198100,8.0431982421875,1.3168483224868774,-1.6113386338174343,1.7511197372123597
1761414030658211300,8.05321142578125,-0.040730069795250894,-1.3115379411190748,2.4257205417528747
1761414030668224000,8.06322412109375,-3.7818770845383405,1.269765084272623,1.8464238393686712
1761414030678236200,8.073236083984375,-10.686416234254837,2.9070968220025297,2.4505790886774657
1761414030688249000,8.0832490234375,-18.11346242377162,1.53571596820876,4.2664185508206485
1761414030698262300,8.09326220703125,-24.045273562419414,1.5211248405374587,1.8254736980594695
1761414030708274200,8.103274169921875,-26.87333776423931,3.5246123420134183,-2.7474156708732247
1761414030718287000,8.113287109375,-28.85528081177473,3.9045813809260723,-3.663539458927512
1761414030728300000,8.123300048828124,-30.63951517534256,1.8909832581937311,-1.3910890322178602
1761414030738312200,8.133312255859375,-30.359599332809445,1.6244655341550707,0.6522053597938269
1761414030748325000,8.1433251953125,-28.92273697593212,1.8700906922906637,2.0076441827639937
1761414030758338300,8.15333837890625,-26.07265500357151,1.2529723549038172,2.5916598764941097
1761414030768350200,8.16335009765625,-21.63995897209644,0.3370306454181671,1.81191878156811
1761414030778363100,8.173363037109375,-16.579173127365113,-0.6661888038955629,0.11454605130814015
1761414030788376000,8.1833759765625,-11.232062742102146,-1.6968796129807828,-1.6549565340086816
1761414030798388200,8.19338818359375,-6.305909824222326,-3.0023715519338845,-2.500422731515765
1761414030808401200,8.203401123046875,-2.730771702325344,-3.893593538443744,-2.2441544526822863
1761414030818414300,8.213414306640624,-0.7637211034953594,-3.7680493424549697,-1.1172786669529975
1761414030828426200,8.22342626953125,-0.13234335460960864,-3.307148279479146,0.35582631210722027
1761414030838439200,8.233439208984375,-0.14657704714536665,-2.77555776951313,1.3442514393277465
1761414030848452000,8.2434521484375,0.005412672698497772,-2.0219880576759577,2.0728836937852204
1761414030858464300,8.25346435546875,0.47873219548165796,-1.5258280497923493,2.5571196012496946
1761414030868477200,8.263477294921875,1.1487941875487566,-2.025634597484767,2.228045467793941
1761414030878490000,8.273489990234374,1.5356442181468009,-1.859306555686891,1.2916476841263471
1761414030888502000,8.283501953125,1.3340233291715382,-0.897565437252447,0.7132778873287141
1761414030898515200,8.29351513671875,1.497288476267457,-0.5633781255014241,0.755681881685555
1761414030908528000,8.303528076171874,2.0683833136260508,-0.4221384573286399,1.0728809414956717
1761414030918540300,8.313540283203125,2.8268782069057226,-0.16639703364716843,1.5470564235210418
1761414030928553200,8.32355322265625,3.592532908812165,0.02362648437898606,2.0820669710636137
1761414030938566100,8.333566162109374,4.385742557120323,0.22633480326477437,2.506732060793042
1761414030948578000,8.343578125,5.02531530289948,0.3256719237968325,2.855199169243872
1761414030958591200,8.35359130859375,5.358693271028995,0.20738067634468896,2.8763921793982385
1761414030968604200,8.363604248046874,5.562331345045566,0.07871865886263549,2.38745043233037
1761414030978616300,8.3736162109375,5.941114973565936,0.07929508877741172,1.570346113693714
1761414030988629000,8.38362890625,6.566156505167484,0.008069142024032772,0.8197172776140272
1761414030998642200,8.39364208984375,7.322566993388533,-0.06826849432042799,0.25422270794790236
1761414031008654000,8.403654052734375,7.958722039678692,-0.17979230259740725,-0.05055462238555774
1761414031018667300,8.413667236328125,8.379128302919865,-0.35843956334553656,-0.1714266070459038
1761414031028680200,8.42368017578125,8.695541692245007,-0.4217712679840624,-0.21935714627187697
1761414031038692400,8.4336923828125,8.822875109738112,-0.4351827208841219,-0.16427532878546044
1761414031048705000,8.443705078125,8.926437191021442,-0.45360159015003587,0.06740982253132388
1761414031058718200,8.45371826171875,8.970257628047467,-0.4402873140141368,0.27194095466379076
1761414031068730000,8.463730224609375,8.88464621399641,-0.3706859910542145,0.408161954424344
1761414031078743600,8.47374365234375,8.650425370189547,-0.24681508030621332,0.5575753575067967
1761414031088756200,8.483756103515624,8.46451584508717,-0.1141052670043893,0.7450207138743251
1761414031098768400,8.493768310546875,8.35759393198192,-0.00681691347323358,0.8931620146617293
1761414031108781300,8.50378125,8.324145835888386,0.02383057385003194,0.9168423846524208
1761414031118794500,8.51379443359375,8.414570203179121,0.061370377970300614,0.7231289078008383
1761414031128806400,8.523806396484375,8.480549865043162,0.07968900173213332,0.36683826611749826
1761414031138819600,8.533819580078125,8.478357323434949,0.09841145705450326,-0.028955332985240965
1761414031148832300,8.543832275390624,8.336825869241355,0.17505937405768782,-0.4112409234782681
1761414031158844400,8.553844482421875,7.949557905492186,0.3228558799954131,-0.7331406717926263
1761414031168857300,8.563857421875,7.485718158715963,0.3862518820418045,-0.7899763654753565
1761414031178869500,8.573869384765626,6.938802653846144,0.126938353760913,-0.3954837842348963
1761414031188882400,8.58388232421875,6.33807372572422,-0.23888730124793944,0.23818359169168396
1761414031198895400,8.593895263671875,6.15757804236412,-0.2520840519513935,0.6326586555417627
1761414031208907300,8.6039072265625,5.955793487259745,-0.14966799889802931,0.8009806476358324
1761414031218920400,8.61392041015625,5.03982430524528,-0.2576831871327013,0.6251650849159807
1761414031228933400,8.623933349609375,3.9767648658663033,-0.31724151071235535,-0.07899901017397641
1761414031238945500,8.633945556640626,2.9369302347302435,-0.03168561646565795,-0.9746071758788079
1761414031248958500,8.64395849609375,1.3580430871844291,0.19100005317442117,-1.5060634650059044
1761414031258971400,8.653971435546875,-0.4242331280529499,0.1916476303629577,-1.6058697008870542
1761414031268983300,8.6639833984375,-1.9766081162482498,-0.14884747629538178,-1.6021728921957312
1761414031278996500,8.67399658203125,-3.7073528816908596,-0.88436488715671,-1.6518566682972013
1761414031289009400,8.684009521484375,-5.317999441590905,-1.758409601959586,-1.4831370551876724
1761414031299021600,8.694021484375,-6.747713095757365,-2.6211826158374545,-1.0854484543848781
1761414031309034200,8.7040341796875,-7.543431512016057,-3.0179885155215858,-0.8240094218499958
1761414031319047400,8.71404736328125,-7.381982474431395,-2.3852516071118415,-1.1041836961235851
1761414031329059300,8.724059326171876,-8.384217150491475,-1.5817513048052787,-1.6271587187618015
1761414031339072500,8.734072509765625,-12.142782917547224,-1.3139067160770297,-2.0772231842942537
1761414031349085400,8.74408544921875,-16.785899815046786,-0.2322130841810256,-3.650648120911419
1761414031359097600,8.75409765625,-21.137805569016933,1.3391488554917275,-5.864426870682835
1761414031369110300,8.7641103515625,-24.315116923749446,1.995101512055099,-5.905274429377913
1761414031379123500,8.77412353515625,-24.36732641893625,2.5480390536934134,-4.817613048183918
1761414031389135400,8.78413525390625,-22.17034945862293,2.963589401336014,-3.096614308468997
1761414031399148500,8.7941484375,-19.28964438446164,2.7769182442113753,-0.8336918808221817
1761414031409161200,8.8041611328125,-16.463257760465144,2.4453401651106774,0.8647262668374925
1761414031419173400,8.81417333984375,-13.89352885301113,2.1968251307524738,1.5584345804952084
1761414031429186300,8.824186279296875,-11.915301026606558,1.9646862077862024,1.6380352098241446
1761414031439199500,8.834199462890625,-10.485843393027782,1.63629099650532,1.2346949399352074
1761414031449211400,8.84421142578125,-9.190173467648028,1.0838970602244138,0.665972969187796
1761414031459224600,8.854224609375,-7.812776276174187,0.4490657368186861,0.05128153015431016
1761414031469237200,8.8642373046875,-5.9806608020126815,-0.13256686116717756,-0.5576338462283834
1761414031479249400,8.87424951171875,-3.5162440343797203,-0.5239694405030458,-0.7390801448442041
1761414031489262300,8.884262451171875,-0.6743383542120456,-0.9114588649831712,-0.27280232073348015
1761414031499275500,8.894275634765625,2.1319810487896205,-1.2000216859608888,0.35703791638668625
1761414031509287400,8.904287353515626,4.401168674311042,-1.1210954487621783,0.8907713201329112
1761414031519300400,8.91430029296875,5.627644067433476,-0.8739401584498584,1.3181006606355308
1761414031529313300,8.924313232421875,5.841056516489386,-0.5518559204140677,1.4605210264928639
1761414031539325400,8.934325439453126,5.438644759622216,-0.32222346384339035,1.243365006994456
1761414031549338400,8.94433837890625,4.854673489555716,-0.2920631024499424,0.9368221465595066
1761414031559351600,8.9543515625,4.607710653075576,-0.2515059050035663,0.5497071814149618
1761414031569363500,8.964363525390626,4.748353049474955,-0.26152766066640615,0.16234280808661133
1761414031579376400,8.97437646484375,5.509111211511493,-0.18961175888748838,-0.6079178897779435
1761414031589389300,8.984389404296875,6.360412983304262,-0.24841309008738024,-0.9623024055790156
1761414031599401500,8.9944013671875,7.055536935913563,-0.31244784669503567,-1.0453415579892695
1761414031609414400,9.004414306640625,7.6529709141433235,-0.3040313890706748,-1.0748146129719913
1761414031619427300,9.01442724609375,8.133055108755826,-0.2294093518719077,-1.1161735552553087
1761414031629439200,9.024439208984376,8.608549052968621,-0.1981567199960351,-1.0825430883321912
1761414031639452400,9.034452392578125,9.154440475487709,-0.30638876585178076,-0.9262238879166543
1761414031649465300,9.04446533203125,9.57902607024014,-0.4613353992724791,-0.743133219627291
1761414031659477500,9.0544775390625,9.710418407735228,-0.41115193002056327,-0.5426661037970334
1761414031669490400,9.064490478515625,9.65190718205571,-0.17008819804899394,-0.519202372231707
1761414031679503400,9.07450341796875,9.47721521653831,-0.012303382060304284,-0.6188903885606676
1761414031689515300,9.084515380859376,9.124947254499792,-0.06549465482607483,-0.5805689508097246
1761414031699528400,9.094528564453125,8.439796414372324,-0.3805251384254545,-0.4937342785740271
1761414031709541400,9.104541259765625,7.386115628713369,-0.9092114513825624,-0.3347819897085428
1761414031719553500,9.114553466796876,6.9171490404427045,-1.0129945550054311,-0.14596735428180543
1761414031729566200,9.124566162109375,6.960548037186265,-0.42980639814063903,-0.3844517372846603
1761414031739579400,9.134579345703125,7.067915355971455,-0.023968173956125972,-0.668868909825012
1761414031749591300,9.14459130859375,6.984999172353744,0.034181817195564505,-0.5605460438806563
1761414031759604500,9.1546044921875,6.885660846245289,0.2394992226012051,-0.5886481027711182
1761414031769617400,9.164617431640625,7.127014026150107,0.37246129363104696,-0.7249369801361113
1761414031779629600,9.174629638671876,7.466117970710992,0.27310674704015253,-0.8063198897719382
1761414031789642200,9.184642333984375,7.758463671228289,0.24944208607524632,-0.9173085408594459
1761414031799655400,9.194655517578125,7.830694210180639,0.39986806373372674,-0.9631562459293752
1761414031809667300,9.204667236328126,7.429845464846491,0.705596100654453,-0.8364495820324868
1761414031819680500,9.214680419921875,6.526881310355663,1.1062588218972087,-0.5047979262389243
1761414031829693400,9.224693359375,5.1590544957816595,1.2996418977506459,0.1435770616117865
1761414031839705300,9.234705322265626,3.957067062705755,1.233195495157689,0.5407413097469136
1761414031849718300,9.24471826171875,3.235736655694246,1.2021750646024942,0.5578507403820753
1761414031859730400,9.25473046875,2.8707950900435444,0.9382584629729389,0.6618129268988967
1761414031869743400,9.264743408203126,2.6879350156396624,0.2795966935813427,0.9744219555050134
1761414031879756500,9.274756591796875,1.7437760964512825,-0.675326196205616,1.732259700050205
1761414031889768400,9.2847685546875,0.4956050043493509,-1.9140712883144615,2.6290327448159454
1761414031899781400,9.294781494140626,-0.03521218315660953,-2.646083248338103,2.294832792779058
1761414031909794300,9.304794189453125,-0.46260699011087414,-3.024996348457038,0.6721421593420207
1761414031919806500,9.314806396484375,-1.7947142565280199,-4.236224195826053,0.15043602412845938
1761414031929819400,9.3248193359375,-3.95519250100553,-5.136523515021801,0.574018908111751
1761414031939832600,9.33483251953125,-6.643875120142102,-4.282851799227297,-0.20310093493256717
1761414031949844500,9.344844482421875,-9.708813895148038,-2.4999828787937757,-1.6160072101503609
1761414031959857400,9.354857421875,-12.769879043591022,-1.151728049043566,-2.1564453356996176
1761414031969870300,9.364870361328125,-15.244319192588328,-0.5127035847969353,-1.8416817594081163
1761414031979882500,9.374882568359375,-17.072908246189353,-0.04879442604631185,-1.5722329503536223
1761414031989895400,9.3848955078125,-18.59147507280707,0.25029899516552684,-1.285047116817534
1761414031999908400,9.394908447265625,-19.63226422818899,0.5396060586392879,-1.3590790061034261
1761414032009920300,9.404920166015625,-19.473919586360452,1.2224044904217124,-1.4989210459053515
1761414032019933400,9.414933349609376,-18.459277264147996,1.3227594462268053,-0.5628896843973547
1761414032029946400,9.4249462890625,-16.944599846184254,0.7176189852729439,0.986812431326881
1761414032039958500,9.43495849609375,-14.765242713713645,0.029233254877477882,1.648378032401204
1761414032049971500,9.444971435546876,-12.399978394228219,-0.38875089578330513,1.9739117167711258
1761414032059984400,9.454984375,-10.646695633763073,-0.8174559085533022,2.076536809465289
1761414032069996300,9.464996337890625,-9.487976849049328,-0.9519242924928665,1.7950246376514434
1761414032080008700,9.4750087890625,-8.569648536688089,-0.7195034107800573,1.5066172994963825
1761414032090021600,9.485021728515624,-7.662277087149024,-0.504025334431231,1.322149351504445
1761414032100033500,9.495033447265625,-6.165373226284981,-0.34295272894352674,1.0394134100493042
1761414032110046700,9.505046630859376,-3.8281180267095563,-0.2585572665534913,0.6799642312698065
1761414032120059600,9.5150595703125,-1.0245768562495707,-0.39035555450096726,0.3454671229172498
1761414032130071600,9.525071533203125,1.6680156298071145,-0.5860321481190621,0.159696969752945
1761414032140084700,9.535084716796876,3.9026077427655457,-0.6641498454138636,-0.020481756612472236
1761414032150097700,9.54509765625,5.370592383137345,-0.5607805102236568,-0.13360477111386135
1761414032160109600,9.555109619140625,6.009916122591495,-0.28120325199514623,-0.09604293782487511
1761414032170122500,9.56512255859375,5.9389802996248005,0.02607011467143893,0.05746984513411298
1761414032180135700,9.5751357421875,5.502850397551059,0.3717286685075611,0.09669880791772156
1761414032190147600,9.585147705078125,5.192645799738169,0.6414679849412291,0.03539196017030626
1761414032200160800,9.595160888671876,5.17015105933547,0.8239839951477944,-0.01994942156774923
1761414032210173700,9.605173583984374,5.411306670841574,0.7917018740937113,-0.02707969357278198
1761414032220185600,9.615185546875,5.814654247254133,0.581013735435158,-0.13788728900495917
1761414032230198500,9.625198486328125,6.226790110278129,0.23227643174082038,-0.4935507752332836
1761414032240211700,9.635211669921874,6.7107420862346885,-0.05209317533075809,-0.9634656772047281
1761414032250223600,9.6452236328125,7.21436556186676,-0.27048428958207366,-1.3282418231606483
1761414032260236800,9.65523681640625,7.624802219757437,-0.48052039407268166,-1.489011646309495
1761414032270249700,9.665249755859374,7.922412124413252,-0.5713957200013101,-1.362984781370312
1761414032280261600,9.67526171875,7.994905698215961,-0.5422071810483933,-0.999886505498737
1761414032290274600,9.685274658203125,7.807537790998816,-0.43954555573612447,-0.573964803304337
1761414032300287700,9.695287841796874,7.39929893541336,-0.2601765383183956,-0.24256197117269038
1761414032310299600,9.705299560546875,7.074091414257883,-0.012469605472683906,0.006317220322787761
1761414032320312800,9.715312744140626,6.7994947209209196,0.15499606205299496,0.12189298000484704
1761414032330325500,9.725325439453124,6.547862723585963,0.2954553569704294,0.012290449513494967
1761414032340337400,9.73533740234375,6.3993029781907795,0.46910994226410985,-0.2314710701746866
1761414032350350600,9.7453505859375,6.243313959577679,0.6467866226807236,-0.49016544364392756
1761414032360362500,9.755362548828124,6.045930854302644,0.7414347451463341,-0.7150327681720257
1761414032370375700,9.765375732421875,6.075214816454053,0.8178507530897855,-0.879288679870963
1761414032380388900,9.775388916015626,6.303863413086533,0.9435805347785353,-1.0477051453154533
1761414032390400800,9.78540087890625,6.556937425923347,1.0428098475545644,-1.1414122606039045
1761414032400413400,9.795413330078125,6.863350230237841,1.2044371643155813,-1.1666134104210883
1761414032410426600,9.805426513671875,7.031973689496517,1.4833078817099332,-1.1727151613622904
1761414032420438500,9.8154384765625,6.949234616011381,1.72894414576143,-0.979936115816608
1761414032430451700,9.82545166015625,6.444964074647427,1.8472984302461146,-0.41198892883397636
1761414032440464600,9.835464599609375,5.646998756244778,1.9811685560315846,0.2398969532145187
1761414032450476500,9.8454765625,4.949077281871438,2.238417516465485,0.6602754881985485
1761414032460489700,9.85548974609375,4.81382359277308,2.1771485165104267,1.129862546455115
1761414032470502700,9.865502685546875,4.889866968011856,1.6176584844887256,1.6449045110717415
1761414032480514600,9.8755146484375,5.025384861004352,1.3613973660483956,1.1830223281040786
1761414032490527700,9.88552783203125,4.489519742459058,1.4646046425446868,0.2220584411198273
1761414032500540700,9.895540771484375,3.2113205918401477,0.80170070553869,0.3471167167551815
1761414032510552600,9.905552490234374,1.6303110453128813,-0.45142274827361106,1.5381484560526906
1761414032520565800,9.915565673828125,0.6507330222189426,-0.2143535292983055,0.8937249823067337
