time,seconds_elapsed,z,y,x
1761414077381553400,0.069553466796875,1.7413725424408912,0.22778876493275163,0.5425756125019863
1761414077391566600,0.079566650390625,1.8706664463520049,0.23162468983381984,0.4414034950951114
1761414077401579300,0.089579345703125,1.89822197727561,0.14954320347458122,0.45324901385270056
1761414077411591400,0.09959130859375,1.7616712341040373,0.10941256087720394,0.5469661025458946
1761414077421604400,0.109604248046875,1.5576134733706712,0.18724091983661054,0.804555072056502
1761414077431616500,0.119616455078125,1.5932377444595098,0.417670846927911,0.8322769725229591
1761414077441629400,0.12962939453125,1.729406794837117,0.5984687281049788,0.929641295144707
1761414077451642600,0.139642578125,2.018596661671996,0.48193610608950255,0.6812644271481781
1761414077461654500,0.149654541015625,2.5122335808187723,0.5252259433701634,0.3418035589084029
1761414077471667500,0.15966748046875,2.92919759465158,0.6031456338748336,0.1865142129972577
1761414077481679400,0.169679443359375,3.3840842196434733,0.40012773758321996,0.013718491288926452
1761414077491692500,0.179692626953125,3.84724650554955,0.2014269738383591,-0.07410763966953382
1761414077501704400,0.189704345703125,4.25044035270512,-0.016586539272218943,-0.32587994052432473
1761414077511717600,0.199717529296875,4.567598422917723,-0.20977803807631135,-0.705847737327963
1761414077521730300,0.209730224609375,4.913960375782847,-0.19657588054537772,-0.9964984704956412
1761414077531742500,0.219742431640625,5.188198757201433,0.007935323043912649,-1.0042895627632737
1761414077541755400,0.22975537109375,5.041869547337293,0.17466668494567275,-0.8223582205768674
1761414077551767600,0.239767578125,4.727749821907282,0.3259994021855295,-0.6873015884205699
1761414077561780500,0.249780517578125,4.879911391186714,0.6136341485328972,-0.7088540795370936
1761414077571792600,0.259792724609375,5.150694079193473,0.8052440772339701,-0.6577469195690006
1761414077581805600,0.2698056640625,5.415400662156939,0.7525723713628947,-0.4453875597625971
1761414077591818500,0.279818603515625,5.760377882665395,0.57695817643404,-0.07337620185613632
1761414077601830400,0.289830322265625,6.081228962177038,0.5083548880681396,0.07778875760138035
1761414077611843600,0.299843505859375,6.150207221335172,0.5733865284923464,0.2368352640889585
1761414077621855500,0.30985546875,5.600610514557362,0.5496473409865051,0.6399941129963844
1761414077631868700,0.31986865234375,5.022007493525743,0.8619908505242317,0.7136454785320907
1761414077641881300,0.32988134765625,3.802795369404554,0.24704167387001216,2.5235642453894016
1761414077651893500,0.3398935546875,1.082600590673089,-2.73287744243294,6.787488641306758
1761414077661906400,0.349906494140625,-2.8546698846727607,-4.2987507946267725,6.7462973837405436
1761414077671918300,0.35991845703125,-5.463415628263354,-3.5325942806780337,4.130191925036907
1761414077681931500,0.369931640625,-7.649924386054277,-3.595805939133465,3.7976194280713793
1761414077691943400,0.379943359375,-11.281726059937476,-4.951389065945148,5.861753852081298
1761414077701956600,0.38995654296875,-14.769676896768807,-5.053149066242575,6.46127457345724
1761414077711969300,0.39996923828125,-18.35401188607812,-3.524095332401991,6.40791824632287
1761414077721981400,0.4099814453125,-23.161855235397816,-0.9506003504127264,5.819771736398339
1761414077731994400,0.419994384765625,-28.055065668618678,1.6364909029915928,4.619746543306112
1761414077742006500,0.430006591796875,-31.102400397872923,3.3927091323867438,2.680824891373515
1761414077752019500,0.44001953125,-30.76096479549408,3.945104822233319,0.08626372221363708
1761414077762032400,0.450032470703125,-27.112252903342245,3.402100937849283,-2.348635256245732
1761414077772044500,0.46004443359375,-21.407705044448374,2.2657485909834505,-4.0240608700484035
1761414077782057500,0.470057373046875,-14.775942971426248,1.205198504076898,-4.5303632095009085
1761414077792069400,0.4800693359375,-8.710794206434487,0.1947454502478242,-4.084095359772443
1761414077802082600,0.49008251953125,-4.086726877319813,-0.5339654224038124,-3.2437235627949237
1761414077812094500,0.500094482421875,-0.9761725985646247,-1.0691884436532855,-2.373184883351624
1761414077822107600,0.510107666015625,0.9932540817469357,-1.4791504697695375,-1.83396285559386
1761414077832120300,0.520120361328125,2.025277746871114,-1.4794272408843039,-1.7015616333171724
1761414077842132500,0.530132568359375,2.344735910719633,-1.271796005578339,-1.7692421077497302
1761414077852145400,0.5401455078125,2.110319252079725,-1.060168394112587,-1.931412445346266
1761414077862157600,0.550157470703125,1.8878993207037449,-0.6752978468939661,-1.9250725748002528
1761414077872170500,0.56017041015625,2.0392302843779326,-0.20308950022310018,-1.790791822387278
1761414077882182700,0.5701826171875,2.6223347084820268,0.21434856086224316,-1.3712382304526864
1761414077892195600,0.580195556640625,3.80573083833456,0.5097513108626007,-0.992268504775688
1761414077902208500,0.59020849609375,5.240885806772113,0.7668696306541561,-0.6781359198641032
1761414077912220400,0.600220458984375,6.277225581529736,0.9533579785577952,-0.3801849466856569
1761414077922233600,0.610233642578125,6.7004451486259695,1.1890290211729704,-0.3070356123879552
1761414077932245500,0.62024560546875,6.611676731848716,1.4242407757133244,-0.4148297052178532
1761414077942258700,0.6302587890625,6.290481953465938,1.660017616790533,-0.5534560856197029
1761414077952270600,0.6402705078125,6.036512453094124,1.930266344051063,-0.541034337876737
1761414077962283300,0.650283203125,6.128076638069748,2.0465886843167245,-0.5952860064156353
1761414077972296400,0.66029638671875,6.619363194698095,1.8849578604243695,-0.8112562501955777
1761414077982308400,0.670308349609375,7.401334240633249,1.6861084819890557,-0.9832119956821203
1761414077992321500,0.680321533203125,8.278591122415662,1.465583132188022,-1.0341748518086968
1761414078002333400,0.69033349609375,8.970499035587906,1.194943067522347,-0.99568708104752
1761414078012346600,0.7003466796875,9.417694521555305,0.9542175179965794,-0.9101892103735357
1761414078022359600,0.710359619140625,9.52979062242806,0.7782511486291885,-0.7394028739925473
1761414078032371500,0.720371337890625,9.3988840226233,0.614005612193793,-0.6727018390513956
1761414078042384400,0.73038427734375,9.153664230418205,0.49993660381287336,-0.6756427878741175
1761414078052396500,0.740396484375,8.781336646169423,0.4707449961200356,-0.6006550591681152
1761414078062409500,0.750409423828125,8.529162797042726,0.5296526737712324,-0.43120340545699
1761414078072421600,0.760421630859375,8.453988021332025,0.6168126324385405,-0.12285612594857812
1761414078082434300,0.770434326171875,8.483141635102033,0.6791198894001543,0.1674200748182833
1761414078092447500,0.780447509765625,8.487780985340475,0.7092733278624713,0.35797771798744793
1761414078102459400,0.79045947265625,8.480446989190577,0.7108264025233686,0.4109739796377718
1761414078112472600,0.80047265625,8.519358611387014,0.7365854054190218,0.4222308483198285
1761414078122484500,0.810484375,8.59613030090034,0.7399382229782641,0.377166694843024
1761414078132497200,0.8204970703125,8.712724882236122,0.7141136075004935,0.32715310226529837
1761414078142510000,0.830510009765625,8.744753174659609,0.766744835230708,0.29497597595565017
1761414078152522000,0.84052197265625,8.548184308376907,0.8036752204820513,0.3837009189173579
1761414078162535200,0.85053515625,8.499084469643234,0.75571899882555,0.5578489868164063
1761414078172547000,0.860547119140625,8.767077819192409,0.5802903895966708,0.6595338760510087
1761414078182560300,0.870560302734375,9.118837831708788,0.341698929490149,0.7142639757566154
1761414078192572200,0.880572265625,9.24985198354125,0.1375930918313563,0.7683933330900967
1761414078202585300,0.89058544921875,8.722797363439202,-0.0006176935069262981,0.7439527923818677
1761414078212598000,0.900597900390625,7.241471010935306,-0.25753406098559495,0.387873674557358
1761414078222610200,0.910610107421875,4.621840885236859,-0.34055633532628415,-0.14257913661561905
1761414078232623000,0.920623046875,1.2460025158911943,-0.3285636997155845,-0.35213659074380993
1761414078242635000,0.930635009765625,-2.445490533366799,-0.06244608091041445,-0.3190154615823179
1761414078252648200,0.940648193359375,-6.325163390746712,0.11321093024685978,0.15358962932117282
1761414078262660000,0.95066015625,-9.394662021014094,-0.2291305349305272,0.985966116695851
1761414078272673000,0.960673095703125,-11.133035381639003,-0.990675317300111,1.3974468768119812
1761414078282686200,0.970686279296875,-12.418218984317779,-1.4356877601400018,0.9688401367846876
1761414078292698000,0.980697998046875,-14.346058685743808,-1.3112211302548646,0.0879465059351176
1761414078302711000,0.9907109375,-17.473797908055783,-0.8948537671409547,-1.1304654077190905
1761414078312723200,1.00072314453125,-21.651932318484782,0.03835632640123367,-2.607897602328658
1761414078322736000,1.010736083984375,-25.273809979724884,1.7758045350052416,-3.9285350879654284
1761414078332749000,1.0207490234375,-26.705184845101833,3.9150405233591794,-4.895003161856532
1761414078342761000,1.030760986328125,-26.4605904913187,5.629111801898479,-5.597804809486866
1761414078352774100,1.040774169921875,-25.958759744322297,6.853900264847278,-6.139481244659423
1761414078362786000,1.0507861328125,-25.2255892619133,7.294751934745907,-6.125248136645555
1761414078372799200,1.06079931640625,-22.99265485303402,6.756185156026482,-5.466830405142903
1761414078382811100,1.07081103515625,-19.092766890621185,5.761064695885777,-4.663457674738765
1761414078392824000,1.080823974609375,-14.85102130102515,4.534792131859064,-3.910494404362142
1761414078402837000,1.0908369140625,-10.79513730573654,2.9912504384607077,-3.086043814615905
1761414078412849200,1.10084912109375,-7.082438971364498,1.4934753477200864,-2.4298574954271315
1761414078422862000,1.110862060546875,-3.739927702081203,0.2561605806753039,-1.9297073949940502
1761414078432874200,1.120874267578125,-0.7162246083050966,-0.5874088432997465,-1.5672101537555456
1761414078442887200,1.13088720703125,2.0669740313500164,-1.2030401569992304,-1.5069861328087746
1761414078452899300,1.1408994140625,4.2414281942099334,-1.5699878017753361,-1.6428654064595698
1761414078462912000,1.150912109375,5.711720527002215,-1.789297784437239,-1.706649165714532
1761414078472925200,1.16092529296875,6.843370687526464,-1.8550141191899776,-1.644177950362861
1761414078482937000,1.17093701171875,7.707226820465922,-1.6421099119171498,-1.386760647624731
1761414078492950300,1.1809501953125,7.884501203691959,-1.2505822448968886,-0.9373952702723443
1761414078502962200,1.190962158203125,7.240427639362216,-0.7441048411384225,-0.5003343709588051
1761414078512975000,1.20097509765625,6.436933328405022,-0.1930842390373349,-0.047292570115998384
1761414078522987000,1.210987060546875,5.956507773008942,0.26558570388555525,0.24310652637816965
1761414078533000200,1.221000244140625,5.966605388653278,0.6390428766861558,0.4251583531390875
1761414078543013000,1.23101318359375,6.461330103036761,0.9511053773254156,0.6726091923318803
1761414078553025000,1.24102490234375,7.070746780005097,1.2138349611274897,0.7955333420153706
1761414078563038200,1.2510380859375,7.502661110210418,1.2461398785352706,0.5237514138381928
1761414078573050000,1.261050048828125,7.820984717071056,1.2746719994060693,0.12566555734612048
1761414078583063000,1.27106298828125,8.073730228605866,1.2953158512450753,-0.13462700856737791
1761414078593076200,1.281076171875,8.423208852186798,1.3837640961572526,-0.11039558056518435
1761414078603088100,1.291088134765625,8.727935895371436,1.4866663983575998,0.11318667258843779
1761414078613101000,1.30110107421875,8.897629029688238,1.584584628535062,0.3908319398410618
1761414078623113200,1.31111328125,9.073791067758203,1.6939496970087289,0.7742508269466459
1761414078633126100,1.321126220703125,9.253370805317163,1.7400372021839021,1.0759752542492003
1761414078643138000,1.331137939453125,9.291959771430491,1.719638995669037,1.212051950168237
1761414078653151000,1.34115087890625,9.053779376342892,1.6728690611876547,1.154691209698096
1761414078663164200,1.3511640625,8.739828577738999,1.7039423909738658,1.0489770649474113
1761414078673176000,1.361176025390625,8.719926191917061,1.6558714568965136,0.9018472062248736
1761414078683189200,1.371189208984375,8.951575139409304,1.5848694368258118,0.7456357770327479
1761414078693201200,1.381201171875,9.092696259236336,1.5832777837201952,0.6957795669738203
1761414078703214000,1.391214111328125,9.07114376811981,1.569105027591437,0.6682458825558424
1761414078713226000,1.40122607421875,9.018551411095261,1.566169266400486,0.6461489092990755
1761414078723239200,1.4112392578125,8.91513955193758,1.5468590012528,0.6170479755643755
1761414078733252000,1.421252197265625,8.752739497238396,1.5286602044783533,0.5246767850548029
1761414078743264300,1.43126416015625,8.50075094155073,1.505520590300858,0.4724081800919026
1761414078753277200,1.441277099609375,8.208550786983967,1.529974355816841,0.4897526250593364
1761414078763289000,1.4512890625,7.910896458664536,1.5250444981992244,0.47594059200175104
1761414078773302000,1.461302001953125,7.841323156222701,1.3793018560513852,0.3579298602577299
1761414078783314200,1.471314208984375,8.14897514694333,1.2591533816263079,0.25660839750804004
1761414078793327000,1.4813271484375,8.32980400778055,1.2059084059119223,0.20497443718686698
1761414078803340300,1.49134033203125,7.554855992349982,1.218115853317082,-0.1605550113543868
1761414078813352200,1.501352294921875,5.26815667553544,1.3819417030356824,-0.7664147995587438
1761414078823365000,1.511365234375,1.7425737349241972,1.2899617768660188,-0.7518948374275117
1761414078833377000,1.521376953125,-1.8818512727111576,0.7516546719960868,-0.125422103979066
1761414078843390200,1.53139013671875,-4.214870442152023,-0.4701416233994066,0.6459454226162284
1761414078853402000,1.541402099609375,-4.743242574593425,-2.128519802419841,1.2128582981150597
1761414078863415000,1.5514150390625,-3.9762013867646453,-3.2167008235737677,1.166203002989292
1761414078873428200,1.56142822265625,-4.305992728579044,-2.8996693023502824,-0.20424853406511245
1761414078883440000,1.571440185546875,-8.281061896443367,-1.5670613929346202,-1.8216421570725738
1761414078893453000,1.581453125,-15.55801104799509,-0.45906522585079074,-1.893590810343623
1761414078903465000,1.59146484375,-23.60507947964668,0.5418820407472551,-1.569840063867718
1761414078913478100,1.60147802734375,-29.25649196068048,1.5889894393652677,-1.4407900517150758
1761414078923490000,1.611489990234375,-29.98792992020845,2.5458663858294486,-1.3000998706512152
1761414078933503200,1.621503173828125,-27.524609715640544,2.7239316271722314,-1.4214163659423589
1761414078943516000,1.631515869140625,-25.118467442321776,1.6888529583916068,-1.7892358251169322
1761414078953528000,1.641528076171875,-22.51456270902157,0.45526554130688307,-2.4858158217534423
1761414078963541000,1.651541015625,-19.054087908136843,-0.5567331345289945,-2.8992814720764755
1761414078973553200,1.66155322265625,-15.179051478385924,-1.1935844925202428,-3.0759134657457468
1761414078983566000,1.671566162109375,-11.724632324278353,-1.557882353439927,-2.831146385744214
1761414078993579300,1.681579345703125,-8.95113090277314,-1.9485855523347853,-1.9797380848370492
1761414079003591200,1.691591064453125,-6.6028142109572885,-2.365102114661038,-0.9162447840854525
1761414079013604000,1.70160400390625,-4.27168421626389,-2.697440218348801,-0.0807439906777814
1761414079023616000,1.711615966796875,-1.8929940134942531,-3.00943929836303,0.32899938771910964
1761414079033629200,1.721629150390625,0.29123101727366446,-3.2310590192720294,0.33169198780395087
1761414079043641000,1.73164111328125,2.205474155023694,-3.316122444051504,0.0837832487758249
1761414079053654300,1.741654296875,3.741660224962234,-3.1345240601465103,-0.14031784062013028
1761414079063666200,1.751666259765625,4.805034721639752,-2.6075585796326397,-0.3533678130391985
1761414079073679000,1.76167919921875,5.604443224588036,-1.8473665270462631,-0.3185286279134452
1761414079083692000,1.771692138671875,6.443834193834662,-1.0552253847524524,-0.156219466368109
1761414079093704200,1.7817041015625,7.287929979771375,-0.40925884628295894,-0.0816918294545263
1761414079103717000,1.791717041015625,7.835317193806171,0.11529080526083707,0.019553645449504255
1761414079113729000,1.80172900390625,8.139980524104834,0.6042194005861878,0.01939421710409224
1761414079123742200,1.8117421875,8.429835576850175,1.0324956665500997,-0.015332301427423953
1761414079133755000,1.8217548828125,8.856956243038177,1.2972864206656813,-0.07207797873914241
1761414079143767800,1.831767822265625,9.3718609911412,1.5204472335368393,-0.19406068285405634
1761414079153781000,1.841781005859375,9.84257003916502,1.753501079390943,-0.26085326853618024
1761414079163793000,1.85179296875,10.018394223582744,1.969540808210522,-0.14138839246109128
1761414079173806000,1.86180615234375,10.111274751853943,2.030774736852199,0.13533055372685193
1761414079183818000,1.87181787109375,10.243891078186035,1.9495370078407226,0.4607270215831697
1761414079193831000,1.881830810546875,10.433524007725715,1.8948517701901495,0.7034794007614255
1761414079203843800,1.89184375,10.6925279951334,1.823716771389544,0.9418751921653747
1761414079213856000,1.90185595703125,10.877745446318388,1.676446189022064,0.9619785804521291
1761414079223869000,1.911868896484375,10.80735615131855,1.5225791309989989,0.9314638343967497
1761414079233880800,1.921880859375,10.587125838941335,1.379688225020468,0.9410971204649656
1761414079243893800,1.931893798828125,10.470651669114828,1.2215021347545088,0.7977780522022396
1761414079253905700,1.94190576171875,10.425347715532778,1.1892802194550633,0.7571343455161899
1761414079263918800,1.9519189453125,10.513629225575924,1.1653766351677477,0.7712539832182228
1761414079273932000,1.96193212890625,10.757325753736495,1.1641145062774418,0.8697015710320323
1761414079283944000,1.97194384765625,10.993921509981154,1.1103650881722569,0.9433571012862026
1761414079293956900,1.981956787109375,10.993285550165176,1.0680670384079218,0.8225460712991655
1761414079303969000,1.991968994140625,10.81380576584935,0.9965829339087009,0.4054598193261772
1761414079313981700,2.001981689453125,10.198104309523105,0.9388388932093977,0.0009198182586580514
1761414079323993900,2.011993896484375,9.003638504123687,0.8692088921442628,-0.0955790466401726
1761414079334006800,2.0220068359375,7.7962337221741675,0.8556175891652703,-0.02636230255104601
1761414079344019000,2.03201904296875,6.773370684105157,0.8462681615397334,0.034583602929487825
1761414079354031900,2.042031982421875,5.7335091649621726,0.7691007507070898,0.23490539200492203
1761414079364044800,2.052044921875,4.6446442531973124,0.5719719124540686,0.6226933610402047
1761414079374056700,2.062056640625,4.166065202450752,0.44694282638058064,0.809392502150312
1761414079384070000,2.07206982421875,3.940345060485601,0.470975590005517,0.6751832075383514
1761414079394081800,2.082081787109375,3.1663439705163237,0.478400552374497,0.4366313853224739
1761414079404095000,2.092094970703125,1.438961959505081,0.1250413610331714,-0.2053754922684282
1761414079414108000,2.10210791015625,-1.2539765635102986,-0.5707640710342675,-0.35413357324730604
1761414079424120000,2.1121201171875,-4.127254702541232,-0.4801278145585209,-0.09542480592653155
1761414079434132700,2.1221328125,-7.699787025853991,0.036772052884474396,-0.6702703010555356
1761414079444145000,2.132144775390625,-12.18145371672511,0.2722309871189296,-1.4704092371702193
1761414079454157800,2.14215771484375,-17.1250417535305,-0.007745755288563669,-1.8736654820375143
1761414079464170000,2.152169921875,-21.83559844857454,-0.023283516160212455,-2.2082164394691586
1761414079474183000,2.162182861328125,-25.875544870018956,1.6113079464182256,-2.7961075133278963
1761414079484195800,2.17219580078125,-30.18908962141275,4.656210187828541,-2.8632608951464293
1761414079494207700,2.182207763671875,-34.867210027754304,8.236902436721325,-3.500677339674532
1761414079504221000,2.192220947265625,-38.90004398684501,9.460043716984988,-4.259941756021976
1761414079514232800,2.20223291015625,-38.384498018229,8.8526249358356,-4.692098662811517
1761414079524246000,2.21224609375,-31.228598673856258,6.689006055244803,-4.0479301136747
1761414079534258000,2.2222578125,-21.933475469958783,5.011092131757736,-3.231488935121894
1761414079544270800,2.232270751953125,-14.922050062972307,3.849527309963107,-2.638370189742744
1761414079554283800,2.24228369140625,-9.773480136325954,2.5719150193214415,-1.6328858642369508
1761414079564295700,2.252295654296875,-5.924036412993073,1.3617419417023657,-0.85863474502936
1761414079574308900,2.262308837890625,-2.484817750626802,0.2690963423550129,-0.32260727552920576
1761414079584320800,2.27232080078125,0.7642185316234826,-0.6703979460231959,-0.21455928100347518
1761414079594334000,2.282333984375,3.9328514898598192,-1.4037224499501286,-0.7480040405340492
1761414079604345900,2.292345947265625,6.265142345026135,-1.8698291187450289,-1.5279339360304176
1761414079614358800,2.30235888671875,7.680369793200493,-1.8802923528313635,-1.6720312951892613
1761414079624371700,2.312371826171875,8.788701621979474,-1.3883388567268848,-0.7694150773532689
1761414079634384000,2.3223837890625,9.278784648036956,-0.3062313102677464,0.15473682659491897
1761414079644396800,2.332396728515625,9.06286576911807,0.3663333122700453,1.51672105262056
1761414079654409000,2.342408935546875,8.909774810034037,0.8509076579086482,2.9357109220683575
1761414079664422000,2.352421875,8.871406793195009,1.3213738370873034,3.9451109597131606
1761414079674434000,2.36243408203125,8.848807423374057,1.5688324942603706,4.084331214354932
1761414079684446700,2.37244677734375,8.849115466409922,1.6761219255037605,3.908839622892439
1761414079694460000,2.3824599609375,9.401789096415042,1.5824582840308545,3.684341423937678
1761414079704471800,2.392471923828125,10.339749160963295,1.2776238349489868,3.3914912810295816
1761414079714485000,2.402485107421875,11.215403868246078,0.9450611287251114,3.340540261471271
1761414079724497000,2.412496826171875,11.744293302559852,0.5726411900177598,3.2800685493737456
1761414079734509800,2.422509765625,11.65602582104206,0.23428718704134224,2.953084081673622
1761414079744522000,2.43252197265625,11.349682574832439,0.07274827921614051,2.6711633290588854
1761414079754535000,2.442534912109375,10.806930619382857,-0.08781666901037097,2.6205454869776963
1761414079764547800,2.4525478515625,9.999411290693283,-0.15347352866083383,2.46795341732651
1761414079774560000,2.46256005859375,9.237145062181353,-0.12875395181551574,2.503608375814557
1761414079784573000,2.472572998046875,8.792625517424941,0.0017618951059877872,2.680191269645095
1761414079794584800,2.482584716796875,8.429469081625342,0.07875657972022891,2.917795618410408
1761414079804597800,2.49259765625,8.133063292062282,0.11453078067377209,3.0312913569480178
1761414079814609700,2.502609619140625,7.9621420772552485,0.024439590860158202,2.818824664309621
1761414079824622800,2.512622802734375,7.793851795473694,0.00428593369089067,2.584260998414457
1761414079834636000,2.522635986328125,7.5989166678726665,0.03703406482152641,2.510777536791563
1761414079844648000,2.53264794921875,7.48704677697122,0.06833426216617226,2.3749808268576857
1761414079854660900,2.542660888671875,7.260683660927414,0.10784056232012808,2.153908218437433
1761414079864673000,2.552673095703125,6.794838419547677,0.2550175481200218,2.054179431706667
1761414079874685700,2.562685791015625,6.2449003519862885,0.2949370321847498,2.1818422272846103
1761414079884697900,2.57269775390625,5.988392857569456,0.2542559891629964,2.21979581810385
1761414079894710800,2.582710693359375,5.838919504460692,0.22767215281575917,2.2407047506198285
1761414079904724000,2.592723876953125,5.3337289256423706,0.18220877088829873,2.359655101301521
1761414079914735900,2.60273583984375,4.853797291243076,0.05187997097149491,2.4281277490250766
1761414079924748800,2.612748779296875,4.5741766322642565,-0.1563822557143867,2.227613213856518
1761414079934760700,2.6227607421875,4.134835951450467,-0.38726708696633577,1.8577482203289866
1761414079944774000,2.63277392578125,3.246237006920576,-0.5375660041790455,1.635358391830325
1761414079954785800,2.642785888671875,2.1860253581881524,-0.780850590537861,1.5230261441141366
1761414079964799000,2.652799072265625,1.6951251705288886,-1.2928154127314686,1.5187895294576883
1761414079974812000,2.66281201171875,1.7837591472715137,-2.0424442779883742,1.5911888491056858
1761414079984824000,2.672823974609375,1.3229770345002412,-2.4257173268824817,1.6140091682009399
1761414079994836700,2.682836669921875,0.15090017104148865,-2.1165525935113427,1.0520895709447562
1761414080004849000,2.692848876953125,-2.563863230291009,-0.8878709955815225,-0.23619108443390577
1761414080014861800,2.70286181640625,-7.703813212630152,0.0928433197996579,-1.018371571868658
1761414080024874000,2.7128740234375,-13.093227200615406,0.289418287029583,-1.5939571447752414
1761414080034887000,2.722886962890625,-16.844608024603126,-0.14313253271467982,-2.37336930000782
1761414080044898800,2.73289892578125,-18.407262999272344,-0.21184545546751468,-3.0828797976270317
1761414080054911700,2.742911865234375,-18.623724314504862,0.6543088348791003,-3.3008231681108473
1761414080064925000,2.752925048828125,-19.87445736604929,1.8781652776747941,-3.4638089137434958
1761414080074936800,2.762936767578125,-22.84691717932224,3.2429981711298224,-3.4734099780425427
1761414080084950000,2.772949951171875,-26.137459776437282,4.417891261053085,-2.767241776588559
1761414080094962000,2.7829619140625,-28.08499552745819,5.045303028917313,-1.9965356365114448
1761414080104975000,2.79297509765625,-27.699267194366453,5.436111441752314,-2.3654963746756312
1761414080114987800,2.80298779296875,-24.66199793205261,5.378830634650588,-2.969035976304114
1761414080124999400,2.81299951171875,-19.852509738135335,4.5018817959040405,-3.3223400033921
1761414080135012600,2.8230126953125,-14.236699316358566,3.1723259675353765,-3.498071833351254
1761414080145024500,2.8330244140625,-8.929408900308609,1.6098688535258172,-3.3514497780203816
1761414080155037700,2.84303759765625,-4.966467392611503,0.31067528406456113,-2.6752731024652716
1761414080165049600,2.853049560546875,-2.40596983936131,-0.41075186131969094,-1.7740628059044479
1761414080175062800,2.863062744140625,-0.7601444140523672,-0.6605082740411162,-0.8404018998548388
1761414080185075500,2.873075439453125,0.5177490316182375,-0.7686870553396642,0.13595730732306838
1761414080195087600,2.883087646484375,1.6275030021548271,-0.7645793277598917,0.593745060583949
1761414080205100500,2.8931005859375,2.119769801992178,-0.7123238014742732,0.1622892878010869
1761414080215112700,2.90311279296875,1.9686621256798504,-0.7908129624299705,-0.6839705443017184
1761414080225125600,2.913125732421875,2.3033511764079333,-0.670407006112486,-1.0093553217202424
1761414080235137800,2.9231376953125,3.5900533669561145,-0.6284685834407806,-0.9240028508663177
1761414080245150500,2.933150390625,5.585178552147746,-0.5306726644687354,-0.40528395130261774
1761414080255162600,2.94316259765625,7.6143275874942535,-0.23990400400981304,0.3471579255484044
1761414080265175600,2.953175537109375,9.308781726893782,0.24788681945726274,1.1267109505563975
1761414080275188700,2.963188720703125,10.632980412143468,0.7152768060609698,1.7609316677831113
1761414080285200600,2.97320068359375,11.4132411470294,1.1286458641417323,2.313406852606684
1761414080295213800,2.9832138671875,11.4929500590384,1.4345572948053478,2.6408120299369093
1761414080305225700,2.993225830078125,11.081244404125213,1.5939648896902798,2.7235323987215754
1761414080315238700,3.00323876953125,10.299110861104726,1.6256543055482209,2.694296367365122
1761414080325250600,3.01325048828125,9.196188197892903,1.6430517228119075,2.4130840552806854
1761414080335263700,3.023263671875,8.50810130431354,1.6709188039027154,2.257105265800655
1761414080345276700,3.033276611328125,8.931153698149323,1.6223543872199953,2.208948260875046
1761414080355288600,3.04328857421875,9.86450130046606,1.4668613354302942,2.2026345476835965
1761414080365301500,3.053301513671875,10.621008234798907,1.2632273530669509,2.0607132173895835
1761414080375313400,3.0633134765625,11.100731194883585,1.046446596621722,1.8938477077141402
1761414080385326600,3.07332666015625,11.256016449141502,0.8856191980667412,1.7072633520901201
1761414080395338500,3.08333837890625,11.112530353748797,0.7879138799875974,1.5521955399751661
1761414080405351700,3.0933515625,10.763812777668237,0.7725161121085286,1.5642521807327865
1761414080415364600,3.103364501953125,10.37365026152134,0.7671713900797069,1.6967200385048984
1761414080425376800,3.113376708984375,10.044952560162544,0.8083329831600189,1.773424069609493
1761414080435389400,3.123389404296875,9.86798972710371,0.7867915979593991,1.8695692987650632
1761414080445401600,3.133401611328125,9.913968218946456,0.6586334200799465,1.8637427845686674
1761414080455414500,3.14341455078125,10.068459692478179,0.46626960427165026,1.5395296812780201
1761414080465426700,3.1534267578125,10.097716182100772,0.2913051054231822,0.9334497475169599
1761414080475439600,3.163439697265625,9.327225730600953,0.2296138614680618,0.06771664172448218
1761414080485452500,3.17345263671875,7.4479393399417395,0.2947286501310766,-0.8506725339785218
1761414080495464400,3.18346435546875,4.764550735560059,0.6003175708420574,-1.1698713162384926
1761414080505477600,3.1934775390625,1.826545565074682,0.9557049070101231,-0.4697044010259211
1761414080515489500,3.203489501953125,-0.2932464487493038,0.9411698934402316,0.1536859293024987
1761414080525502700,3.213502685546875,-1.5688503221780061,1.0796022856399417,0.9818601426817476
1761414080535514600,3.2235146484375,-3.210046334120631,1.1208896970570086,1.8647458241313695
1761414080545527800,3.23352783203125,-5.5760757927596565,0.7309485685758292,2.035148275761306
1761414080555540500,3.24354052734375,-6.921746305105089,-0.4764658579848706,1.4275712353102863
1761414080565552600,3.253552734375,-7.2248378560423845,-1.8632693218380212,0.27647578508183357
1761414080575565600,3.263565673828125,-7.840182169494033,-2.564276779527962,-1.1132397668257354
1761414080585577700,3.27357763671875,-9.654321841982007,-2.447621261785179,-2.2558587728708983
1761414080595590700,3.283590576171875,-13.42405373069644,-1.890407211871445,-2.9698408629462123
1761414080605602600,3.2936025390625,-17.966940321683882,-1.1881138060241936,-3.6034932787656784
1761414080615615500,3.303615478515625,-20.620903509616852,-0.47258141776695844,-4.285419019366801
1761414080625628700,3.313628662109375,-20.50303583960533,0.27451515253335235,-4.963884974902868
1761414080635640600,3.323640625,-19.25961866403222,0.3944157896772027,-5.124222251853347
1761414080645653800,3.33365380859375,-18.706656280213593,-0.030664310593903062,-5.266021417072415
1761414080655665700,3.343665771484375,-19.01247228767872,-0.6602830869831144,-5.395277911582589
1761414080665678600,3.3536787109375,-19.81454854853153,-0.723023766925931,-5.276478513678908
1761414080675690800,3.363690673828125,-20.057438436484336,-0.29767054880186916,-4.503412366472184
1761414080685703400,3.373703369140625,-18.64488985213041,0.021943243999779222,-3.309244959497452
1761414080695716600,3.383716552734375,-16.032390308964253,0.13467808116748928,-2.5319179399758576
1761414080705728500,3.393728515625,-13.104188155090808,-0.13945844731181858,-2.1389679850675165
1761414080715741700,3.40374169921875,-9.710995915362238,-0.7984709298372268,-1.8936334804415702
1761414080725753600,3.413753662109375,-5.763749989446997,-1.5672794195994735,-1.5553784077949822
1761414080735766500,3.4237666015625,-1.7537538851082324,-2.1531234978005287,-0.871049989966303
1761414080745778700,3.43377880859375,1.49511931553483,-2.2770403848484158,0.2722347499785945
1761414080755791600,3.44379150390625,3.9069507404059167,-1.9432658186167477,1.2144650026593358
1761414080765803500,3.453803466796875,5.660248113918304,-1.420194715192914,1.4521629479922353
1761414080775816700,3.463816650390625,6.933446679770946,-0.8211755135983229,1.6064672283887862
1761414080785829600,3.47382958984375,7.990606539717316,-0.24452450341731308,1.3391548468410968
1761414080795841800,3.483841796875,8.600074654611944,-0.02086772372275591,0.31432646351587024
1761414080805854500,3.4938544921875,9.125769092276691,0.27905221144109965,-0.21439678391814232
1761414080815866600,3.50386669921875,9.767431503811478,0.7198337387129664,-0.15533092003054916
1761414080825879600,3.513879638671875,10.173372019326687,1.0202771132290362,0.011964551160531118
1761414080835891700,3.5238916015625,10.522231049704551,1.3724164804518222,0.11093483854103833
1761414080845904600,3.533904541015625,10.829656830453873,1.673550175319612,0.3104275198485702
1761414080855917600,3.54391748046875,10.85129232367873,1.977846425871551,0.6745174371059983
1761414080865929700,3.5539296875,10.503958895432948,2.2518699954956767,0.8923329434264451
1761414080875942700,3.563942626953125,10.048380196523667,2.344517591793835,0.9259303117975592
1761414080885954600,3.57395458984375,9.93695980295539,2.3256746518969535,0.7741039658218621
1761414080895967700,3.5839677734375,9.977026440405846,2.3422781423039734,0.8330267679769545
1761414080905979600,3.593979736328125,10.14527872826457,2.4073199387960136,0.9972915205694735
1761414080915992600,3.60399267578125,10.257152710819243,2.4719226132184264,1.2228715964768082
1761414080926005500,3.614005615234375,10.047232195532322,2.5293030813023445,1.4793331328600645
1761414080936017400,3.624017333984375,9.693000239944457,2.5719524287223816,1.6978107563510536
1761414080946030600,3.634030517578125,9.233584154829382,2.5182418813228606,1.7955920622758565
1761414080956042500,3.64404248046875,8.661135564774275,2.3964237201198935,1.8494398261889815
1761414080966055700,3.6540556640625,8.486201022672653,2.2620886071711777,1.9788810296162962
1761414080976067600,3.664067626953125,8.749817472311854,2.037573895473033,1.9945691587440668
1761414080986080800,3.674080810546875,9.09736892722249,1.7529009215407072,1.740693181874603
1761414080996092700,3.6840927734375,9.322048035702108,1.4232000344887374,1.4271921728648245
1761414081006105600,3.694105712890625,9.450482107913494,1.075504933323711,1.241847734299302
1761414081016118500,3.704118408203125,9.489788866907357,0.6603367168664932,1.1549266989544034
1761414081026130700,3.714130615234375,9.470634084582327,0.28966683669686316,1.1824351758658884
1761414081036143600,3.7241435546875,9.62244260264039,0.07163432662487029,1.2768098882175982
1761414081046155800,3.73415576171875,9.95782606537342,-0.05661357536464929,1.18079150031209
1761414081056168400,3.74416845703125,10.290054278945922,-0.26359467619881033,0.8788184320107102
1761414081066180600,3.7541806640625,10.297823743903637,-0.3878760126449167,0.5001423189854249
1761414081076193500,3.764193603515625,9.608110710427164,-0.33693113056644797,0.1648661890843883
1761414081086206700,3.774206787109375,8.613178466334938,-0.33207448431551456,-0.25898829664820805
1761414081096218600,3.784218505859375,7.256659227716923,-0.6057224986255169,-1.4294611407101154
1761414081106231800,3.794231689453125,4.883915366131067,-1.5119285576470196,-3.552131340318918
1761414081116243700,3.80424365234375,1.3294412620782852,-3.795310858868062,-6.502742894399166
1761414081126257000,3.8142568359375,-2.8659090715676543,-6.255702901029586,-9.285648104065656
1761414081136269000,3.82426904296875,-7.019896298211813,-6.767557613912224,-10.5677220502913
1761414081146282000,3.834281982421875,-11.856238596785067,-4.938461779832839,-9.874088628500699
1761414081156295200,3.844295166015625,-16.347715318530796,-1.8839798091724513,-8.235619411173463
1761414081166307000,3.85430712890625,-21.068663643729685,0.19217169076967983,-6.494160359492898
1761414081176320000,3.864320068359375,-26.99881357116699,1.402413559308648,-5.0888633537024255
1761414081186332000,3.874331787109375,-31.805519440889356,3.6925171316087244,-4.758723636841774
1761414081196345000,3.884344970703125,-34.483864205884935,6.576839811745286,-4.6724654493197795
1761414081206357000,3.89435693359375,-35.100747565472126,8.217130983802676,-4.014599798741936
1761414081216370200,3.9043701171875,-33.61220178310871,8.059097307619451,-2.7453946864396332
1761414081226382800,3.9143828125,-30.121352886748312,7.1140791412532325,-1.484436593478918
1761414081236395000,3.92439501953125,-25.923421888959407,6.188440213617682,-0.9822400819100439
1761414081246408000,3.934407958984375,-21.258242797255516,5.338751722240447,-0.7045139314409345
1761414081256420000,3.944420166015625,-16.848060210883617,4.5078439191788435,-0.33915070631206035
1761414081266433000,3.95443310546875,-13.090472933471203,3.569634556044638,0.13230046531595288
1761414081276445200,3.964445068359375,-9.631239072558284,2.6623358794808385,0.46849984754174945
1761414081286458000,3.9744580078125,-6.3389949322223655,1.9189786418393253,0.6439695924986153
1761414081296471000,3.984470947265625,-3.2080250574260947,1.3165610299780963,0.8018314192462712
1761414081306483000,3.99448291015625,-0.2919289364099502,0.9351011679857969,0.920243352202326
1761414081316496100,4.00449609375,2.3752310022264718,0.8701039412878453,1.0436403070293365
1761414081326508000,4.014508056640625,4.96768553622961,0.9768141113385558,1.3796446781396865
1761414081336521200,4.024521240234375,7.269112466576695,1.3351917884290219,1.8904503203608094
1761414081346533000,4.034533203125,9.051908321774006,1.6366376179859041,2.2485452349871395
1761414081356546000,4.044546142578125,10.556028105366229,1.9264307114109396,2.419342385023087
1761414081366559000,4.05455908203125,11.836657113480568,2.1475442363634705,2.527394617332518
1761414081376571000,4.06457080078125,13.047849597275256,2.149250163498521,2.5966110691606996
1761414081386584000,4.074583984375,14.146408220058678,2.0578990367516874,2.549461487711966
1761414081396596000,4.084595947265625,14.922310759735106,1.9471718861445784,2.3039361366890367
1761414081406609200,4.094609130859375,15.30364115012884,1.7931264028146863,1.7710770680919288
1761414081416621000,4.10462109375,15.180601630437373,1.7339225186958909,1.2339568349190055
1761414081426634000,4.114634033203125,14.792512997955082,1.8482196367442607,1.1634484435841441
1761414081436646000,4.12464599609375,14.561324069190025,2.0377382922545073,1.4172183297306298
1761414081446659000,4.1346591796875,14.545211138778924,2.2525869115933776,1.8446426550403237
1761414081456672000,4.144672119140625,14.76637201000452,2.455259647709131,2.1339687154754996
1761414081466684200,4.15468408203125,14.798270538568495,2.478615681116283,2.190012820389122
1761414081476697000,4.164697021484375,14.330858778524398,2.411227321498096,2.1098190474726257
1761414081486709000,4.174708984375,13.290879770481586,2.392714928729832,1.987101599342376
1761414081496722000,4.184721923828125,12.093470312845707,2.5144310908630487,2.121920696415752
1761414081506734000,4.194734130859375,11.35141392866969,2.645531751935184,2.376411882574111
1761414081516747000,4.2047470703125,10.971536659693717,2.6884464722931383,2.4729317902609704
1761414081526760200,4.21476025390625,10.667784014499187,2.620441442081332,2.3498536921247837
1761414081536772000,4.224772216796875,10.461673412889242,2.482158760550618,2.140674788985401
1761414081546785000,4.234784912109375,10.038083258914947,2.4093002989582715,2.116458485487103
1761414081556797000,4.244796875,9.35115839485228,2.3880842001892626,2.162469856686145
1761414081566810000,4.25481005859375,8.63954975591004,2.244043101262301,2.0511028007403014
1761414081576822000,4.264822021484375,8.164702877429127,1.97097084101364,1.873023530872166
1761414081586835200,4.274835205078125,8.333118831416964,1.7183974711753427,1.7750635073795913
1761414081596848000,4.28484814453125,8.832018785658478,1.4811412051953374,1.5559000935815275
1761414081606860000,4.294860107421875,9.301178850674628,1.0194064678743482,1.0707647530592976
1761414081616873000,4.304873046875,9.442609767103194,0.46869390880912537,0.4780757043343037
1761414081626884900,4.314884765625,8.934911589378117,0.08856237281113863,0.1624505793100223
1761414081636898000,4.32489794921875,8.008954097312689,-0.12770393130593002,0.7319082073882222
1761414081646910000,4.334909912109375,7.201600188317895,-0.3109470867432654,1.828914047771692
1761414081656923100,4.344923095703125,6.511672050786018,-0.5809114441044628,2.057944629459083
1761414081666935000,4.35493505859375,5.016611187440157,-1.3065915707580744,1.158204405450821
1761414081676948000,4.364947998046875,2.3461954618781804,-2.4907573698088523,0.20455979197137056
1761414081686961000,4.3749609375,-0.3746761932015419,-3.573928161585331,-0.8965585252322256
1761414081696973000,4.38497314453125,-2.746495341157913,-3.117963678228855,-2.7002386168956756
1761414081706986000,4.394986083984375,-7.533824894759059,-0.7097196833904832,-4.291109047701955
1761414081716998100,4.404998046875,-17.382424277216195,2.8093285216897725,-4.7924297993496054
1761414081727011000,4.415010986328125,-30.638028151655195,6.438660590589046,-3.8712107339829203
1761414081737023200,4.425023193359375,-41.913090662050244,9.309768399843573,-3.2310788930162784
1761414081747036000,4.435035888671875,-47.232791646862026,12.052985157722235,-4.6879336520865555
1761414081757049000,4.445049072265625,-45.691276490855216,13.96061326124668,-5.904054532194137
1761414081767061000,4.45506103515625,-40.506010864496226,13.309418466734886,-5.229911408293247
1761414081777074200,4.46507421875,-35.06566923782825,12.128102065765857,-4.934269588840007
1761414081787086000,4.475086181640625,-30.11177608010769,10.545345383310318,-5.356843843770027
1761414081797099000,4.48509912109375,-24.167076233792304,8.382104103860259,-5.828118708983063
1761414081807111000,4.49511083984375,-17.118118676269052,5.992435995480418,-5.752284592580795
1761414081817124000,4.5051240234375,-10.138321748733519,3.687560093723237,-5.137787835869193
1761414081827137000,4.515136962890625,-4.205286036726832,1.818989596737176,-4.091061691653728
1761414081837149200,4.525149169921875,0.08746084131002425,0.661800578873977,-2.862925671842694
1761414081847162000,4.535162109375,2.3500299254745243,0.08606436371663585,-1.3777635405682027
1761414081857174000,4.545174072265625,2.9165169767767187,-0.10373941061161458,-0.1509776201918721
1761414081867187000,4.55518701171875,2.4166321031510827,-0.014392390228807925,0.47842371405437584
1761414081877198800,4.56519873046875,2.065533184891939,0.13963088126927614,0.6789604610547423
1761414081887212000,4.5752119140625,2.4244378084659575,0.015567827216349542,0.37716618338637053
1761414081897225200,4.58522509765625,3.466100824072957,-0.145534333159402,-0.0739674457475543
1761414081907237000,4.595237060546875,4.897209731990099,-0.2128203649142757,-0.2281348749566823
1761414081917249800,4.605249755859375,6.235123638859391,-0.2776128993529826,-0.26609189984202386
1761414081927262000,4.615261962890625,7.283000706675648,-0.385531203084439,-0.32339469957984984
1761414081937275000,4.62527490234375,8.166680314981937,-0.5042656459931284,-0.23448448144542053
1761414081947287000,4.635287109375,8.807318644165992,-0.501046903142333,-0.09398034273926169
1761414081957300000,4.645300048828125,9.18508111294508,-0.4229365123711526,0.10536187898060306
1761414081967312100,4.65531201171875,9.498497074019909,-0.24750731862038372,0.3406417851200327
1761414081977325000,4.665324951171875,10.020400302708149,-0.09596724224016069,0.5535730265302583
1761414081987338000,4.675337890625,10.593870052504538,0.004974135150760412,0.6596265958357602
1761414081997350000,4.685349853515625,10.979956112992763,0.05761464216597378,0.5975931873794644
1761414082007363000,4.695363037109375,11.130919412398338,0.056429012577980754,0.44075080334004013
1761414082017375000,4.705375,11.082633228135109,0.004507978943735361,0.36986956010479477
1761414082027388200,4.71538818359375,10.946795017147064,-0.014538520701229572,0.3721306003719568
1761414082037400000,4.725400146484375,10.789200901424884,0.03317410145774483,0.5172811949107796
1761414082047413000,4.7354130859375,10.630968487799167,0.04470511090606451,0.738949796462804
1761414082057426000,4.745426025390625,10.382067376732826,0.14805048069879412,0.9084165746778249
1761414082067438000,4.75543798828125,10.00544121850729,0.2823573904663324,1.215110753216967
1761414082077451000,4.765450927734375,9.446043248683214,0.29712723570540545,1.3378870188623666
1761414082087463200,4.775463134765625,8.74810716126263,0.31676015693619847,1.2172492265503854
1761414082097476000,4.78547607421875,8.170327147051692,0.42227921750620007,1.0042809410654008
1761414082107488000,4.795488037109375,7.881401484110951,0.5423493659980595,0.9122636054947971
1761414082117501000,4.8055009765625,7.780844429862499,0.5369261719055474,0.84594331349954
1761414082127512600,4.8155126953125,7.804758973935246,0.4957143099427223,0.602690072127059
1761414082137525500,4.825525390625,7.812466479572653,0.467306107712537,0.3650655573565513
1761414082147538400,4.835538330078125,7.684491841566563,0.4883404201738536,0.21822974967714398
1761414082157550600,4.845550537109375,7.389466108185053,0.49914808378368614,0.10818904696423559
1761414082167563500,4.8555634765625,7.027649981078505,0.5537585026323795,0.1668853468870744
1761414082177575700,4.86557568359375,6.830741507577896,0.6949519570432603,0.3342966173443943
1761414082187588400,4.87558837890625,6.45329351157546,0.873334886033088,0.6729201579771935
1761414082197600500,4.8856005859375,5.756520038193464,0.9531665476389228,1.0672995611667633
1761414082207613400,4.895613525390625,5.126644510564208,0.7921320822045207,1.052892850151658
1761414082217626600,4.905626708984375,4.602805345377326,0.13450652399286628,0.8757279186494648
1761414082227638500,4.915638427734375,3.5543723972439762,-1.5544788286067543,0.7314654320567846
1761414082237651700,4.925651611328125,2.402604746842384,-3.726630998134613,-0.28138394232429564
1761414082247663600,4.93566357421875,1.4906699349105357,-4.367170543119311,-2.2439038389220833
1761414082257676500,4.945676513671875,0.6439356171637773,-2.842024922633171,-4.093892238904536
1761414082267688400,4.9556884765625,-3.0378251426309344,-0.7526013051964342,-4.113910067799687
1761414082277701400,4.965701416015625,-10.887919634330272,0.18561112667769192,-2.8208853962317106
1761414082287714600,4.975714599609375,-17.69351734830141,0.8804976172693073,-2.3159926313161847
1761414082297726500,4.9857265625,-20.706290467262267,2.492957217940688,-2.2898685945004225
1761414082307739400,4.995739501953125,-20.64846956193447,3.277159968450665,-2.3284815260112284
1761414082317751300,5.005751220703125,-20.642998437047005,2.774571973346174,-2.541678578750789
1761414082327764500,5.015764404296875,-21.349086851263046,2.455806175675988,-3.232525584693253
1761414082337776400,5.0257763671875,-21.840403218507767,2.5258754449412226,-3.796495100216567
1761414082347789600,5.03578955078125,-21.305626479721067,2.39884510204792,-3.5965272391453382
1761414082357802500,5.045802490234375,-19.598948818564413,1.9801003422781824,-2.8769387073650954
1761414082367814700,5.055814697265625,-16.657220828163624,1.0168461158670485,-1.8371468924574552
1761414082377827300,5.065827392578125,-12.867344561564922,-0.09315298853702843,-1.1348388004977255
1761414082387839500,5.075839599609375,-9.292249694287776,-0.9986083022564649,-1.0971288091760127
1761414082397852400,5.085852294921875,-6.320450975272059,-1.837508565376699,-1.0221909109611063
1761414082407864600,5.095864501953125,-4.042471556007862,-2.5250270114183424,-0.5852836678393185
1761414082417877500,5.10587744140625,-2.4758149444818494,-2.8509479415401815,-0.12551584667712448
1761414082427889700,5.1158896484375,-1.633321917566657,-2.818435957252979,0.09279394596628844
1761414082437902300,5.12590234375,-1.2109312025099992,-2.350183654731512,0.041185120086371894
1761414082447915500,5.13591552734375,-0.9341881447941064,-1.759266657180339,0.12874737594425678
1761414082457927400,5.145927490234375,-0.5324439119249582,-1.3637421756088732,0.4163442014340311
1761414082467940600,5.155940673828125,0.24300503876507282,-1.1289973079279065,0.6635589668486267
1761414082477952500,5.165952392578125,1.5467331829160451,-0.9199079827681184,0.8525618548564612
1761414082487965700,5.175965576171875,3.3360867891937493,-0.7939719379175454,1.241141339595616
1761414082497977600,5.1859775390625,5.272049591320752,-0.6351751684073358,1.9106557807825504
1761414082507990500,5.195990478515625,6.683546620795131,-0.3533498389910906,2.3816088666953146
1761414082518003500,5.20600341796875,7.374508777549862,0.09148169432394206,2.7621453302323817
1761414082528015400,5.216015380859375,7.623014751818776,0.42694947433955965,3.1689298953562974
1761414082538028500,5.226028564453125,7.574787604266405,0.48067573076486586,3.4631887360185383
1761414082548040400,5.23604052734375,7.4052733336478465,0.4822445875167846,3.6947102577388287
1761414082558053400,5.246053466796875,7.235152329307794,0.37493922805190083,4.00521179267168
1761414082568065300,5.256065185546875,7.610839160856604,0.6863412189558148,4.300096071755886
1761414082578078500,5.266078369140625,8.221213284680246,1.3846668902158736,4.405418148449063
1761414082588090400,5.27609033203125,8.335355212166904,1.6949805013611912,4.292829880145192
1761414082598103600,5.286103515625,8.478978085681796,1.8356836880370972,3.998276440450549
1761414082608116500,5.296116455078125,8.621711901402472,1.9691222905375063,3.5365041475981474
1761414082618128600,5.306128662109375,8.904412406218052,2.259204868428409,4.045322853785753
1761414082628141300,5.316141357421875,9.256206905525922,2.2590878179199994,5.0760412815302605
1761414082638153500,5.326153564453125,9.539237080687284,2.214003352307528,5.1747494930416345
1761414082648166400,5.33616650390625,9.996645333111285,2.318163253353536,4.882900343869626
1761414082658178600,5.346178466796875,10.356834735798834,2.3388035980612036,4.589241514927148
1761414082668191500,5.35619140625,10.463437499952315,2.3308406563580033,4.278884941422939
1761414082678204400,5.366204345703125,10.24624787044525,2.466220894445479,3.910810630704462
1761414082688216300,5.37621630859375,10.015413161945343,2.487643329441547,3.522690726301074
1761414082698229500,5.3862294921875,10.046932920324801,2.311652556285262,3.070544339928031
1761414082708241400,5.396241455078125,10.315856244200468,2.102207695686072,2.5964137930229305
1761414082718254600,5.406254638671875,10.560714801877737,1.9438257905870675,2.282471469986439
1761414082728266500,5.4162666015625,10.53545527293682,1.6860861240267753,2.2951702080398797
1761414082738279700,5.42627978515625,10.109308420217037,1.0677508120656012,2.4377288133241235
1761414082748291600,5.43629150390625,8.923798074689508,-0.2536673025548458,2.7863445364654065
1761414082758304500,5.446304443359375,7.745591914695501,-1.4157837668828666,3.1036557514131067
1761414082768317400,5.4563173828125,7.331144852119683,-1.3174743454307316,2.494279406455159
1761414082778329300,5.466329345703125,6.552509672608971,-0.4782498187921941,1.0052027320854364
1761414082788342500,5.476342529296875,3.6062931386172767,0.3122368342928588,-1.8222125043064354
1761414082798354400,5.4863544921875,-3.2098236312806603,0.5665570477984845,-4.807042554330826
1761414082808367600,5.49636767578125,-12.917039443582295,0.14061528919674454,-5.695711056965589
1761414082818379500,5.506379638671875,-21.140608935999868,0.10017214658409357,-4.953256028860807
1761414082828392400,5.516392333984375,-26.295135725224018,2.5780437313348052,-4.563483973336219
1761414082838405600,5.526405517578125,-28.048694380021093,3.602424772751331,-3.578451776489615
1761414082848417500,5.53641748046875,-27.993295733404157,4.405268803106248,-3.1099080898061393
1761414082858430500,5.546430419921875,-27.925734355306624,6.096082832437753,-3.223910901083052
1761414082868442600,5.556442626953125,-27.736244049108027,7.03855189884305,-3.533447682636976
1761414082878455300,5.566455322265625,-27.081932583880423,6.709389502581954,-3.7685587532818317
1761414082888467500,5.576467529296875,-25.31770055937767,5.882748124793172,-3.924793563349545
1761414082898480400,5.58648046875,-21.399498357117174,5.231246456289291,-3.980729970104992
1761414082908493600,5.59649365234375,-15.739320385825634,4.254441405040025,-3.842298527753353
1761414082918505500,5.60650537109375,-9.660627664127945,3.0022835813894866,-3.658772682917118
1761414082928518700,5.6165185546875,-4.143078879138827,1.7768436687946318,-3.0820933234244583
1761414082938530600,5.626530517578125,-0.20180735145807266,0.5099180457316339,-2.3194446714662016
1761414082948543500,5.63654345703125,1.6485861221939324,-0.3758893683835864,-1.6769665596343577
1761414082958555400,5.646555419921875,1.9361340670406817,-0.7795973025411367,-1.521720029951632
1761414082968568600,5.656568603515625,1.6492039618313312,-1.129793572872132,-1.598465854371339
1761414082978580500,5.66658056640625,1.563842723149061,-1.3943711226284503,-1.6449590177379547
1761414082988593700,5.67659375,1.611337464773655,-1.476748669324815,-1.5726524909399449
1761414082998606300,5.6866064453125,1.7199223426550625,-1.4692746801823378,-1.3267059918954969
1761414083008618500,5.696618408203125,2.1781635387718676,-1.3986791950859128,-0.8477776162546128
1761414083018631400,5.70663134765625,3.1089643792152404,-1.4544189102254808,-0.17577070066481829
1761414083028643600,5.7166435546875,4.412050133809447,-1.5089543641418217,0.46887240718118844
1761414083038656500,5.726656494140625,5.78983661686182,-1.4808438296839594,0.8846097287632524
1761414083048668400,5.73666845703125,7.155832124355435,-1.4005087486006318,1.1300867836650461
1761414083058681600,5.746681640625,8.403564240518211,-1.4594113116852938,1.1268503590270875
1761414083068694500,5.756694580078125,9.52063233346045,-1.6058742309316991,1.0378277482930571
1761414083078706400,5.76670654296875,10.50121398063898,-1.8004864101886748,1.0355128954794257
1761414083088719600,5.7767197265625,11.219175203478336,-2.0253348838858307,0.8053846547484398
1761414083098731500,5.7867314453125,11.614541133487224,-2.203899745313823,0.4142880726218223
1761414083108744400,5.796744384765625,11.911936518609522,-2.2492226958572865,0.12588095366246999
1761414083118756600,5.806756591796875,12.201153273451327,-2.228658046734333,0.11446304919980466
1761414083128769300,5.816769287109375,12.426846527409554,-2.2714567394971845,0.28148477235026653
1761414083138781200,5.82678125,12.472890485703944,-2.2147546090662478,0.38629831499941647
1761414083148794000,5.836794189453125,12.339714187401533,-2.1020348233371973,0.453371836514771
1761414083158807000,5.84680712890625,12.110094115388392,-2.0622294671714303,0.49021702770069236
1761414083168819200,5.856819091796875,11.807792253524065,-2.066567350245267,0.4796458031952381
1761414083178832100,5.86683203125,11.537193689912558,-2.023506791675836,0.4488949833616614
1761414083188844300,5.87684423828125,11.291496927845477,-2.012557966029644,0.3597860095184296
1761414083198857000,5.88685693359375,10.87884084033966,-2.0480435593001545,0.27877544032633306
1761414083208869000,5.896869140625,10.402547854703664,-2.0154124786779284,0.3624897155191749
1761414083218882000,5.906882080078125,10.014903458857535,-1.9014454693667588,0.5464782824963331
1761414083228895200,5.916895263671875,9.657247958561777,-1.5974597460687159,0.8457221450295299
1761414083238907100,5.9269072265625,9.30326500929892,-1.5294006475821136,1.1616855255648493
1761414083248920300,5.93692041015625,9.108122960948943,-1.7675239056549965,1.1457478055901824
1761414083258932200,5.94693212890625,9.005919308537244,-1.8142466399937867,0.9578365852765739
1761414083268945200,5.956945068359375,8.380619418260455,-1.7427423694893718,1.1356011631723493
1761414083278957000,5.96695703125,7.262638302126526,-2.3913965396076438,1.9966300367966292
1761414083288970200,5.97697021484375,6.422023928564786,-3.2673341554850337,3.0537673926502467
1761414083298982100,5.986982177734375,6.610897564169764,-2.9370214201450344,4.67905622588694
1761414083308995300,5.996995361328125,7.031462232843041,-0.8355487607352435,5.1268227897405625
1761414083319008000,6.007008056640625,3.453652845910191,2.217824956422299,3.658710723596811
1761414083329020200,6.017020263671875,-6.923911374184489,4.711431139791012,1.4737890888668597
1761414083339033000,6.027033203125,-22.56588139284849,5.997361176922917,-0.9963557010240852
1761414083349045200,6.037045166015625,-35.72454231188297,6.150917999953031,-3.781594468204677
1761414083359058200,6.04705810546875,-38.94043912559747,6.870487827032804,-6.967728304079174
1761414083369070000,6.057070068359375,-36.39352527654171,7.3449115116655825,-6.781694860336184
1761414083379083300,6.067083251953125,-34.55376834771633,8.425963119331001,-3.435529452459514
1761414083389096200,6.07709619140625,-36.18028701500892,10.47944989259839,-1.5726732414670288
1761414083399108000,6.087108154296875,-37.76211547670364,10.678504145956039,-1.13695440441221
1761414083409121300,6.097121337890625,-35.99903379127979,10.225132601702212,-2.7292338252335786
1761414083419133200,6.10713330078125,-31.350555659008023,9.209300192922353,-4.514074338001013
1761414083429146000,6.11714599609375,-26.22672562134266,8.03858643451035,-5.701292071968317
1761414083439158300,6.127158203125,-20.649019012510774,6.792879686695337,-6.03519669432044
1761414083449171000,6.1371708984375,-14.3574112698853,5.382526566559076,-5.743607365128398
1761414083459183000,6.14718310546875,-7.893453156432509,4.112610967899859,-4.9949417919456955
1761414083469196000,6.157196044921875,-2.1669494863182304,2.7890876976937053,-4.130226996350288
1761414083479209200,6.167209228515625,2.148324865347147,1.5896709918886422,-3.027342911583185
1761414083489221000,6.17722119140625,5.153931161418557,0.920080124464631,-1.876858286729455
1761414083499234300,6.187234375,7.272621936002373,0.56295668521896,-0.8772523517377674
1761414083509246200,6.19724609375,9.140025581166148,0.5355559064656495,-0.25557927365601063
1761414083519259100,6.207259033203125,11.148829163098334,0.8079640037171543,-0.23599165287166832
1761414083529271000,6.21727099609375,12.848104439043999,1.1022856804825365,-0.522742967448011
1761414083539284200,6.2272841796875,13.829680357956885,1.3846478932544588,-0.7511734643504023
1761414083549297200,6.237297119140625,14.385541970348358,1.798300006060302,-0.7532295931626111
1761414083559309300,6.247309326171875,14.954099398183821,2.2844316641435025,-0.39449630756750703
1761414083569322000,6.257322021484375,15.728486857122181,2.6770710917979477,-0.06801686678007245
1761414083579334100,6.267334228515625,16.646293775957822,2.839484590500593,0.12690204033851624
1761414083589347000,6.27734716796875,17.534062114882467,2.948139318747818,0.3818504687450826
1761414083599359200,6.287359130859375,17.889186050873995,3.167800306804478,0.7123613570056855
1761414083609372200,6.2973720703125,17.54235414240956,3.3150568606466053,1.0604035180427134
1761414083619384000,6.307384033203125,16.367732855165002,3.454365378093719,1.2692924983248113
1761414083629397200,6.317397216796875,14.918703090631961,3.588730593919754,1.2759253604680298
1761414083639410200,6.32741015625,13.632468517595528,3.528527761891484,1.0606753207214177
1761414083649422000,6.337422119140625,12.438928594869374,3.3865585008025167,0.8750633172608911
1761414083659435300,6.347435302734375,11.291527322983741,3.2163433884382244,0.8206206561945378
1761414083669447200,6.357447265625,10.247290657496452,2.961306843356788,0.8194755778126418
1761414083679460000,6.367460205078125,9.491992514431477,2.645821967053413,0.8963853606224059
1761414083689472300,6.37747216796875,9.199566149893403,2.2505251567579805,0.8132027811534702
1761414083699485200,6.387485107421875,9.277894421198964,1.7690750806197524,0.5801203667920083
1761414083709497000,6.3974970703125,9.448301841264962,1.3178539923980832,0.3306116452213377
1761414083719510000,6.407510009765625,9.42048093740344,0.9814945242397487,0.08211955334730446
1761414083729523200,6.417523193359375,9.085524175649882,0.7284181002501398,-0.270180119003728
1761414083739535000,6.42753515625,8.339493042623996,0.5136961760308594,-0.5516488900672644
1761414083749548300,6.43754833984375,7.647906031969189,0.4111964632820338,-0.5367762055082246
1761414083759560200,6.447560302734375,7.295457452666759,0.5172253000050783,-0.5740534679684788
1761414083769573000,6.457572998046875,6.75833444301486,0.7524928033206612,-0.444735635192506
1761414083779585000,6.4675849609375,5.715250454694032,0.877067131363973,-0.04870977997016161
1761414083789598200,6.47759814453125,4.382740452694892,0.851121739050746,0.04770805558171123
1761414083799611100,6.487611083984375,2.905125229668617,0.6322307855185121,-0.11483272276241331
1761414083809623300,6.497623291015625,1.5396031849056482,-0.4533722749061882,-0.19057664013057946
1761414083819636200,6.50763623046875,0.8292892619490623,-2.3511782187268135,-0.5420671515231952
1761414083829648400,6.5176484375,1.0916899060577154,-4.022469216942787,-0.35672212843578305
1761414083839661000,6.5276611328125,1.3223703007787466,-3.775293029972911,-0.3966101579163223
1761414083849673200,6.537673095703125,-1.7106348743498325,-1.4901771829575299,-0.8582230954885482
1761414083859686100,6.54768603515625,-8.385112638026476,0.05433355640238151,-0.3189908020650968
1761414083869699300,6.55769921875,-16.16546022428274,0.6237711463395506,0.15368074167072773
1761414083879711200,6.567711181640625,-21.98054818677902,0.6445058182671666,-0.3938580461965874
1761414083889724200,6.57772412109375,-23.016645969474315,0.000038806773582473396,-2.2370069190151987
1761414083899736000,6.587736083984375,-20.131981344032287,-0.7291315822817385,-3.875601954679191
1761414083909749200,6.597749267578125,-17.675827377831936,-0.8048107273180037,-4.526723683954775
1761414083919761200,6.60776123046875,-17.780753733205795,-0.13931993389027192,-4.058518727706373
1761414083929774000,6.617774169921875,-19.152306290304658,0.5848628851439803,-3.294577551719546
1761414083939786200,6.6277861328125,-19.7889044041872,0.8066190919142215,-3.0331217872455714
1761414083949799200,6.637799072265625,-19.1018398393929,1.4686910350754856,-3.9405122337460514
1761414083959812000,6.64781201171875,-17.587309720945356,1.5839800867706537,-4.933205174478888
1761414083969824000,6.657823974609375,-15.458742864513397,1.204415244744718,-5.380394815227389
1761414083979837200,6.667837158203125,-12.720117526078223,0.7576621687825769,-5.564459004724025
1761414083989849000,6.67784912109375,-9.563421089351177,0.12160722186602652,-5.138882645368576
1761414083999862300,6.6878623046875,-6.597941636484861,-0.4424870160154998,-3.8945869333952663
1761414084009874200,6.697874267578125,-4.339564158791303,-0.9428156878858804,-2.44019666474238
1761414084019887000,6.70788720703125,-2.957879499256611,-1.093591063503921,-1.2039929276794195
1761414084029900000,6.717900146484375,-2.4534797785550353,-0.6725877111524343,-0.3781474495086819
1761414084039912200,6.727912109375,-2.082487826824188,-0.171556297840178,0.2793281788382679
1761414084049925000,6.737925048828125,-1.5422428857594728,-0.03080708006545901,0.7139000378150493
1761414084059937300,6.747937255859375,-0.35585108122229575,0.11469400841146707,0.8670905848160385
1761414084069950200,6.7579501953125,1.234499709624052,0.17534370742440222,1.1825495960257946
1761414084079962400,6.76796240234375,2.65627263391912,0.22161182986348865,1.536776144786179
1761414084089975000,6.77797509765625,3.4943133576005696,0.39144992560893294,1.8311160878606139
1761414084099987200,6.7879873046875,3.6651854725688695,0.6576102145120502,2.062542917034775
1761414084110000000,6.798000244140625,4.075956476980448,0.9401175348430871,2.220120666144043
1761414084120013300,6.808013427734375,5.333435495653748,1.1831633440099656,2.3336864011779426
1761414084130025500,6.818025390625,6.751142485684156,1.494200593254715,2.298102023708075
1761414084140038400,6.828038330078125,8.276347727403044,1.608319578257203,2.3336342325992883
1761414084150050300,6.83805029296875,9.86893899065256,1.5391095561698078,2.224843603012711
1761414084160063500,6.8480634765625,11.080145502972602,1.4221201302975415,1.982702925992012
1761414084170075400,6.858075439453125,11.816872216558457,1.403717043122649,1.8809774124860763
1761414084180088600,6.868088623046875,12.192137607824801,1.3962331171080469,1.9077553831659255
1761414084190100500,6.8781005859375,12.496201218664645,1.3708162056483328,1.89302280119732
1761414084200113400,6.888113525390625,12.794478062796593,1.3490683380901813,1.7721582874573767
1761414084210126300,6.898126220703125,12.860004135674238,1.4184946332767605,1.6970114226669073
1761414084220138200,6.90813818359375,12.673072866308688,1.4275588142201303,1.7738763434216378
1761414084230151400,6.9181513671875,12.380033338308333,1.3680315433658659,1.9588672923743724
1761414084240163300,6.928163330078125,12.054153032457828,1.2294947409436106,2.1135428903013467
1761414084250176500,6.938176513671875,11.584473327481746,0.7610297455195337,2.4623031364798544
1761414084260188400,6.9481884765625,11.17433419123292,0.4569494027405977,2.6340017654001713
1761414084270201300,6.958201416015625,10.447531490290164,0.4240621554002166,2.6213790151923893
1761414084280214300,6.96821435546875,9.119830349877477,0.3813265179362148,2.516169751223922
1761414084290226400,6.978226318359375,7.559438059443235,0.405068116594851,1.8183868085384367
1761414084300239400,6.9882392578125,6.121486153763533,0.407551311712712,0.9642813044365495
1761414084310251500,6.99825146484375,4.8638580820083614,0.5980092208344489,0.5468212507151067
1761414084320264400,7.008264404296875,3.454496895518899,0.8531023184087126,0.6175009069636463
1761414084330276600,7.018276611328125,1.9260259300023317,1.289805563391,0.8963885754927993
1761414084340289300,7.028289306640625,0.8303384787410497,1.4519967976450918,0.9364394308522344
1761414084350301400,7.038301513671875,0.2382119592696428,1.1149362685453146,0.1062441599741578
1761414084360314400,7.048314453125,-0.6344388900220393,0.2994398965619504,-1.2410134754322468
1761414084370327600,7.05832763671875,-1.342522861969471,-1.9736608107499778,-1.9118695404864847
1761414084380339500,7.06833935546875,-1.1005448281645773,-4.018808064086735,-1.399218854920566
1761414084390352400,7.078352294921875,0.03079728932380676,-4.343581577739119,-0.227166102989763
1761414084400364300,7.0883642578125,-0.06282090557217597,-3.612790683943033,0.5787130572773516
1761414084410377500,7.09837744140625,-3.181311822545528,-2.682937938004732,0.7749987227044999
1761414084420389400,7.108389404296875,-7.753667669123411,-1.2558119622439146,0.5603137694947421
1761414084430402600,7.118402587890625,-11.383337007153033,-0.7410377086527645,0.6939639689192175
1761414084440414500,7.12841455078125,-12.703299662268162,-1.6619361637629568,0.22657222874984143
1761414084450427400,7.138427490234375,-13.340716106796265,-2.131747824555635,-0.278085412235558
1761414084460440300,7.1484404296875,-13.768635229885577,-1.265319210779667,-0.3870762405693531
1761414084470452200,7.1584521484375,-13.66189568760991,-0.13249920275844632,-0.11286737750619649
1761414084480465400,7.16846533203125,-14.224796112596987,0.21298421370647846,0.028073125056922433
1761414084490477300,7.178477294921875,-15.466054064309596,0.6842210119314491,0.03777005094587803
1761414084500490500,7.188490478515625,-16.548504432857037,1.5228548792004584,-0.2198865404408425
1761414084510502400,7.19850244140625,-16.83604477891922,1.6776434359826147,-1.0071416642587632
1761414084520515300,7.208515380859375,-15.90258904005289,1.2895533421956002,-2.006891610831022
1761414084530528300,7.2185283203125,-14.162719887912273,0.8477437870502471,-2.748873176205158
1761414084540540400,7.22854052734375,-11.980098785209655,0.36216464828327294,-2.9927704876348376
1761414084550553300,7.23855322265625,-9.516374091494082,0.03590747194439173,-2.8515985144034026
1761414084560565500,7.2485654296875,-7.076230179852247,-0.34096535451859233,-2.5011416934400796
1761414084570578400,7.258578369140625,-4.9624949818491935,-0.7589337230883538,-2.0485690444789824
1761414084580590600,7.268590576171875,-3.1784301296293735,-0.9410431252554059,-1.496774243135005
1761414084590603300,7.278603271484375,-1.9230378541022537,-0.9664921854190528,-0.8462808018255978
1761414084600615400,7.288615478515625,-1.0364590172231196,-0.8419799628265201,-0.22506745021007954
1761414084610628400,7.29862841796875,-0.28541911612451076,-0.6015564649872481,0.25785810530819
1761414084620641500,7.3086416015625,0.51890053974092,-0.2547016140386462,0.44811998040117323
1761414084630653400,7.3186533203125,1.355087159988284,0.14024433699250222,0.3080706545241177
1761414084640666400,7.328666259765625,2.1131196964532135,0.4791454524576664,0.12362690939167514
1761414084650678300,7.33867822265625,2.8963141467034816,0.7369745508670806,0.04623376351175829
1761414084660691500,7.34869140625,3.578179973810911,0.9478520746178924,-0.003237812877446413
1761414084670703400,7.358703369140625,4.230977527344226,1.1455120971381663,0.005966927314084023
1761414084680716500,7.368716552734375,4.929747727501392,1.2905252559676765,0.0802096098064445
1761414084690728400,7.378728515625,5.595274414226412,1.4915131077364085,0.16921724216705186
1761414084700741400,7.388741455078125,6.2617386740624905,1.651287197846174,0.35253907059747724
1761414084710754300,7.39875439453125,6.932537748232483,1.6670438621655106,0.5306196556398645
1761414084720766200,7.40876611328125,7.538628495648503,1.8167399181142447,0.6491632886841893
1761414084730779400,7.418779296875,8.046535347688197,2.1310124960184096,0.8474634357389063
1761414084740791300,7.428791259765625,8.27387753789723,2.399057575754821,1.0373048203974962
1761414084750804500,7.438804443359375,8.35660608998835,2.6545646609574556,1.1719139279820023
1761414084760816400,7.44881640625,8.436744041064381,2.890086065968871,1.2931450830772517
1761414084770829300,7.458829345703125,8.477306353077292,3.0947432539001105,1.3642552396975456
1761414084780841500,7.468841552734375,8.46380682003498,3.3425691369503734,1.439968360068649
1761414084790854400,7.4788544921875,8.365797112181783,3.4146494537770744,1.4575857036933302
1761414084800867300,7.488867431640625,8.351490938931702,3.230071469539404,1.4614115455918013
1761414084810879500,7.49887939453125,8.415344110161065,3.085592271456122,1.474188463447988
1761414084820892400,7.508892333984375,8.582611478635668,3.1055025483235714,1.6772070903919636
1761414084830904600,7.518904541015625,8.875742192050813,3.182097127704322,1.9968528857670724
1761414084840917200,7.528917236328125,9.129657916408776,3.244470581769943,2.3959580023042855
1761414084850929400,7.538929443359375,9.251822991353272,3.3029902830168605,2.7417127830564976
1761414084860942300,7.5489423828125,9.331864496317506,3.3954458638742566,3.0014725572675465
1761414084870955500,7.55895556640625,9.446127419835328,3.442891797921061,3.2659877093121406
1761414084880967400,7.568967529296875,9.261512026196717,3.2436879069596527,3.258573925924301
1761414084890980600,7.578980712890625,8.615292097488044,2.9899954699635503,2.759628671236336
1761414084900992500,7.588992431640625,7.96903943555355,2.576946583747864,1.9599074490770696
1761414084911005400,7.59900537109375,7.364020701283216,1.442928817309439,1.3739678015470504
1761414084921017300,7.609017333984375,6.862258927869797,-0.1821773528367281,1.6144924216732381
1761414084931030500,7.619030517578125,6.603387626931071,-1.1618149971634149,2.6979592737868425
1761414084941042400,7.62904248046875,6.212116857281327,-0.7564294851824641,3.410224623072147
1761414084951055600,7.6390556640625,5.133776262140274,0.5728618470311164,3.005761486633122
1761414084961068300,7.649068359375,2.6825305262476205,0.6997897524632513,1.6905160692982375
1761414084971080200,7.659080078125,-1.1279133120834828,-0.87945746056661,0.5691288710478692
1761414084981093400,7.66909326171875,-5.847927571302652,-2.4977134725570678,-0.26633518881229684
1761414084991105300,7.679105224609375,-10.201155513787269,-2.8293548261523247,-1.6434798850961028
1761414085001118500,7.689118408203125,-13.060807278525829,-2.425638854818791,-3.085670889650285
1761414085011130400,7.69913037109375,-14.054903656315803,-1.5609759355410933,-3.703073596936464
1761414085021143600,7.7091435546875,-14.14601308326125,-0.6642784402295947,-3.3233456733033058
1761414085031155500,7.719155517578125,-15.187144768470525,0.020595994109287856,-2.5399489784792064
1761414085041168400,7.72916845703125,-17.05221500225067,0.4794384440548718,-2.0686947176627815
1761414085051181300,7.739181396484375,-17.769550786668063,1.0870119043093174,-2.416554215609282
1761414085061193500,7.749193359375,-17.206028430390358,1.6745950081974268,-3.0463161998614665
1761414085071206400,7.759206298828125,-16.054281822776794,1.6326796741403637,-3.0510686550855635
1761414085081218600,7.769218505859375,-14.566914436542987,1.3860864016249774,-2.7400863508984443
1761414085091231200,7.779231201171875,-12.994880223631858,0.9738023623019456,-2.2987089035600423
1761414085101243400,7.789243408203125,-11.318473782098293,0.44669403925128276,-1.7812674765862524
1761414085111256300,7.79925634765625,-9.340704805377126,-0.0893109261561185,-1.4863944495484231
1761414085121268500,7.8092685546875,-7.288535544449091,-0.523924797643721,-1.3054105442799626
1761414085131281700,7.81928173828125,-5.7273179091066115,-0.7432008780360222,-1.2170016084648667
1761414085141294600,7.829294677734375,-4.621635718053579,-0.8412057635836303,-1.1619983178410678
1761414085151306800,7.839306640625,-3.682327161505818,-0.913037804737687,-0.8364556464470922
1761414085161319700,7.849319580078125,-2.7802771992504596,-0.8040552327755838,-0.5519091484386474
1761414085171331600,7.85933154296875,-1.980964557892084,-0.774861506190896,-0.32145803242884574
1761414085181344500,7.869344482421875,-1.2079086398184298,-0.6255617560833692,-0.3079910134166479
1761414085191356700,7.879356689453125,-0.5458715487748385,-0.6649634268190712,-0.46592459022626276
1761414085201369600,7.88936962890625,0.17123977923691272,-0.7768288607411086,-0.6145125388026237
1761414085211381800,7.8993818359375,1.2543635170012712,-0.711492319086194,-0.6755578130044043
1761414085221394400,7.90939453125,2.454896075093746,-0.4803901187565177,-0.49803310827910896
1761414085231407600,7.91940771484375,3.543199845844507,-0.3140682509711012,0.008869827415049075
1761414085241419500,7.92941943359375,4.501474968668818,-0.43478604971673335,0.5933277119547128
1761414085251432700,7.9394326171875,5.304036967211961,-0.44672078112773594,1.035477312709391
1761414085261444600,7.949444580078125,5.874946511131525,-0.31769783964511006,1.2428722550414502
1761414085271457800,7.959457763671875,6.2180667055964465,-0.08489935679156332,1.3325636318825185
1761414085281469700,7.9694697265625,6.379991543999314,0.11051588247660547,1.3398235398828982
1761414085291482600,7.979482666015625,6.427523110502958,0.11462043171860277,1.2621386810474098
1761414085301494500,7.98949462890625,6.521676142928004,0.13987199654877186,1.1401534927144645
1761414085311507700,7.9995078125,6.719789900565147,0.18189334826357662,0.9606266543865203
1761414085321520600,8.009520751953126,7.023074343726038,0.24596805328913032,0.771073512084782
1761414085331532800,8.01953271484375,7.4012377945214505,0.3609868366755545,0.7066907640233635
1761414085341545500,8.02954541015625,7.804670711129903,0.47320049951337273,0.7297286713920533
1761414085351557600,8.0395576171875,8.227543656745553,0.4838050417665392,0.7192741320688277
1761414085361570600,8.049570556640624,8.478982761856914,0.4183891512650996,0.7918201667111366
1761414085371582500,8.05958251953125,8.685478563392161,0.4626625927556306,1.012233799766004
1761414085381595600,8.069595703125,8.89753258357644,0.594790989440307,0.9027150020353496
1761414085391607600,8.079607666015624,9.006185850518941,0.7039476758603006,0.7909347621787339
1761414085401620700,8.089620849609375,8.940441166454553,0.7148622339107096,0.9242846634823828
1761414085411633700,8.099633544921875,8.776432507514953,0.5510184832092374,1.2028783905662594
1761414085421645600,8.1096455078125,8.518995623293518,0.304702785526216,1.4758556660078466
1761414085431658500,8.119658447265625,8.039719237932562,0.02643602537438273,1.730922313966602
1761414085441670700,8.129670654296875,7.41144120862782,-0.15396357720009982,1.518961378893256
1761414085451683600,8.13968359375,6.866864375838637,0.016802227849513292,0.7700845010474324
1761414085461695700,8.14969580078125,6.077753395020961,0.16278372025452553,0.12392328025605528
1761414085471708400,8.15970849609375,4.764833059632778,-0.46931963949203487,0.12239762332504614
1761414085481720600,8.169720458984376,2.9164205306649205,-1.9213439096659422,0.8583068282492459
1761414085491733500,8.1797333984375,1.5528846912831067,-3.206192581301927,1.8653408674150704
1761414085501746700,8.18974658203125,1.3996633838176726,-3.1412957462385296,2.1872835415557024
1761414085511758600,8.199758544921876,1.6339268977224826,-1.583972195725143,0.7979724787957966
1761414085521771800,8.209771728515625,0.6013853462040424,-0.26543197462856766,-1.237526656229794
1761414085531783700,8.21978369140625,-2.7102234198153017,-0.6935178325869142,-2.0812221908025443
1761414085541796600,8.229796630859376,-6.975426457366347,-0.8792998588521033,-2.8254122260063883
1761414085551808500,8.23980859375,-9.596469372472166,0.19832937314920127,-3.421295467662811
1761414085561821700,8.24982177734375,-9.6642744961977,0.6447443031981587,-2.3075978740669787
1761414085571833600,8.25983349609375,-7.9978627944558855,-0.12312865927964448,-0.06423233413952402
1761414085581846800,8.2698466796875,-5.784004257446528,-0.8208768959779292,1.8138586635895073
1761414085591859500,8.279859375,-4.776412438267469,-1.849487172462046,3.1114667174249884
1761414085601871600,8.28987158203125,-5.713741219174862,-2.4029386549718676,3.072437314067781
1761414085611884500,8.299884521484374,-7.753886864832043,-1.8358483770795166,1.5973438646040856
1761414085621896400,8.309896484375,-10.490665698617697,-1.3630997860521077,0.6266039586126804
1761414085631909600,8.31990966796875,-13.282633335661888,-0.7300585609335452,-0.5200689624657854
1761414085641921500,8.329921630859374,-15.312488473451136,0.5438466188184916,-2.666869431257248
1761414085651934700,8.339934814453125,-16.54937186334133,1.4980597529008983,-4.655850706866383
1761414085661946600,8.349946533203125,-16.86021359001398,1.8220181507781148,-5.337053101629018
1761414085671959600,8.35995947265625,-15.885611017245052,1.7489790719218552,-4.264674922023714
1761414085681972500,8.369972412109375,-13.576000195920466,1.3361784613788128,-2.7405624439775944
1761414085691984600,8.379984619140625,-10.591134490060806,1.1437979866966606,-1.4162496308289467
1761414085701997600,8.38999755859375,-8.369262742465734,1.0115415797181426,-0.05135083253085613
1761414085712009700,8.400009765625,-6.5241866644442075,0.5219571508325636,1.184765372379124
1761414085722022700,8.410022705078125,-4.606517643898726,0.11417992140948771,1.8544582388728856
1761414085732034600,8.42003466796875,-3.214063753068447,-0.010782675299048423,1.9192489832133053
1761414085742047500,8.430047607421875,-2.240848250743747,0.1058762034446001,1.3201574470348656
1761414085752059600,8.4400595703125,-1.3713012126863002,-0.04180208294093608,0.5450863897465169
1761414085762072600,8.450072509765626,-0.5430576603978872,-0.23810002332776783,0.12966127591878174
1761414085772085800,8.460085693359375,0.4104816660761833,-0.34500440077632666,-0.14479673959985376
1761414085782097700,8.47009765625,1.4138772026091813,-0.44546763926148414,-0.29765111344903705
1761414085792110600,8.480110595703126,2.251403547027707,-0.3133053403072059,-0.2766026263318956
1761414085802122500,8.49012255859375,2.8764626142859457,-0.014819894925877451,0.012418898198753595
1761414085812135700,8.5001357421875,3.412060606327653,0.33901765451692045,0.3710110948227346
1761414085822147600,8.510147705078126,3.951942559298873,0.5344258064571767,0.6695091804899275
1761414085832160800,8.520160888671874,4.568231460124254,0.5591654762424528,0.8486120943173766
1761414085842173700,8.530173583984375,5.1941602959543465,0.5125711905889213,0.8741700216829776
1761414085852185600,8.540185546875,5.645554987177253,0.4692248008154332,0.8075980930142104
1761414085862198500,8.550198486328124,6.0165381710797545,0.43090749125033617,0.6882900880012661
1761414085872210400,8.56021044921875,6.419280767336487,0.3817263309087604,0.5842996983032673
1761414085882223600,8.5702236328125,6.872168327465653,0.2760344710551202,0.5207417106281965
1761414085892235500,8.580235595703124,7.274947748601436,0.21594496320821344,0.50231363514252
1761414085902248700,8.590248779296875,7.6914780471920965,0.21866664325706658,0.457519969170168
1761414085912260600,8.600260498046875,8.067800838556884,0.24853717312477527,0.4853395213248208
1761414085922273500,8.6102734375,8.279056986361741,0.25943032306097447,0.5357395924694835
1761414085932285400,8.620285400390625,8.405108547350764,0.3073566610358655,0.5991704831661656
1761414085942298600,8.630298583984375,8.4626892141819,0.404808881136775,0.6584361439421773
1761414085952311600,8.6403115234375,8.395914018025994,0.5425634471401571,0.7014683531999587
1761414085962323700,8.65032373046875,8.314746723902225,0.5947941312454641,0.7317491443689912
1761414085972336600,8.660336669921875,8.286549387943744,0.47806189500465984,0.6835397516690194
1761414085982348800,8.670348876953126,8.29903477550745,0.33427725505679845,0.5944133882995695
1761414085992361500,8.680361572265625,8.166193408247828,0.2585489371165633,0.5969578486179933
1761414086002373600,8.69037353515625,7.665331214022636,0.17629691649600862,0.6026458311265334
1761414086012386600,8.700386474609376,7.016088138100504,0.20640300868526099,0.6031430765915662
1761414086022398700,8.710398681640624,6.380479035255313,0.2727966581776738,0.5671299157829955
1761414086032411600,8.72041162109375,5.623087719303369,0.2551566643297672,0.5466883085178211
1761414086042424600,8.730424560546876,4.535940132850408,0.0323651231624186,0.5136450303655118
1761414086052436500,8.7404365234375,2.8711089782983064,-0.4752935993351042,0.5379832066778093
1761414086062449700,8.75044970703125,0.5566881263434886,-1.1673894362948833,0.48710269507244225
1761414086072461600,8.760461669921876,-1.579853946751356,-1.234243981297314,-0.3772342436539009
1761414086082474800,8.770474853515625,-3.017607699510455,-0.6898232158526778,-1.5217451643928885
1761414086092486700,8.780486572265625,-3.9751621068447824,-0.6860849061071872,-1.6566322121359407
1761414086102499800,8.790499755859376,-4.25741720598042,-0.859460966720432,-1.6294373312182724
1761414086112511700,8.80051171875,-4.303815969061851,-0.2963495293311775,-2.473247724342346
1761414086122524400,8.8105244140625,-5.3888084233075375,0.07937894940227269,-2.7834423852831125
1761414086132537600,8.82053759765625,-7.278202951005101,-0.5961822246029973,-1.4377842940278351
1761414086142549500,8.830549560546874,-8.226921140933037,-1.3174777064315975,-0.017442352383956312
1761414086152562700,8.840562744140625,-8.095950828242302,-1.2427034743458032,0.03295538067314774
1761414086162574600,8.85057470703125,-8.386966741460562,-1.1090066593006254,-0.3812841766318306
1761414086172587500,8.86058740234375,-8.892599803349375,-1.0105530070722102,-0.8127679699327797
1761414086182599400,8.870599365234375,-9.877385331958532,-0.900227130742371,-1.3220438453033565
1761414086192612600,8.880612548828125,-10.908463240665197,-0.7666998270452022,-1.8830615252837537
1761414086202624500,8.89062451171875,-11.223913337916136,-0.619307079602778,-2.4537112492233515
1761414086212637400,8.900637451171875,-10.983573134446143,-0.553871315357089,-2.9032559286653994
1761414086222650600,8.910650634765625,-10.296259563326835,-0.39389848780483006,-3.116559364388883
1761414086232662500,8.92066259765625,-9.416866838559507,-0.24586408145800231,-2.7737141874730584
1761414086242675500,8.930675537109375,-8.525956109955906,-0.11558292007520794,-1.8478769607864318
1761414086252687400,8.940687255859375,-7.532952788099646,0.20193492336049676,-0.83386738351956
1761414086262700500,8.950700439453126,-6.466866109853982,0.507842846892774,0.19237236444093286
1761414086272712400,8.96071240234375,-5.39301931900084,0.6744514591977,1.2472675673909484
1761414086282725600,8.9707255859375,-4.384210525247455,0.9349247885055839,1.9541076767571268
1761414086292737500,8.980737548828126,-3.4388714563637968,1.1497656629294157,2.2420862681061027
1761414086302750500,8.99075048828125,-2.5730530834406613,1.1554062991648912,2.290665882357955
1761414086312763400,9.000763427734375,-1.627714014557004,1.031715622088313,1.9317155199460685
1761414086322775600,9.010775634765626,-0.5967191079586744,0.9355630133438855,1.2595306905061006
1761414086332788500,9.02078857421875,0.5310802223563194,0.7962989195603877,0.6848873668856919
1761414086342800600,9.030800537109375,1.8519652530133723,0.6187305218238384,0.26947485681120303
1761414086352813600,9.0408134765625,3.175598121073842,0.5402491057831794,0.06921338308826089
1761414086362825700,9.05082568359375,4.4099061075180765,0.5477111122269183,0.05892156004607677
1761414086372838400,9.06083837890625,5.503630149751901,0.5664687849931419,0.25749566520396616
1761414086382850600,9.0708505859375,6.382935196235776,0.6824914116598665,0.5267046741532162
1761414086392863500,9.080863525390624,7.12301648094654,0.8494866851948201,0.8028723796665668
1761414086402876700,9.090876708984375,7.696808302304148,1.0298897218354046,1.0766888824112713
1761414086412888600,9.100888671875,7.993823748198151,1.1132615402661263,1.3946950938858091
1761414086422901500,9.110901611328124,8.079256298550963,1.1022823194816709,1.6199341743357478
1761414086432913700,9.12091357421875,8.136600818538666,1.2165933199249208,1.7328249327175318
1761414086442926600,9.130926513671875,8.17016114283502,1.3818338587470351,1.7539967539533972
1761414086452938500,9.1409384765625,8.224219480758904,1.4679631591923534,1.758864944511652
1761414086462951400,9.150951416015625,8.330620000338554,1.5117150610268115,1.7972281390450893
1761414086472963600,9.160963623046875,8.462067282891272,1.4246931956559419,1.8146745100170374
1761414086482976500,9.1709765625,8.623794552895426,1.2793825151845812,1.742359507651627
1761414086492989400,9.180989501953125,8.654079216521978,1.1979473639048634,1.6753955109253524
1761414086503001300,9.19100146484375,8.562326815497874,1.3098127247616649,1.5187421831846237
1761414086513014500,9.2010146484375,8.403382454210519,1.5568629472643136,1.255052083787322
1761414086523026400,9.2110263671875,7.950536395135521,1.856674745878577,0.9312151933979242
1761414086533039600,9.22103955078125,7.258927172648907,1.9051009231343865,0.7412165723510086
1761414086543051500,9.231051513671876,6.6424342736840245,1.8682047324135898,0.7044983685456216
1761414086553064700,9.241064697265625,6.065704060786962,1.8932523721694945,0.600278261744976
1761414086563076600,9.25107666015625,5.740733855518698,1.8747887869790196,0.28498277053385973
1761414086573089500,9.261089599609376,5.669799201595783,1.6291425860553979,-0.11138532225489615
1761414086583101400,9.271101318359374,5.51316253272891,1.1889493800655007,-0.3869483764059841
1761414086593114600,9.281114501953125,4.803523732554912,0.3731894617751241,-0.05741692763678729
1761414086603127600,9.29112744140625,3.32610724697113,-1.1347621550649405,1.2067783936794847
1761414086613139700,9.3011396484375,1.8304414034694432,-2.664866274741292,2.4065518770329652
1761414086623152400,9.31115234375,1.6724994972229004,-2.775229560472071,1.9576783748507498
1761414086633164500,9.32116455078125,1.7816940314352512,-1.3537658482566475,-0.5042073399346322
1761414086643177500,9.331177490234374,0.10220949763059616,-0.4136047665327787,-2.8920155727267263
1761414086653189400,9.341189453125,-3.4841683956831693,-0.4264221625298261,-3.3098534467846155
1761414086663202600,9.35120263671875,-7.521521878024935,-1.2687594143614171,-1.8075594173148273
1761414086673214500,9.36121435546875,-9.79047920192182,-1.81509828838706,-0.9119587042640894
1761414086683227600,9.3712275390625,-9.30913886976838,-1.2817714561477302,-1.6009199695251881
1761414086693240600,9.381240478515625,-8.000031370666623,-1.4816222667105494,-1.8817709009513257
1761414086703252500,9.39125244140625,-6.985590123984217,-2.620910228636861,-1.440158914204687
1761414086713265400,9.401265380859375,-6.7359355642020695,-3.254107594165206,-0.752365596744418
1761414086723277600,9.411277587890625,-7.808197716212272,-3.245061825661361,-0.24388430581763385
1761414086733290500,9.42129052734375,-9.531589780804515,-2.612113758718967,-0.426296307660453
1761414086743302700,9.431302734375,-10.979068808764218,-1.716441514801979,-1.046245667222142
1761414086753315300,9.4413154296875,-12.17567279523611,-0.8723265857733785,-1.8376093954026698
1761414086763327500,9.451327392578126,-12.787164524912834,-0.05682371098399162,-2.430707682515681
1761414086773340400,9.46134033203125,-12.644306206029652,0.4245157443866133,-2.4004338325440884
1761414086783352600,9.4713525390625,-11.534681414830684,0.48024011582657694,-1.707750551085174
1761414086793365500,9.481365478515626,-9.639073419445753,0.11967428104206919,-0.5745353332012891
1761414086803378700,9.491378662109375,-7.37984780049026,-0.3732329355906695,0.3775753487091511
1761414086813390600,9.501390625,-5.228996047013998,-0.9106092624165117,1.0318827953487635
1761414086823403500,9.511403564453126,-3.393773839008808,-1.3271899760201573,1.395636027997732
1761414086833415400,9.52141552734375,-2.2734189794808626,-1.5492461886502802,1.5543506721824407
1761414086843428600,9.5314287109375,-1.8602689709782598,-1.5832731075450777,1.469014860202372
1761414086853440500,9.5414404296875,-1.6924264329642056,-1.4692871012724935,0.9799658533677458
1761414086863453700,9.55145361328125,-1.5336089129269121,-1.322912444831431,0.3074266940647736
1761414086873465600,9.561465576171875,-1.152476675453782,-1.161820184795186,-0.20502890732046217
1761414086883478500,9.571478515625,-0.4679197095662355,-1.013461661060527,-0.4418890501223504
1761414086893491500,9.581491455078124,0.4246598290324211,-0.8346822070337832,-0.4870434391658753
1761414086903503400,9.59150341796875,1.5013298606127499,-0.6704299485966563,-0.3327779929423705
1761414086913516500,9.6015166015625,2.640529705864191,-0.5364417128568515,-0.17472955758143216
1761414086923528400,9.611528564453126,3.673281685262918,-0.44497978267930444,-0.13723008547155185
1761414086933541600,9.621541748046875,4.459759979489445,-0.34585268816873427,-0.04075893056355417
1761414086943553500,9.631553466796875,4.968330848395824,-0.24949995374232528,0.044913091100938614
1761414086953566500,9.64156640625,5.163347224539518,0.02484955990053713,0.10145067861992865
1761414086963578400,9.651578369140625,5.227938646915555,0.2866245463915169,0.13391630301475524
1761414086973591600,9.661591552734375,5.308761073124408,0.46335649330392475,0.18983933883197604
1761414086983604500,9.6716044921875,5.462675623551011,0.6164329124059528,0.1939096570108086
1761414086993616600,9.68161669921875,5.782314404663444,0.6530950751751661,0.128358595822379
1761414087003629600,9.691629638671875,6.1354404448360205,0.7105185056179761,0.031864480163902045
1761414087013641500,9.701641357421876,6.462010486516356,0.6719371382892131,-0.039662586694210765
1761414087023654400,9.711654296875,6.718742437338829,0.512800907691568,-0.0570828003115952
1761414087033666600,9.72166650390625,6.916597251778841,0.39463900397382673,0.006263736569881439
1761414087043679500,9.731679443359376,6.996845677492022,0.4003803241048008,0.1445526286456734
1761414087053691600,9.741691650390624,7.0343334043651815,0.5241637940313667,0.3735685242205858
1761414087063704600,9.75170458984375,7.0157567141890524,0.7200767536886036,0.6354182564482093
1761414087073717500,9.761717529296876,6.933321592086553,0.8826941774655133,0.9155532946899533
1761414087083729400,9.7717294921875,6.776092218023538,0.9659919077467173,1.2418055025927721
1761414087093742600,9.78174267578125,6.577182926094531,1.025710901780799,1.5290293300516902
1761414087103754500,9.79175439453125,6.449962321326137,1.0426328104872256,1.7112604589022695
1761414087113767700,9.801767578125,6.451040764212608,0.9328950362436473,1.682046785508096
1761414087123779600,9.811779541015625,6.5340569010734555,0.8448655282001942,1.5295535000562668
1761414087133792500,9.82179248046875,6.627254824730754,0.7936310155253857,1.2514486524678765
1761414087143804700,9.8318046875,6.546754470083117,0.6935994464557618,0.9898550138931721
1761414087153817300,9.8418173828125,6.1150032214850185,0.6322892377074808,0.6237433084845543
1761414087163830500,9.85183056640625,5.062252410152555,0.6677873251333832,0.31582097638994455
1761414087173842400,9.861842529296876,3.447676109588146,0.40642267300896345,0.548040928703174
1761414087183855600,9.871855712890625,2.0347896715819833,-0.8748453636612743,1.514774740858376
1761414087193867500,9.881867431640625,1.6242594901889562,-1.7530198717452585,1.799686930374056
1761414087203880400,9.89188037109375,2.5379250714361667,-1.099403403044492,0.5282976059004664
1761414087213892400,9.901892333984375,2.4758067611753938,-0.20472375036142765,-1.3391162683963775
1761414087223905500,9.911905517578125,-0.04949322196543216,0.05351677839308977,-2.2885316468082366
1761414087233917400,9.92191748046875,-4.108540649721026,0.1841412733208388,-2.198437095993757
1761414087243930600,9.9319306640625,-8.139298387059569,0.4239458355441689,-1.9070576101601122
1761414087253942500,9.941942626953125,-10.665070663887262,0.4131947244271636,-2.1859825419597327
1761414087263955700,9.951955810546876,-10.795593232810496,0.5917164773657918,-3.04197466352582
1761414087273968400,9.961968505859375,-9.75834335747063,0.16487725846767426,-3.7059871462956067
1761414087283980500,9.97198046875,-8.874113129544257,-0.6546170240454375,-3.1213805009350177
1761414087293993500,9.981993408203126,-8.561147834846377,-0.9667888302780687,-2.124469065724313
1761414087304005400,9.99200537109375,-8.982868103295564,-1.0150960573293268,-1.1309990762043745
1761414087314018600,10.0020185546875,-9.695786655792594,-0.7280183603428304,-0.5133025005381554
1761414087324030500,10.012030517578125,-10.433823282933234,-0.15460118098389355,-0.7541900356926023
1761414087334043400,10.02204345703125,-11.13430963935852,0.3367246116762981,-1.3011657463170587
1761414087344055300,10.03205517578125,-11.851502800434828,0.6174889242649078,-1.4630129894390702
1761414087354068500,10.042068359375,-12.248566182011364,0.8738253729637712,-1.3452208688817917
1761414087364081400,10.052081298828124,-12.048895842581986,0.9876038739655166,-1.0958270058624446
1761414087374093600,10.062093505859375,-11.179401996016502,0.9605663025014102,-0.7209976679258048
1761414087384106500,10.0721064453125,-9.729154672387242,0.8456447689443826,-0.35314445261210203
1761414087394118700,10.08211865234375,-8.188394718661904,0.6163458917096257,-0.06838146230876445
1761414087404131300,10.09213134765625,-6.708306383520364,0.3846162071313709,0.14808379844650627
1761414087414143500,10.1021435546875,-5.119320451286435,0.18236461903713644,0.2232329282592982
1761414087424156400,10.112156494140624,-3.4560943938434123,-0.012084478612616658,0.17834135487042366
1761414087434168600,10.12216845703125,-1.885795041900873,-0.1328964036487974,0.06488214895091951
1761414087444181500,10.132181396484375,-0.5113046777844429,-0.25525901045938953,-0.050085781031101936
1761414087454193700,10.142193603515626,0.7157441313117742,-0.3798327722471207,-0.2091473389573395
1761414087464206300,10.152206298828125,1.9175363340765237,-0.4328507342725992,-0.2322176142256707
1761414087474219500,10.162219482421875,3.062985302850604,-0.4249270286012441,-0.11761880981698632
1761414087484231400,10.1722314453125,4.065058066347241,-0.4562195906287059,0.1023772554129362
1761414087494244600,10.18224462890625,4.930390117058158,-0.3728604490164667,0.37984051716215905
1761414087504256500,10.192256591796875,5.610794054919481,-0.2810275666346773,0.6789746357105672
1761414087514269700,10.202269775390626,6.157748722755908,-0.21319285148847847,0.9153630328148603
1761414087524281600,10.212281494140624,6.566506049257517,-0.1865263783590868,1.0894535983730107
1761414087534294500,10.22229443359375,6.879556099629402,-0.23782135251685976,1.119918733133003
1761414087544306400,10.232306396484375,7.135561489742994,-0.26782990261577067,1.0483388401091098
1761414087554319400,10.2423193359375,7.314902742370963,-0.2484738986302167,0.9475437393210828
1761414087564332500,10.25233251953125,7.395072257629036,-0.1976970665950328,0.807172707208991
1761414087574344400,10.262344482421875,7.418586404207349,-0.13606573613360523,0.6895680720478296
1761414087584357400,10.272357421875,7.43643244202137,-0.024442367339134213,0.6097317342668771
1761414087594369500,10.28236962890625,7.399073309963941,0.1327859838105738,0.4918832804124802
1761414087604382500,10.292382568359375,7.314501175832748,0.353471273413673,0.4264885788295418
1761414087614394400,10.302394287109376,7.248910805547237,0.5601491535175591,0.42293611051235347
1761414087624407600,10.312407470703125,7.172893149271607,0.6738438486933708,0.37491427627373486
1761414087634419500,10.32241943359375,7.104094338333606,0.7292478290725499,0.3035281522562727
1761414087644432600,10.3324326171875,7.135050617611408,0.7930696553155779,0.2245988097850233
1761414087654444500,10.342444580078125,7.223399932193756,0.8703317586943506,0.1410030098726973
1761414087664457500,10.35245751953125,7.314566642284393,0.9451282756771892,0.08233038308639079
1761414087674470400,10.362470458984374,7.2961331599712365,1.0590352253641933,0.13030684381332247
1761414087684482600,10.372482666015625,7.041305581465363,1.3613438822954893,0.16504066886845975
1761414087694495500,10.38249560546875,6.58173693613708,1.672578699938953,0.15155258880192413
1761414087704507600,10.392507568359376,5.62116405776441,1.3615055025979876,0.25751042438168076
1761414087714520600,10.4025205078125,4.0336154648572204,0.3584685702443123,0.5378345919873565
1761414087724532500,10.412532470703125,1.9383242705613373,0.06903831878229975,0.10652162520866841
1761414087734545400,10.42254541015625,-0.39684477038979526,0.4422141904234886,-0.5633974147237837
