time,seconds_elapsed,z,y,x
1761414095909781000,0.074781005859375,0.70586746494174,0.5274832207776605,2.0020698897629976
1761414095919793000,0.08479296875,0.8181190486371517,0.3546621636986732,1.1545306853741406
1761414095929806000,0.09480615234375,1.0828647945672274,0.48139936886429785,0.4303244306653738
1761414095939818000,0.10481787109375,1.4031412890613078,0.6065753160625695,-0.20773864120319485
1761414095949831000,0.114830810546875,1.7047025616914033,0.8260217845857143,-0.6973913130193948
1761414095959842800,0.1248427734375,1.8632330814808606,0.8845829868867993,-1.0772199205480515
1761414095969856000,0.13485595703125,2.0457132166564462,0.7420189747750758,-1.2029397653646767
1761414095979868000,0.144867919921875,2.344002920269966,0.46893999252468344,-0.9164760355580598
1761414095989881000,0.154881103515625,2.6809973253309725,0.33244185632318257,-0.38293417232856153
1761414095999893000,0.16489306640625,2.8611639228671786,0.3555953528955579,-0.036922786466777324
1761414096009906200,0.17490625,2.966448590159416,0.17588059078007937,0.28893245800770817
1761414096019918000,0.18491796875,2.8279952282369134,0.4353714849218726,0.7360409232787788
1761414096029931000,0.194930908203125,2.5405326235860586,1.2064505499646068,0.8986763211037964
1761414096039943000,0.20494287109375,2.3014701849669215,1.717759903924167,0.7204935177959502
1761414096049955800,0.214955810546875,1.9609154570758343,1.7508209003962576,0.5065712925869971
1761414096059969000,0.224968994140625,1.4556699331998824,1.8642028032958506,0.41502990396507083
1761414096069981000,0.23498095703125,1.1235714834868906,1.5389146181195974,0.004104731905087829
1761414096079993900,0.244993896484375,1.0003098454773425,0.6857298090592027,-0.22938662858344613
1761414096090005800,0.255005859375,0.6630190878182649,-0.0083056176610291,-0.3258632085852325
1761414096100019000,0.26501904296875,0.5947364097088575,-0.5135853360675275,-0.42347368798777457
1761414096110030800,0.27503076171875,0.8705565073609352,-0.8650205005437135,-0.485061983025074
1761414096120044000,0.2850439453125,1.0089800586670636,-1.060126162406057,-0.4488018982507288
1761414096130056000,0.295055908203125,1.2555366524338722,-1.162004966777563,-0.4340517806254327
1761414096140069000,0.305069091796875,1.482577229347825,-1.371493812648952,-0.3597562719672918
1761414096150080500,0.31508056640625,1.8726888920903204,-1.9778594314835964,0.32440504566617306
1761414096160093200,0.32509326171875,2.6728607806265354,-2.349296058242023,0.8327006778277456
1761414096170105300,0.335105224609375,3.1603152117460964,-1.9163585224688051,0.8797948027621955
1761414096180118300,0.3451181640625,3.420277230530977,-0.8976907441325486,0.45239480817615985
1761414096190130400,0.35513037109375,3.515739591988921,-0.5268287389243022,0.4293342140516266
1761414096200143400,0.365143310546875,3.335812648427486,-0.666438394742459,0.713786275242269
1761414096210156500,0.375156494140625,2.5641385401010512,-0.6954692589156329,0.4393304151481017
1761414096220168400,0.38516845703125,1.4484902508288622,-0.8622265589762479,0.12089980424903332
1761414096230181400,0.395181396484375,0.5126292043864726,-1.2788541073963045,-0.34881851570438593
1761414096240193300,0.405193359375,-0.08476327278912067,-1.5937665906392038,-0.9805985983133315
1761414096250206500,0.41520654296875,-0.28539924238026143,-1.7858998125620185,-1.305093879546225
1761414096260218400,0.42521826171875,-0.30750586024820803,-1.8359579749338328,-1.29476157836318
1761414096270231600,0.4352314453125,-0.2502887660324573,-1.7463421475470065,-0.9156430188000202
1761414096280243500,0.445243408203125,0.20988895110487937,-1.6021815138936042,-0.4629856141649186
1761414096290256400,0.45525634765625,0.9950152462005615,-1.3854963267773388,-0.01445135387443006
1761414096300268300,0.465268310546875,2.0800164682745934,-0.9743770203847437,0.4630180551297962
1761414096310281500,0.475281494140625,2.753050754150748,-0.6464416817005724,0.645654184584692
1761414096320293400,0.48529345703125,2.934018146675825,-0.7307260849315673,0.962792600248754
1761414096330306600,0.495306640625,2.532927993801236,-1.1098100115727632,0.907815320849046
1761414096340318500,0.505318359375,1.3092425236582754,-1.2310057300284505,0.4401652950696647
1761414096350331400,0.515331298828125,-0.7556564549833535,-1.290712887494266,-0.003199197900108993
1761414096360344300,0.52534423828125,-4.059537841621041,-1.335178344425559,-0.2663083190716803
1761414096370356200,0.535356201171875,-7.775616466081142,-1.1783985407609492,-0.3120052174940705
1761414096380369400,0.545369384765625,-10.409289730179308,-1.1025214619997887,0.6849623318180441
1761414096390381300,0.55538134765625,-11.944461654639243,-1.0769080050546675,2.2751767829336225
1761414096400394500,0.56539453125,-13.14431908994913,-0.20913681756332517,2.116657515190542
1761414096410406400,0.575406494140625,-16.10844829725027,1.8411475064009426,-0.07316219377927481
1761414096420419300,0.58541943359375,-23.959388592123982,5.203156087836623,-2.743928413279354
1761414096430431500,0.595431396484375,-31.6716428853631,8.620455763861537,-5.80158550684452
1761414096440444400,0.6054443359375,-33.20128757083416,11.428010846138,-9.396992509788275
1761414096450456300,0.615456298828125,-28.80779892963171,11.6686339582026,-9.156206900638342
1761414096460469500,0.625469482421875,-21.051249567592144,8.0183900341779,-5.157025035780668
1761414096470481400,0.6354814453125,-13.372114284622668,7.490002704167366,-4.680246604715287
1761414096480494600,0.64549462890625,-6.752336663904786,5.51247221237719,-4.5192558322921395
1761414096490506500,0.655506591796875,-1.6614742453396318,2.888458172506094,-3.0686592568337914
1761414096500519400,0.66551953125,1.4975398206800221,1.1790914183959365,-1.9696495292820035
1761414096510532400,0.675532470703125,3.1407682152330874,-0.36920784479305147,-0.8330084286026657
1761414096520544500,0.68554443359375,3.3306051429122685,-1.4201185812167822,-0.12423782609794289
1761414096530557400,0.695557373046875,2.6798341267704964,-2.0036162424221633,-0.09467365876566618
1761414096540569300,0.7055693359375,2.1543407646358013,-2.2768752574145794,-0.4185609276354313
1761414096550582500,0.71558251953125,2.109808379948139,-2.215916492452472,-0.8466676822513342
1761414096560594400,0.725594482421875,2.5148569150596853,-1.8757067786067723,-1.1572834912136196
1761414096570607400,0.735607421875,2.889135048854351,-1.373711196437478,-1.285744159170985
1761414096580619300,0.745619384765625,3.2955648091912266,-0.903823840060085,-1.3294672733023762
1761414096590632400,0.755632568359375,4.0018332561492915,-0.566078616631776,-1.1549307175423948
1761414096600644400,0.765644287109375,5.031054138812422,-0.24855441652052104,-0.8833969919726252
1761414096610657500,0.775657470703125,6.053444883194565,-0.11101276261545717,-0.5053520529903471
1761414096620669400,0.78566943359375,6.9822910824388265,-0.015656784141436217,-0.11523936733454465
1761414096630682400,0.795682373046875,7.81676154641807,0.03584631634168327,0.34048531591668724
1761414096640694300,0.8056943359375,8.334488950726389,-0.053406157625466584,0.4932756846189499
1761414096650707500,0.81570751953125,8.644692964017391,-0.1357238638933748,0.40146556205824013
1761414096660719400,0.82571923828125,8.98436623289883,-0.26595490252412857,0.2612762431886047
1761414096670732500,0.835732666015625,9.262844151583314,-0.4412805628351867,0.283300954926759
1761414096680745500,0.845745361328125,9.446358890503644,-0.6288816212210804,0.5339074816714972
1761414096690757600,0.855757568359375,9.533807456853985,-0.7906570412158965,0.9191694393604993
1761414096700770300,0.865770263671875,9.616682723939418,-0.8750564491286873,1.2949519863687455
1761414096710782500,0.875782470703125,9.773847800594568,-0.9515076745159924,1.5647383568145334
1761414096720795400,0.88579541015625,9.90704397264123,-0.9145283355563878,1.7482457892112433
1761414096730807300,0.895807373046875,10.11814171501398,-0.8492194856259971,1.8733241212539373
1761414096740820500,0.905820556640625,10.291704968762398,-0.7715447828583419,1.82994397534132
1761414096750832400,0.915832275390625,10.334096834290026,-0.6528130433633923,1.6257392073526977
1761414096760845300,0.92584521484375,10.236357760071753,-0.4412881250871345,1.4367002981834114
1761414096770857200,0.935857177734375,10.047762941408157,-0.2040408461311832,1.2530033345639704
1761414096780870400,0.945870361328125,9.96649686308503,0.000019946809485554693,1.2110609663695096
1761414096790882300,0.95588232421875,9.783623929199576,0.12583550708554683,1.2482441573381424
1761414096800895500,0.9658955078125,9.481375258827208,0.2955951307673007,1.1103856195036321
1761414096810907400,0.975907470703125,9.024526978373528,0.5412225539252161,1.0024326828502117
1761414096820920600,0.985920654296875,8.096725319746136,0.7393984170131385,0.9730317432556301
1761414096830933200,0.995933349609375,7.063852928838133,0.9721223733257501,0.9491772588070482
1761414096840945400,1.0059453125,6.4598290508240455,1.0353987675804643,0.9895468977920711
1761414096850958300,1.015958251953125,6.298373583498597,0.9321643838815391,1.1484162941470741
1761414096860970500,1.025970458984375,6.4291241159588095,0.7204002865545451,1.4399474634110927
1761414096870983400,1.0359833984375,6.411449927580356,0.5117625045545399,1.5992488214425742
1761414096880995600,1.04599560546875,6.182672151610255,0.3577322187937796,1.6124726062834263
1761414096891008300,1.05600830078125,5.804772904708981,0.16682824640497565,1.4116381915107368
1761414096901020400,1.0660205078125,5.28143467478156,0.03854790345057845,1.0745262975499033
1761414096911033300,1.076033447265625,4.00864410520792,-0.08128814402446151,0.8011232709769159
1761414096921045200,1.086045166015625,2.2209932111948727,-0.05073796132951974,0.5024143555706366
1761414096931058400,1.096058349609375,0.2854892587512731,0.3912995573528111,0.31731581805758174
1761414096941070300,1.1060703125,-1.9646429531663656,0.8170882442846894,0.6351175199359655
1761414096951083500,1.11608349609375,-3.9089123958677052,0.6461189525522292,1.1583819539748132
1761414096961095400,1.126095458984375,-4.5147102978169915,-0.5662329304106534,1.7069519480533897
1761414096971108400,1.1361083984375,-4.202613018125295,-2.1393393025979397,1.9546312622398136
1761414096981121300,1.146121337890625,-5.346687191414833,-3.4088530424579977,1.8151392049193382
1761414096991133400,1.156133544921875,-10.355046098816395,-3.876538066485524,0.7543084744405001
1761414097001146400,1.166146484375,-18.523698590654135,-2.4647554980680346,-0.7571070921830833
1761414097011158500,1.176158447265625,-26.30902162723541,0.2767770330507308,-2.135643955211341
1761414097021171500,1.18617138671875,-31.349594705021378,3.046864481393993,-3.2462451902270315
1761414097031183400,1.196183349609375,-33.80128292398452,4.637564816330373,-4.709949084539711
1761414097041196300,1.2061962890625,-32.54714678599834,4.712348839157819,-5.808173068541288
1761414097051208400,1.21620849609375,-28.20309934431314,3.3882536142826076,-5.838399864500761
1761414097061221400,1.226221435546875,-22.853396019947528,1.9310843824356794,-5.711483211115002
1761414097071233500,1.236233642578125,-18.008858724480866,0.5512868518218398,-5.391123714512586
1761414097081246500,1.24624658203125,-13.826493544614314,-0.8701995106168091,-4.551721054828167
1761414097091258600,1.256258544921875,-10.427706845879554,-1.9274558166749773,-3.431172718554735
1761414097101271300,1.266271240234375,-8.052603853946923,-2.345210396363586,-2.427457448548078
1761414097111283200,1.276283203125,-6.564675911220908,-2.365948940748721,-1.7114042512871324
1761414097121296400,1.28629638671875,-5.534875767365097,-2.1160836608253417,-1.1309013879835605
1761414097131308300,1.296308349609375,-4.576507705560326,-1.7423000325493514,-0.5288670763514935
1761414097141321500,1.306321533203125,-3.900359671577811,-1.4708993587747214,-0.41216318942233915
1761414097151333600,1.316333740234375,-2.798428942012787,-1.2612857174798846,-0.3845907073639333
1761414097161346600,1.3263466796875,-0.9948065718859433,-0.9460555465899407,-0.12420096468627452
1761414097171359700,1.33635986328125,0.7998767049819231,-0.5021678699962795,0.5001508310854434
1761414097181371600,1.34637158203125,2.6748832263648508,0.0008300210833549499,1.1799458432681857
1761414097191384600,1.356384521484375,4.702187510627508,0.4609023781500756,1.618888610805571
1761414097201396700,1.366396728515625,6.512866229006647,0.7272454762741923,1.9723355534955858
1761414097211409700,1.37640966796875,7.923462510249018,0.927789237537235,2.301695225894451
1761414097221421800,1.386421875,9.008135815542936,1.1005636789955198,2.453338616518676
1761414097231434500,1.3964345703125,9.690130237466096,1.2013698856994508,2.532081313844025
1761414097241446700,1.40644677734375,9.966119261944293,1.367904409854859,2.383956744995713
1761414097251459600,1.41645947265625,10.032159714084862,1.581130688688904,2.2803715750977394
1761414097261471700,1.4264716796875,9.931091203182936,1.6455214739263058,2.1874932387836274
1761414097271484700,1.436484619140625,10.072455484116077,1.7202096351638436,2.242769428064674
1761414097281496800,1.446496826171875,10.716143848520517,1.8667352443829177,2.475070555855334
1761414097291509500,1.456509521484375,11.549119105505943,1.938373370400071,2.7588673314750194
1761414097301521700,1.466521728515625,12.154985396516322,1.9631582675665615,2.9384453154683112
1761414097311534600,1.47653466796875,12.41099896993637,1.9566537079781292,2.9169001308754083
1761414097321546500,1.48654638671875,12.43136371257305,1.8968243854373692,2.6052356896430253
1761414097331559700,1.4965595703125,12.30465690254569,1.8498145047202705,2.211688645624369
1761414097341572900,1.50657275390625,12.105929981446266,1.877113722795248,1.851822045150399
1761414097351584800,1.516584716796875,11.865576918494702,1.9736253010451792,1.4774775681212544
1761414097361597700,1.52659765625,11.253783575522899,2.187432594637573,1.1508943746984004
1761414097371609600,1.536609619140625,10.481042130225896,2.4280747036635875,1.0898933780297637
1761414097381622500,1.54662255859375,10.015238974422216,2.681736745521426,1.050611022824794
1761414097391634700,1.556634765625,9.95870167916417,2.933419303999841,0.9909517230886965
1761414097401647600,1.566647705078125,10.200774405515194,3.0471967820882795,0.9336091027971356
1761414097411659800,1.57665966796875,10.59968487626314,2.839842317897081,0.8734906611166894
1761414097421672700,1.586672607421875,11.096650063049793,2.3728365083053706,0.8479334644034504
1761414097431684600,1.5966845703125,11.583679546755551,1.793930704934895,0.8072988178066909
1761414097441697500,1.606697509765625,11.86759234997034,1.228781624238193,0.6738083389885723
1761414097451709700,1.616709716796875,11.79351238375902,0.694324911186099,0.6712229256052523
1761414097461722600,1.62672265625,10.795903029412031,0.30079028825759885,0.8456976681753993
1761414097471734800,1.63673486328125,8.816998326659203,0.09770137255638837,1.22415250313282
1761414097481747700,1.646747802734375,6.249347979044914,-0.04556552712768316,2.0891583906292914
1761414097491759900,1.656759765625,3.8160359592497346,-0.36403584898263214,3.2700171109586953
1761414097501772500,1.6667724609375,2.5023949083715675,-1.4495096570044754,3.7664550590008496
1761414097511785700,1.67678564453125,3.161379041585326,-2.4626588180497286,2.922829813185334
1761414097521797600,1.686797607421875,4.275024758863449,-2.9447227883026,1.574065864869207
1761414097531810800,1.696810791015625,2.814234413909912,-3.519247600109875,0.3946812722129747
1761414097541822700,1.70682275390625,-2.6245658285349607,-3.611828560912609,-0.7566448814988136
1761414097551835600,1.716835693359375,-11.277639082884788,-3.5728693001821634,-0.5599851220622658
1761414097561847800,1.726847900390625,-19.572741195118425,-3.7627526973515746,0.26691947323996573
1761414097571860500,1.736860595703125,-24.888942062854767,-3.2064813351154324,-0.11416983840689063
1761414097581872600,1.74687255859375,-28.495736721253394,-1.7322797199249267,-2.375732522007823
1761414097591885600,1.756885498046875,-31.774474314284323,-0.5524684628218413,-4.54282726201564
1761414097601897700,1.766897705078125,-33.54977484529018,0.48523821637481446,-6.1827113145768635
1761414097611910700,1.77691064453125,-34.28201710693836,1.7994857087135314,-8.436163610827922
1761414097621922800,1.7869228515625,-32.665549878060816,1.1652832577958703,-8.493332189726829
1761414097631935500,1.796935546875,-27.322143023490906,0.19967764595299958,-6.756856771677732
1761414097641947600,1.80694775390625,-20.45225257782936,-0.2757520008519292,-5.371798251795768
1761414097651960600,1.816960693359375,-13.784920009732245,-1.2002400048866868,-4.30214862037152
1761414097661972700,1.82697265625,-8.41802238945961,-1.981572752918303,-3.400552831624448
1761414097671985700,1.836985595703125,-5.2875838450610635,-2.3451678723961114,-2.714064897674322
1761414097681997800,1.846997802734375,-3.8288784896880386,-2.56110983992964,-1.9171610710233449
1761414097692010800,1.8570107421875,-3.1599294272989034,-2.525675246194005,-1.1572086724117399
1761414097702022700,1.867022705078125,-2.449838207182288,-2.3038702318459747,-0.7643969569303095
1761414097712035600,1.87703564453125,-1.1947247485965489,-2.1274153483092784,-0.49279765531104053
1761414097722048800,1.887048828125,0.1393862588584423,-1.9515680752769111,-0.33449696222208436
1761414097732060700,1.897060791015625,1.2210668120771646,-1.6560118882805108,-0.3144645933449268
1761414097742073900,1.907073974609375,2.1925994758814573,-1.3977280318409204,-0.16073895308654754
1761414097752085800,1.917085693359375,3.299779212015867,-1.1678773659422994,0.18382543057100847
1761414097762098400,1.927098388671875,4.528946328440308,-0.6694406452983618,0.5417701048053801
1761414097772110600,1.937110595703125,5.685379048043489,-0.0432347460925579,1.0421294640749692
1761414097782123500,1.94712353515625,6.618059126362204,0.6381345296695828,1.4644089738421142
1761414097792135700,1.9571357421875,7.248282444515824,1.2312144043430686,1.5889149128243327
1761414097802148600,1.967148681640625,7.517567587441206,1.7556927442163228,1.530534766178578
1761414097812160800,1.977160888671875,7.554810399642586,2.1986533690929413,1.2952226200036703
1761414097822173700,1.987173583984375,7.730647443541884,2.517823948171735,0.9650150986038147
1761414097832185900,1.997185791015625,8.127033948770165,2.7996491314575076,0.7509195626545697
1761414097842198500,2.007198486328125,8.667942322179675,3.116607879705727,0.4749340453077107
1761414097852210700,2.017210693359375,9.256244314926862,3.2829335834160447,0.22276105469753965
1761414097862223600,2.0272236328125,10.006861606699228,3.3913889896988865,0.07548489197264426
1761414097872235800,2.03723583984375,11.063582490706443,3.417048916134238,0.017635272007016464
1761414097882248700,2.047248779296875,12.109860306632518,3.3937542575255035,0.17955162570932878
1761414097892260600,2.057260498046875,12.692802818173169,3.39045930763334,0.43379802506007253
1761414097902273500,2.0672734375,12.883802359890938,3.3815526553392408,0.5727099444050342
1761414097912286700,2.07728662109375,12.685953390669821,3.339343160641193,0.5599670749489217
1761414097922298600,2.087298583984375,11.993036592715978,3.322916049714386,0.610215499195829
1761414097932311800,2.097311767578125,11.471749450099468,3.2648294791877266,0.5446523091781884
1761414097942323700,2.10732373046875,11.407110681450366,3.0703026401266453,0.3276280993659049
1761414097952336600,2.117336669921875,11.608367413288354,2.7697683724567295,0.1118014287751168
1761414097962348800,2.127348876953125,11.913850243276357,2.5469609030678866,-0.11309632742386311
1761414097972361500,2.137361572265625,12.106869892644882,2.356475740613043,-0.2901378517420962
1761414097982373600,2.14737353515625,11.964252396780251,2.20617148963809,-0.4043192709889263
1761414097992386600,2.157386474609375,11.489086369347572,2.066753082075715,-0.5833748385433107
1761414098002398700,2.167398681640625,10.854262863922118,1.928526222385466,-0.715360758017376
1761414098012411600,2.17741162109375,10.401139156949519,1.8542973492227495,-0.8276159219093621
1761414098022423800,2.187423828125,10.174341156619787,1.7789165295459328,-0.9143279176134615
1761414098032436700,2.197436767578125,9.69572002029717,1.7256309295602141,-0.9980494993299245
1761414098042448600,2.20744873046875,8.92519040583074,1.656573467686027,-1.0005833286564796
1761414098052461600,2.217461669921875,8.151013959294557,1.6427134307682514,-0.894790127320215
1761414098062473700,2.2274736328125,7.069614561104774,1.7616278333537279,-0.8904991521280259
1761414098072486700,2.237486572265625,5.719083164724707,1.820529373525083,-0.5961207036741077
1761414098082498600,2.24749853515625,4.61540413018763,1.6969506323903798,-0.39672421275004743
1761414098092511700,2.25751171875,2.9791672019571065,1.5152688079856336,-0.7668113245956599
1761414098102524700,2.267524658203125,-0.8035124311357736,1.0968033766139298,-1.0691929006326943
1761414098112536600,2.27753662109375,-7.1946741884469985,0.30461671467795964,-1.7200424619033932
1761414098122549800,2.2875498046875,-15.251149915391206,-0.6976297248851507,-2.5399820039659735
1761414098132561700,2.297561767578125,-23.414410777318476,-2.206758349615335,-3.109837654918432
1761414098142574600,2.30757470703125,-29.460251615250108,-3.2182813707634805,-5.202074137818813
1761414098152587800,2.317587890625,-33.80198435025215,-3.359615548819303,-6.734006641966104
1761414098162600400,2.327600341796875,-38.04092306573391,-2.770274276152253,-10.426488702261448
1761414098172612400,2.3376123046875,-39.01865283061266,-1.605053854459524,-13.957652073353529
1761414098182625500,2.34762548828125,-35.415376993989945,0.032723946537449956,-13.763150076472758
1761414098192637400,2.357637451171875,-29.162023870956897,-0.23870514961406586,-9.351759283354879
1761414098202650600,2.367650634765625,-23.307041120445728,-0.42124271406531333,-5.887732342946529
1761414098212662500,2.37766259765625,-18.928567677545548,-0.8966383124701678,-3.6422684151008724
1761414098222675500,2.387675537109375,-14.985281302911043,-1.4509329678058625,-2.384511602399498
1761414098232687400,2.397687255859375,-11.27836272098422,-1.5416554412603378,-2.0976848114341498
1761414098242700500,2.407700439453125,-8.312204638203978,-1.3965654178023337,-1.7749593163527548
1761414098252712400,2.41771240234375,-6.213449567189812,-1.0261065500348805,-1.3389160696491598
1761414098262725600,2.4277255859375,-4.780449146437645,-0.5753837667241692,-0.9223122674308717
1761414098272737500,2.437737548828125,-3.475968722614646,-0.09530015663355589,-0.21786182968020437
1761414098282750700,2.447750732421875,-2.2741239128798245,0.4558090005338192,0.5400558482334017
1761414098292763400,2.457763427734375,-1.0932985102981327,1.0140898028962313,1.1148155647750944
1761414098302775600,2.467775634765625,0.32402620241641994,1.5191078016266226,1.3958506936617194
1761414098312788500,2.47778857421875,1.9010703524440526,1.8914570131853221,1.422152863523364
1761414098322800600,2.487800537109375,3.333022725448012,2.2998794086441396,1.3495309871658683
1761414098332813600,2.4978134765625,4.626698846662045,2.718846871253848,1.4825740144774318
1761414098342825700,2.50782568359375,6.050329966044425,3.0459061577558515,1.7609813521437345
1761414098352838400,2.51783837890625,7.740230095401406,3.2669688293039796,2.0866104597121478
1761414098362850300,2.527850341796875,9.553053424593806,3.402315749643743,2.1982643697753548
1761414098372863500,2.537863525390625,11.13382448619008,3.408796636095643,2.1349217784166337
1761414098382875400,2.54787548828125,12.244889539325236,3.329289676399529,1.9005683942712843
1761414098392888600,2.557888671875,12.871548442995547,3.2040216670036314,1.6748666647456585
1761414098402900500,2.567900390625,13.109233748042582,3.1002266537472605,1.47816642716825
1761414098412913700,2.57791357421875,12.94409111663699,3.0052205116242168,1.36073144948557
1761414098422925600,2.587925537109375,12.485464720594882,2.9662723568096756,1.3986682353004813
1761414098432938500,2.5979384765625,11.966341478013991,2.9067718278318644,1.3490624928712844
1761414098442950400,2.607950439453125,11.715492740011214,2.748676192328334,1.1054003053717314
1761414098452963600,2.617963623046875,11.768116076695918,2.511982528667152,0.8196597022078931
1761414098462975500,2.6279755859375,12.008353404313326,2.3238377918586135,0.6021681671448051
1761414098472988700,2.63798876953125,12.261272518849372,2.239426108986139,0.6318325069159269
1761414098483000600,2.64800048828125,12.251875744950771,2.1798969384357334,0.7301043728366494
1761414098493013500,2.658013427734375,12.087856564617157,2.1038433340638876,0.7529507762212306
1761414098503025400,2.668025390625,11.90118248488307,2.073295343326032,0.7394264009986072
1761414098513038600,2.67803857421875,11.66447566947937,2.0189228248864413,0.6663365418031811
1761414098523051500,2.688051513671875,11.438761372733115,2.0314913606889546,0.4703478134959936
1761414098533063700,2.698063720703125,11.090475173807144,2.0820266390532254,0.3072516662914306
1761414098543076600,2.70807666015625,10.541235025382042,2.1802890064932403,0.3302266644917428
1761414098553088500,2.718088623046875,10.087300002026558,2.242041990572959,0.3499775860790163
1761414098563101400,2.728101318359375,9.863721548265218,2.2080264698550103,0.29021292627230283
1761414098573113300,2.73811328125,9.712035195282102,2.101798384232819,-0.011771101814508437
1761414098583126500,2.74812646484375,9.342249696731567,1.9162196985200046,-0.33321466732658445
1761414098593138400,2.758138427734375,8.550235980209708,1.7890962705157696,-0.5673932063616812
1761414098603151600,2.768151611328125,7.310397832167149,1.854515960409492,-0.7692758880782872
1761414098613163500,2.77816357421875,5.269858218756318,2.0231715683721005,-0.9175262021981179
1761414098623176400,2.788176513671875,2.588361127209663,2.2325024472028017,-1.0382324566364287
1761414098633188600,2.798188720703125,0.10767243921160698,2.6258383326888084,-1.2728100049264728
1761414098643201500,2.808201416015625,-2.1060703624635932,2.6211937217533587,-1.0690480122692883
1761414098653213400,2.81821337890625,-3.731532214179635,1.6265975777477024,-0.4573591160526499
1761414098663226600,2.8282265625,-4.402164699611068,-0.13486205943226814,0.6582406944353133
1761414098673238500,2.838238525390625,-4.73623824878931,-2.1747646901138125,2.1111673933416606
1761414098683251700,2.848251708984375,-5.6269923255264755,-3.8969028091222047,2.795648371383548
1761414098693263600,2.858263671875,-7.42671418108344,-4.836819852957129,2.5434546485126015
1761414098703276500,2.868276611328125,-10.498144071674346,-4.779383563032746,1.3973032305575905
1761414098713289500,2.87828955078125,-14.596267956799268,-4.3860459239810705,0.13903896152442322
1761414098723301600,2.888301513671875,-18.609637336963413,-3.06431684371531,-1.6975190799281
1761414098733314600,2.898314453125,-21.97389398958683,-0.02497822778150439,-5.05597522957921
1761414098743326500,2.908326416015625,-25.31799515841007,2.1198145179167387,-7.009054586201906
1761414098753339600,2.918339599609375,-28.471598305296897,2.4266996159181,-7.100176288107037
1761414098763351600,2.9283515625,-28.86540239281654,1.8367038248650729,-5.942327856487036
1761414098773364500,2.938364501953125,-24.732304224944112,0.7766812689639627,-4.093725065644085
1761414098783376400,2.94837646484375,-19.43075147576332,-0.24096900289282203,-2.6572379718199373
1761414098793389600,2.9583896484375,-15.347859062039852,-1.2403794153124093,-1.9933599290847777
1761414098803401500,2.9684013671875,-12.247143455731868,-2.136134953598678,-1.764296760302037
1761414098813414700,2.97841455078125,-9.749134799620508,-2.569892865844071,-2.0146580070488156
1761414098823426600,2.988426513671875,-7.470638078483939,-2.8674641920551656,-2.199034769625962
1761414098833439500,2.998439453125,-5.266656792366504,-3.2433246266052125,-2.118823314922303
1761414098843451400,3.008451416015625,-3.281899856454134,-3.4691599193826317,-1.8538859919428825
1761414098853464600,3.018464599609375,-1.5888894861221312,-3.248306798931956,-1.4404332011014223
1761414098863476500,3.0284765625,-0.23342998569011686,-2.6100895594149827,-0.8373810907289385
1761414098873489700,3.03848974609375,1.036803300616145,-1.7792291026264428,-0.24414631775468587
1761414098883501600,3.04850146484375,2.371003155398369,-0.9968985757291317,-0.01873317764578387
1761414098893514800,3.0585146484375,3.7948242443948983,-0.44092122800350186,0.037193785427883264
1761414098903526700,3.068526611328125,5.107751594045758,-0.02540580554381013,0.026188407288864252
1761414098913539600,3.07853955078125,6.055920917919278,0.49053968378379936,-0.3081382033349946
1761414098923551500,3.088551513671875,6.820394885608554,0.9231576322138308,-0.51484772068616
1761414098933564400,3.098564453125,7.869275577509403,1.125138148281723,-0.5050968726528808
1761414098943577600,3.10857763671875,9.135177556613087,1.189480418202281,-0.40773718967363237
1761414098953589500,3.118589599609375,10.353818602848053,1.1383004121936857,-0.33310934378858653
1761414098963602400,3.1286025390625,11.483465606856345,0.8310463347494602,-0.23201365261878817
1761414098973614300,3.1386142578125,12.183614109629392,0.6247095231682062,-0.2036243742847815
1761414098983627500,3.14862744140625,12.27112405077815,0.42253845296427606,-0.5375968011761084
1761414098993639400,3.158639404296875,11.953987023353577,0.3282707081183791,-0.8990572832453996
1761414099003652600,3.168652587890625,11.44983221732378,0.37155280048400163,-0.7336479637276381
1761414099013664500,3.17866455078125,10.973916832828522,0.3989246454037726,-0.5364658609174192
1761414099023677700,3.188677734375,10.444261674839257,0.6500389024749398,-0.11516520611979067
1761414099033689600,3.198689697265625,10.36913307635784,0.4276883100081235,0.17131788597442207
1761414099043702500,3.20870263671875,10.565076504218577,0.23062135801017283,0.6955651935707777
1761414099053714400,3.21871435546875,10.876907241928576,0.01835011487863958,0.9002695816446095
1761414099063727600,3.2287275390625,11.045216812932491,-0.25929193750359114,0.637336072768271
1761414099073739500,3.238739501953125,11.350320872735976,-0.5204169356532394,0.19633366928733884
1761414099083752700,3.248752685546875,11.268875930714607,-0.6542229101613164,-0.020172215739265083
1761414099093764600,3.2587646484375,10.544552771627902,-0.609381642187573,0.07308255267180502
1761414099103777500,3.268777587890625,9.679561497178673,-0.37936036896239966,0.265127804050222
1761414099113789400,3.27878955078125,8.619245803549886,-0.06370423231192399,0.52063269729577
1761414099123802400,3.28880224609375,7.428213479730487,0.14611076307417825,0.793878560545668
1761414099133814500,3.298814453125,6.624327539107203,0.20379456148622557,0.9679613811887801
1761414099143827500,3.308827392578125,6.159551388263702,0.052422151556797324,0.9865835179418325
1761414099153839600,3.318839599609375,5.951231293910741,-0.21828476780001071,0.813178815755993
1761414099163851800,3.328851806640625,6.1044490942448375,-0.6601149638745933,0.48743616481050844
1761414099173864700,3.33886474609375,6.261137785559892,-1.2059091365642844,0.2719884105347097
1761414099183876900,3.348876953125,6.307509660634398,-1.463559517405927,0.38042240870334204
1761414099193889500,3.3588896484375,5.764080244314671,-1.318542266923189,0.6502368361998349
1761414099203901700,3.368901611328125,4.2715562059700485,-0.8278836329348385,1.2043526278372854
1761414099213914600,3.37891455078125,2.3010066591084004,-0.31493739848844704,1.8175559106722472
1761414099223926800,3.3889267578125,-0.20683014805614947,-0.00956884252987802,2.482514734381437
1761414099233939700,3.398939697265625,-2.5176222881197927,0.10787672961205244,2.739858387361467
1761414099243951600,3.40895166015625,-4.549723743531108,-0.1741737137969583,2.6778900069653986
1761414099253964500,3.418964599609375,-6.754627405190467,-0.21094547442048786,2.3713079835638404
1761414099263976400,3.4289765625,-9.669484339800476,0.018012407356873154,2.1705527715072033
1761414099273989600,3.43898974609375,-14.189820660805701,0.5836339278709143,2.1519383796691893
1761414099284001500,3.44900146484375,-20.80012727334499,1.856973436564207,1.8677661948658524
1761414099294014700,3.4590146484375,-27.036337538397312,3.616595336923003,1.1370568418733775
1761414099304026600,3.469026611328125,-30.179318753504752,5.050616332894563,-0.29550200912375
1761414099314039800,3.479039794921875,-30.321348220348355,5.916611815950274,-2.0803084369584917
1761414099324051700,3.4890517578125,-28.96616929042339,5.99315963357985,-3.657647478279471
1761414099334064600,3.499064697265625,-26.75647547187805,5.434934214666486,-4.568543594813346
1761414099344076500,3.50907666015625,-23.493828597426415,4.507973098516464,-4.416297562120855
1761414099354089700,3.51908984375,-19.68525230653286,3.587021744175255,-3.7325691560119387
1761414099364102700,3.5291025390625,-15.788205120503902,2.4949738184601067,-3.065116469660401
1761414099374114800,3.53911474609375,-12.000669279551506,1.3006139576531945,-2.363206802433729
1761414099384127700,3.549127685546875,-9.043462564989923,0.2967738922230899,-1.6339266054615378
1761414099394139600,3.5591396484375,-6.871714153957367,-0.3610542028233409,-0.9322481897074729
1761414099404152600,3.569152587890625,-5.072379251891374,-0.7809031244426965,-0.40394517697952687
1761414099414164700,3.579164794921875,-3.469086561885476,-1.1226991576317698,-0.07849003773853182
1761414099424177700,3.589177734375,-1.9146826982110738,-1.2929980758219957,0.029837869707122443
1761414099434189600,3.599189453125,-0.5380068067491054,-1.2230856776189059,0.09402838313207029
1761414099444202800,3.60920263671875,0.138017893114686,-0.899288242457062,0.046490898344293236
1761414099454214700,3.619214599609375,0.6435264518409967,-0.4038387209303677,-0.12345854882113635
1761414099464227600,3.6292275390625,1.4992337651163339,0.045101124486327165,-0.41775742923282083
1761414099474239500,3.639239501953125,2.704004691430926,0.3472610205966979,-0.6128659406393766
1761414099484252700,3.649252685546875,4.254328592315316,0.5278359066728502,-0.6021675826229155
1761414099494264600,3.6592646484375,5.813837670174241,0.7651482867542654,-0.495458435485512
1761414099504277800,3.66927783203125,7.157476968953013,0.9663859485656022,-0.3899852598838508
1761414099514289700,3.67928955078125,8.256105149841309,0.9949201152630149,-0.43038814355134963
1761414099524302800,3.689302734375,9.1147111071676,1.031696186735481,-0.7415367442160844
1761414099534314800,3.699314697265625,9.858319396960734,0.9545097058761864,-1.182258942516148
1761414099544327700,3.70932763671875,10.484604206621647,0.8049557618118822,-1.6693185290992258
1761414099554339600,3.719339599609375,10.57568674556017,0.6934715092271566,-2.197709950762987
1761414099564352800,3.729352783203125,10.59388525007367,0.6176907304473221,-2.474991353139281
1761414099574364700,3.73936474609375,11.186693322068452,0.5613713887888938,-2.4526883359164
1761414099584377900,3.7493779296875,12.050634210681915,0.4726686576589942,-2.1988797251947223
1761414099594390500,3.759390625,12.905158451652525,0.37581089631989595,-1.9323843591183423
1761414099604402700,3.769402587890625,13.642677776920795,0.17197525390461085,-1.7483512954123317
1761414099614415600,3.77941552734375,14.067358648741244,-0.029324294161796566,-1.6562820835240184
1761414099624427500,3.789427490234375,14.09377436197996,-0.2373382451750338,-1.723648815832287
1761414099634440700,3.799440673828125,13.865422702467441,-0.4613819783605635,-1.9511783453069627
1761414099644452600,3.80945263671875,13.317442783236503,-0.5552218531832098,-2.1496847555235026
1761414099654465800,3.8194658203125,12.54110185214281,-0.4687300030358135,-2.112703516867757
1761414099664477700,3.829477783203125,11.864323703563212,-0.3017902590803802,-1.9534275855384766
1761414099674490600,3.83949072265625,11.321934151685237,-0.18766309077143667,-1.7692894540227948
1761414099684502500,3.84950244140625,10.925993052136898,-0.07291559860706329,-1.6054815783523022
1761414099694515700,3.859515625,10.469703574609756,0.06804682352691889,-1.3792374125130473
1761414099704527600,3.869527587890625,9.599469723331927,0.2394796411179006,-1.0311499510295687
1761414099714540800,3.879540771484375,8.570361653393507,0.3863230841144919,-0.7206330723971128
1761414099724552700,3.889552734375,7.851146046578884,0.5860320019885897,-0.5316488890897483
1761414099734565600,3.899565673828125,7.614772993174195,0.5612216781198978,-0.3335128465555608
1761414099744577500,3.90957763671875,7.426661574113369,0.44780207355841994,-0.24580555620379743
1761414099754590700,3.9195908203125,6.911503143510222,0.5205931690029799,-0.29653190016075964
1761414099764602600,3.9296025390625,5.988578151008486,0.8229616663627326,-0.24835933233983815
1761414099774615800,3.93961572265625,4.244199997010827,1.2061562431931494,0.049978813525289295
1761414099784627700,3.949627685546875,1.4034855724543331,1.3336306765921413,0.7667009960889816
1761414099794641000,3.959640869140625,-1.4205284771919249,0.45338528051823374,1.907404816162586
1761414099804652800,3.96965283203125,-2.9925907471537587,-1.1650525177799165,2.9915263327926396
1761414099814665500,3.97966552734375,-3.7856080877602096,-1.5549927694782615,2.5280045659244057
1761414099824678700,3.9896787109375,-6.488876866132021,-0.3609755115639418,0.5015609536116943
1761414099834690600,3.999690673828125,-12.986657169687748,0.6509789598040282,-0.6967993384756147
1761414099844703700,4.009703857421875,-21.15934870778322,0.7209381928235292,-0.3084763127155602
1761414099854715600,4.019715576171875,-26.4743174033761,0.24695874482691285,0.6913306247409433
1761414099864728600,4.029728515625,-28.12740375959873,2.707843538941443,-1.9490967167273163
1761414099874740500,4.039740478515625,-28.47060227999687,4.164665857046843,-3.8466795193165537
1761414099884753700,4.049753662109375,-27.44464478304386,4.274212565697729,-4.296613198076188
1761414099894765600,4.059765625,-26.087153484523295,4.55121135174036,-4.821823651616275
1761414099904778800,4.06977880859375,-24.21273908381462,4.653785298769176,-5.335173863753676
1761414099914790700,4.079790771484375,-22.367101864778995,4.4726764519467945,-5.3187178189933295
1761414099924803800,4.089803955078125,-19.42920599988699,3.7665295855417846,-4.2709339824184775
1761414099934815700,4.099815673828125,-15.571059914660452,2.8065529194965957,-3.1348537304922934
1761414099944828700,4.10982861328125,-11.137737275719642,1.5724246735334395,-2.6076398281753064
1761414099954840600,4.119840576171875,-7.133439675283432,0.30485344604328274,-1.830122108387202
1761414099964853800,4.129853759765625,-4.26664914470613,-0.7023319842919706,-1.1522719466619193
1761414099974865700,4.13986572265625,-2.33696410767436,-1.3737450987070798,-0.604442322621867
1761414099984878800,4.14987890625,-1.0457435629189014,-1.9754707827813922,-0.2633110369518399
1761414099994890800,4.159890869140625,0.17775661378502844,-2.341936343128979,-0.16717660318491978
1761414100004903700,4.169903564453125,1.5774381177812813,-2.614861596122384,-0.4442172738742083
1761414100014915600,4.17991552734375,3.0609973439037796,-2.551206577813625,-0.5001093665638938
1761414100024928500,4.189928466796875,4.43201857060492,-2.2553196975581344,-0.3801134888846427
1761414100034940700,4.199940673828125,5.481199122235179,-2.09805291409418,-0.19089849249608815
1761414100044953600,4.20995361328125,6.39178485764563,-1.9507284095823763,-0.2135238004758954
1761414100054965800,4.2199658203125,7.483220496681332,-1.734448003874719,-0.3535959957718849
1761414100064978700,4.229978759765625,8.450083999630808,-1.571114759978652,-0.37370727510415014
1761414100074991600,4.23999169921875,9.218683522817493,-1.1458172175645827,-0.39984271009676153
1761414100085003500,4.25000341796875,9.694518827813862,-0.8775152404576539,-0.2357160508006811
1761414100095016700,4.2600166015625,10.110371081012486,-0.574312776491791,-0.09773118317276239
1761414100105028600,4.270028564453125,10.374496649217605,-0.37550022293552754,-0.07514832609519362
1761414100115041800,4.280041748046875,10.633327618145943,-0.2731284474153072,-0.13321275785528122
1761414100125053700,4.2900537109375,10.904861416780948,-0.2055086171288043,-0.20675028775297105
1761414100135066600,4.300066650390625,11.037169115555285,-0.18593458647839725,-0.14902151768803595
1761414100145078800,4.310078857421875,11.245997743952273,-0.23549948544055221,-0.131075380500406
1761414100155092000,4.320092041015625,11.48431433264017,-0.3574342587605119,-0.23395116002000868
1761414100165104000,4.330104248046875,11.605394534957409,-0.44704577529840167,-0.22098434561491012
1761414100175117000,4.340116943359375,11.698160496938227,-0.4801563100006431,-0.015761998081579805
1761414100185129200,4.350129150390625,11.792343339979649,-0.5184583489313721,0.2339055673126131
1761414100195142100,4.36014208984375,11.846360176849364,-0.5467456281956284,0.37928975141160187
1761414100205154300,4.370154296875,11.709015068429707,-0.37507206065133214,0.46241132140830155
1761414100215167000,4.3801669921875,11.386149726486206,-0.2180550141647458,0.5586803961392491
1761414100225179100,4.39017919921875,10.74694698306322,-0.08111768282838165,0.643695670928061
1761414100235192000,4.400192138671875,9.93859997137785,0.10156586596481501,0.880089255664125
1761414100245204000,4.410203857421875,9.070581458061932,0.3293510141683742,1.1065995981588959
1761414100255217200,4.420217041015625,8.109093802931904,0.4068138642836362,1.3147636251673103
1761414100265229000,4.43022900390625,7.279679453298449,0.3192847435103729,1.0515199543632567
1761414100275242000,4.440241943359375,6.699488286292553,0.09777094892757013,0.29909590542986986
1761414100285254000,4.45025390625,6.165105515259504,-0.0707232944608666,-0.22543927919715642
1761414100295267000,4.46026708984375,5.309790416172146,-0.02581363742602989,-0.5865045148711652
1761414100305280000,4.470280029296875,3.948165378847718,-0.15978015452437103,-1.0512616687532514
1761414100315292200,4.480292236328125,2.7159891437351704,-0.6477969687670468,-1.1389501082740723
1761414100325304000,4.490303955078125,2.1866993119269607,-0.7339721541807055,-0.8061569542951882
1761414100335317200,4.500317138671875,1.635597461283207,-0.2847092873547226,-0.44362420335188507
1761414100345330000,4.510329833984375,0.4139186547875404,0.034079151405533775,-0.16172573563419282
1761414100355342000,4.520342041015625,-1.1050754573315382,-0.028681228751596063,0.026701617508009076
1761414100365355000,4.53035498046875,-2.7150235135734078,-0.4798059621930122,-0.058157315941620616
1761414100375367200,4.5403671875,-4.545378407803177,-1.4587415957301855,-0.37785833036899563
1761414100385380000,4.550380126953125,-6.811749806860089,-2.4126092773757875,-0.260977241975721
1761414100395392300,4.560392333984375,-9.743782917198539,-1.60384009475559,-0.7282727004300803
1761414100405405000,4.570405029296875,-13.547438118302821,-0.3380142861606553,-1.2277021584384142
1761414100415417000,4.5804169921875,-17.78833381307125,0.42019996354673056,-1.039877082038298
1761414100425430000,4.590429931640625,-20.855939761459826,1.6718934941537678,-1.857008800138533
1761414100435442000,4.60044189453125,-21.970438296175,3.230801829640567,-2.8388009921506048
1761414100445455000,4.610455078125,-22.010868506240843,3.8595340324535963,-3.4783436350524424
1761414100455467000,4.620467041015625,-22.030608979499338,4.078362953600287,-4.066025157813727
1761414100465480200,4.630480224609375,-21.675373984348774,4.24981637558788,-4.4405452836707235
1761414100475492000,4.6404921875,-20.18937905551195,3.991381127978861,-3.8773365233868358
1761414100485505000,4.650505126953125,-17.79986292282343,3.6913203230395912,-2.6418583241194487
1761414100495517000,4.660516845703125,-15.083167676645516,3.6230101724013686,-1.6237556323200464
1761414100505530000,4.670530029296875,-12.4689823723495,3.2942508039832115,-0.8560130182236433
1761414100515542000,4.6805419921875,-9.813407073044777,2.7187489638373252,-0.26122175478870047
1761414100525555200,4.69055517578125,-7.1319567432492965,1.9957196439534424,0.013307170541677623
1761414100535567000,4.700567138671875,-4.592976025280356,1.0088001720555126,0.2661248522635549
1761414100545580000,4.710580078125,-2.221547922468185,-0.0986993340851739,0.5756382529418915
1761414100555593000,4.720593017578125,-0.1793716477662325,-0.837122732053697,0.803150027564168
1761414100565605000,4.730605224609375,1.380108203998208,-1.2085168348446487,0.9600289807543158
1761414100575618000,4.7406181640625,2.5468957288771867,-1.4337249356344341,1.2032269848082213
1761414100585630200,4.750630126953125,3.3315994146466252,-1.4926643235981463,1.328211574152857
1761414100595643100,4.76064306640625,3.91936540082097,-1.41619673159793,1.4181037342630325
1761414100605655300,4.7706552734375,4.63918364970386,-1.2333552157640457,1.684599977122247
1761414100615668000,4.78066796875,5.773038626796007,-1.0237047495901583,2.0379954818859694
1761414100625680000,4.790679931640625,7.237328504303098,-0.9176705791048705,2.183429496476054
1761414100635693000,4.800693115234375,8.630601894822716,-1.0192676439255475,2.068177123529464
1761414100645705000,4.810705078125,9.704948451891541,-1.0540849825456737,1.8627876758009194
1761414100655718100,4.82071826171875,10.293879390192032,-0.9275859700500965,1.5690816467158495
1761414100665730000,4.83072998046875,10.506928266632556,-0.8452256667494773,1.340508599537611
1761414100675743000,4.840742919921875,10.516697965496778,-0.7965290019892156,1.316878717625141
1761414100685755100,4.850755126953125,10.374210233491658,-0.6899058526348322,1.316259708943963
1761414100695768000,4.86076806640625,10.29121280133128,-0.6270871390197426,1.407516143144667
1761414100705780000,4.870780029296875,10.507793359029293,-0.7253997753422707,1.453253811968863
1761414100715793200,4.880793212890625,10.863029523223638,-0.8060584623567759,1.3960545456707476
1761414100725805000,4.89080517578125,11.079413681566715,-0.8153801251925528,1.5288846608839928
1761414100735818200,4.900818359375,11.064866100776195,-0.8107733620494604,1.818353636921197
1761414100745830100,4.910830078125,10.880814186239242,-0.8209447735823691,2.0163291551314293
1761414100755843000,4.920843017578125,10.574309611988067,-0.8605626443520188,1.9917634536735713
1761414100765855000,4.93085498046875,10.192139848160743,-0.8380920154772699,1.8790039204560218
1761414100775868200,4.9408681640625,9.691479313987493,-0.7772422638475894,1.8412397147290407
1761414100785880000,4.950880126953125,9.23563991831541,-0.6869567205056548,1.904139092364907
1761414100795893200,4.960893310546875,8.84070887259245,-0.5828063910055905,1.978590229976177
1761414100805905200,4.9709052734375,8.483168523108958,-0.5906240059539676,1.9221463120900093
1761414100815918000,4.98091796875,8.189794064065813,-0.6393750312499702,1.636730118574947
1761414100825930200,4.99093017578125,7.780925093883275,-0.7007076710257679,1.4837214309468865
1761414100835943000,5.00094287109375,7.42160604428947,-0.7533517582375556,1.4514841719478369
1761414100845956000,5.0109560546875,7.1823664955377575,-0.9325506797853856,1.4091478359997271
1761414100855968000,5.020968017578125,7.124279632750153,-1.0414849556263535,1.2893838308475911
1761414100865981200,5.030981201171875,6.9006696148067705,-0.8844393406324088,1.2516187483377754
1761414100875993000,5.0409931640625,6.059370181590318,-0.6813696410883218,1.4434154317826031
1761414100886006000,5.051006103515625,4.554641910710931,-0.46372145415879784,1.7432802757583556
1761414100896018000,5.061017822265625,2.5984371155440806,-0.20004151082932947,1.7815781499706207
1761414100906031000,5.071031005859375,0.32505963711738584,-0.16476736835241318,1.699427690028399
1761414100916043000,5.08104296875,-1.8487591504484413,-0.4078349144270643,1.5810519243642687
1761414100926056200,5.09105615234375,-3.5533085674047467,-0.8227540149614214,1.6141925619438289
1761414100936068000,5.101068115234375,-4.86682745320797,-0.5584145117446779,1.414363670951873
1761414100946081300,5.111081298828125,-7.224978725817799,0.4306039782591164,1.05408023330532
1761414100956093200,5.12109326171875,-11.815647058677673,1.6946555071905254,1.1293041819199918
1761414100966106000,5.131106201171875,-17.485974668061733,3.1614170355081557,1.465372704307735
1761414100976118000,5.141117919921875,-22.492217606222628,4.909353758770227,1.1026689807116985
1761414100986131200,5.151131103515625,-25.738495529675482,6.619781127849221,-0.4298892541185021
1761414100996143000,5.16114306640625,-26.796601730561253,7.8151798301845785,-2.1271325858451426
1761414101006156000,5.171156005859375,-25.734834084558486,8.294328205251693,-2.8278502668082712
1761414101016168200,5.181168212890625,-23.585841695213315,7.822502135896682,-2.598223180532455
1761414101026180900,5.191180908203125,-21.450176404953,7.1136588700145476,-2.1548751637734473
1761414101036193000,5.201193115234375,-19.389245745420453,6.393737160757183,-2.03681036375463
1761414101046206000,5.2112060546875,-16.920906835907697,5.326273348939418,-2.282770014541596
1761414101056218000,5.221218017578125,-13.919324973046779,4.077490262418985,-2.6199776239618657
1761414101066231000,5.23123095703125,-10.797784020853042,2.889543629655242,-2.9481834501504895
1761414101076243200,5.2412431640625,-7.999775934600829,1.7640670431993901,-3.1906106890276074
1761414101086256000,5.251256103515625,-5.629001911783218,0.6657541388053446,-3.4205653998225927
1761414101096268300,5.261268310546875,-3.934710853990912,-0.3676708444841206,-3.8573596110239623
1761414101106281000,5.271281005859375,-2.453212067529559,-1.1869367981340735,-4.276521427161991
1761414101116294100,5.281294189453125,-1.0087135166853665,-1.4977484949946402,-4.369701522901654
1761414101126306000,5.29130615234375,0.3915197759747505,-1.4421835519000887,-3.9073663354694843
1761414101136319200,5.3013193359375,1.7258008792996407,-1.2964903018519283,-3.1680306084290146
1761414101146331100,5.3113310546875,3.1082202828496692,-1.1563184455737472,-2.3116712609857317
1761414101156344000,5.321343994140625,4.534910205280781,-1.0213825171876698,-1.5497785419613122
1761414101166356000,5.33135595703125,5.484118224552273,-0.9056643533602357,-1.1073206789750605
1761414101176369000,5.341368896484375,5.6496694367587565,-0.6997991048134863,-1.0577481812283396
1761414101186380800,5.351380859375,5.979126432052254,-0.4852708034701645,-0.9872937120378017
1761414101196394000,5.36139404296875,6.7892550664573905,-0.5274475649423896,-0.9116315181363374
1761414101206406000,5.371406005859375,7.840740387898683,-0.6470576947070658,-0.9301289325311779
1761414101216419000,5.381419189453125,8.854211912766099,-0.8478380412049591,-0.9190054809704422
1761414101226431000,5.391430908203125,9.530810613125562,-1.2009560442015528,-0.619250965501368
1761414101236444000,5.40144384765625,10.34035589468479,-0.637576603525877,-0.5964554520538077
1761414101246455800,5.411455810546875,11.278569641733169,-0.01393821672052145,-0.8037010125104338
1761414101256469000,5.421468994140625,11.876850007659197,-0.060861442067474125,-0.48945583406984805
1761414101266481000,5.43148095703125,11.906022326129674,-0.14763868502750993,0.14003058464396745
1761414101276494000,5.441494140625,11.381436141967773,-0.025112667816132306,0.6400818643450736
1761414101286506000,5.451506103515625,10.646939963912963,0.3704220428884029,0.6732398914508522
1761414101296519000,5.461518798828125,9.99861634092331,0.9375817327551543,0.6659897741921246
1761414101306531000,5.471531005859375,9.560497895380854,1.3614486578442155,0.8346120644070207
1761414101316543700,5.481543701171875,9.595238369372487,1.738868450665474,1.1769658776093275
1761414101326556000,5.491555908203125,10.189411299979685,2.1006344550199807,1.6165268501102923
1761414101336568800,5.50156884765625,10.924297938656807,2.1018308251976965,1.8215793209694324
1761414101346581000,5.5115810546875,11.566191820859908,2.141891909690201,1.8799423703499136
1761414101356594000,5.521593994140625,11.852329314386845,2.2613334048897027,1.7401485536038874
1761414101366606000,5.531606201171875,11.59163021349907,2.1809815188020467,1.3989476367637514
1761414101376618800,5.54161865234375,10.841842942810057,1.9533800931349397,1.061310769080743
1761414101386631000,5.551630859375,9.840049580776691,1.6669979771971701,0.7118575722020118
1761414101396643800,5.561643798828125,8.706585648828744,1.299144615752995,0.6118961457591503
1761414101406657000,5.571656982421875,7.935530549183487,1.0550389222696424,0.633218846707791
1761414101416669000,5.5816689453125,7.543644277983903,0.9997098337575793,0.5902906823463737
1761414101426682000,5.59168212890625,6.98757983649671,0.8302250814944505,0.694594521907717
1761414101436694000,5.601694091796875,6.292945128709078,0.5366910479754209,0.5995354074884206
1761414101446707000,5.61170703125,4.971678405258059,0.15331556162014603,0.6236588450714945
1761414101456718800,5.62171875,2.143988881969452,-0.4680164479389786,1.0867124829713255
1761414101466732000,5.63173193359375,-1.176757130229473,-1.2517661939844489,1.3637509434372186
1761414101476744000,5.641743896484375,-4.033082965415716,-2.040057090590894,1.1642146056510507
1761414101486756900,5.6517568359375,-7.042211590394377,-2.038537918199599,0.48267048477865754
1761414101496769000,5.66176904296875,-11.165879666620492,-1.2071703886717557,-0.4016573583032936
1761414101506781700,5.67178173828125,-16.10176721205115,-0.058467386537790295,-1.1149636680088937
1761414101516793900,5.6817939453125,-20.151569841599464,1.4992483781635761,-1.4975836598217487
1761414101526806800,5.691806884765625,-22.591609708344937,2.9758336736202238,-1.6729934182196855
1761414101536819000,5.70181884765625,-23.0619931776762,3.980851550658047,-1.6442691357776522
1761414101546832000,5.711831787109375,-21.99048973507881,3.7872327663525938,-2.0234696745358405
1761414101556844000,5.721843994140625,-19.797660542094707,3.0715532247096298,-2.534056121048331
1761414101566857000,5.73185693359375,-17.040758373212814,2.2447661548398434,-3.22575126825273
1761414101576869000,5.741869140625,-14.338422491776942,1.3602667545832692,-3.5169641653478143
1761414101586881800,5.7518818359375,-12.01707330186367,0.5303380256868898,-3.42460766095072
1761414101596894000,5.76189404296875,-9.637285366985202,0.16838059041351078,-3.0094694012403487
1761414101606907000,5.771906982421875,-7.6028668668031685,-0.09834551567882299,-2.391462882842123
1761414101616918800,5.781918701171875,-5.7423862989008425,-0.18235928527489303,-1.4071223215214907
1761414101626932000,5.791931884765625,-4.094049183031917,-0.13743234831169246,-0.9293199542358517
1761414101636944000,5.80194384765625,-2.50811562410593,-0.16184125177264214,-0.8420407531030476
1761414101646956800,5.811956787109375,-0.8599813373327255,-0.4678494208090007,-0.9689737731017172
1761414101656969000,5.821968994140625,0.8641285201400518,-0.9544697391919791,-1.4143825217828154
1761414101666982000,5.83198193359375,2.454045595744252,-1.5222937381863593,-1.8868010040730236
1761414101676993800,5.841993896484375,3.7514568118333815,-1.9227387250252066,-2.5203157649874686
1761414101687007000,5.852007080078125,4.6465123851567505,-2.070986774122715,-2.9400740857139227
1761414101697020000,5.86202001953125,5.081217222863436,-2.017233264364302,-2.8388050838038326
1761414101707032000,5.872031982421875,4.989354347202181,-1.6087183683164417,-2.4814777925491334
1761414101717044700,5.882044677734375,4.48918188880682,-1.0555550550982356,-1.8025106094926595
1761414101727057000,5.892056884765625,4.080996809235215,-0.7874898093566298,-0.9009675007808953
1761414101737069800,5.90206982421875,3.983350089475512,-0.6548465950176119,-0.3981519074656069
1761414101747082000,5.91208203125,4.179934737849235,-0.5249995872683823,0.05671433689196128
1761414101757095000,5.922094970703125,4.734248536276817,-0.34295477477014064,0.5592921713620423
1761414101767107000,5.932107177734375,5.4796676748842,-0.22449381504058838,1.1445296619720757
1761414101777120000,5.9421201171875,6.152030345109105,-0.21253369346000253,1.3482016382582485
1761414101787132000,5.9521318359375,6.538653581213951,-0.3911349413756281,1.5216304519720374
1761414101797144800,5.962144775390625,6.777907743012904,-0.39495639935992655,1.7670257468745112
1761414101807156700,5.97215673828125,7.00854312954843,-0.34612741345688697,1.8296587286591528
1761414101817170000,5.982169921875,7.382841137087345,-0.2845220942195505,2.04569714230448
1761414101827181800,5.992181884765625,7.657609095337986,-0.23578115192614493,2.1907973948955535
1761414101837195000,6.002195068359375,7.946964381867646,-0.07188552490696311,2.4581053925290703
1761414101847207000,6.01220703125,8.129708720937371,0.05440554392635822,2.4043925070419907
1761414101857219800,6.0222197265625,8.045340584945679,-0.023328122486919164,2.076196471595019
1761414101867231700,6.032231689453125,7.95742089395225,-0.05898001223504543,1.8934091701664029
1761414101877245000,6.042244873046875,7.942583974826335,-0.05169526205435395,1.8506820813350378
1761414101887256800,6.0522568359375,8.016829360732435,0.04038242540135979,1.8828399914875626
1761414101897270000,6.06227001953125,7.85396870278418,0.1606989498697221,1.87171069470793
1761414101907282000,6.072281982421875,7.390109082263708,0.23146394631415604,1.7983249943710862
1761414101917295000,6.082295166015625,6.478043337428569,0.41178485762923955,1.7167792223237455
1761414101927307000,6.09230712890625,5.379574731016159,0.5388542173586786,1.9511749843060968
1761414101937320000,6.10231982421875,4.308524292883277,0.8027453192207962,2.333880170184374
1761414101947331800,6.112331787109375,3.3831519072294234,1.3313779292292893,2.77598680858016
1761414101957345000,6.122344970703125,3.0853754138350484,1.6664553947530687,3.0847286403641103
1761414101967357000,6.13235693359375,2.9309008914381263,1.578569898290187,3.141341923467815
1761414101977370000,6.1423701171875,3.3410826977849006,1.2130207221351563,3.052699471157789
1761414101987382000,6.152382080078125,3.972009780293703,0.09561813654154538,2.9857991873174905
1761414101997394700,6.162394775390625,4.016324138316512,-1.0194557138435543,3.2338165012866256
1761414102007407900,6.172407958984375,2.201028281530738,-0.4249164341419935,2.097813113988936
1761414102017419800,6.182419677734375,-1.1343956598401068,-0.9960865286938846,2.0033347951322793
1761414102027433000,6.192432861328125,-3.1578122890144584,-0.5953016423761844,2.1270244492955506
1761414102037444900,6.20244482421875,-5.591030200785398,-0.3326445392884314,2.200187154531479
1761414102047458000,6.2124580078125,-10.689306110477446,-0.7692194086506963,2.314667374061793
1761414102057470000,6.222469970703125,-17.78156271150112,-0.06803250274062156,1.4170447267293929
1761414102067483000,6.23248291015625,-23.20900978528261,1.127617397876829,-0.26901922199819234
1761414102077494800,6.242494873046875,-25.765615007269382,2.405751228174567,-2.669418823479116
1761414102087508000,6.252508056640625,-26.855521537041664,3.4295582690954207,-4.333988112224638
1761414102097519900,6.262519775390625,-27.191560833334922,3.351829132726788,-4.818666941151022
1761414102107533000,6.272532958984375,-26.280894433903693,3.460720007817447,-6.33156507448256
1761414102117545000,6.282544921875,-23.158013757538793,1.8914131740435958,-5.689025295591354
1761414102127558000,6.292557861328125,-18.624183748710156,0.917234087383747,-5.234328055691718
1761414102137569800,6.30256982421875,-14.188056573742628,-0.25571853599622846,-4.216576661548018
1761414102147582700,6.312582763671875,-10.047321042859554,-0.839265589301288,-3.6233883580639956
1761414102157594600,6.3225947265625,-6.453880371552706,-1.868288319043815,-2.91047243591547
1761414102167607800,6.33260791015625,-3.9515696343332527,-1.8261359613604842,-2.7726795837283134
1761414102177619700,6.34261962890625,-2.0220587848246097,-1.7720951590932905,-2.1790734932236373
1761414102187633000,6.3526328125,-1.75163207064867,-1.2052522800907493,-1.2679209177106618
1761414102197644800,6.362644775390625,-0.49290451321899886,-0.6062990564044565,-1.1471673900645225
1761414102207657700,6.37265771484375,0.7889905693084001,-1.053312902194634,-0.9794071965716779
1761414102217669600,6.382669677734375,2.6911966477841136,-0.6104819681122898,-0.8984791180312633
1761414102227682800,6.392682861328125,5.1442076397836205,-0.6633861675649881,-0.8472372988328337
1761414102237694700,6.40269482421875,7.765552168184518,-0.6202900992907583,-0.9966807682599872
1761414102247708000,6.4127080078125,9.51475613490343,-0.5973647123858332,-0.6403681339405477
1761414102257719800,6.4227197265625,11.020306828081607,-0.1894575729727745,-0.4414836476592347
1761414102267732700,6.432732666015625,12.334728215682507,-0.023208587760478256,-0.7139627277877182
1761414102277745000,6.442744873046875,12.583135990273952,-0.10064707061946392,-0.8891312247756868
1761414102287757800,6.4527578125,11.579366944253444,0.2331722115367651,-0.7031926927745342
1761414102297769700,6.462769775390625,10.681192946648597,0.7537627501912415,-0.7343041626140475
1761414102307783000,6.472782958984375,10.26987775235772,0.8579714588150381,-0.3886567512264475
1761414102317794800,6.482794921875,10.031173041135071,0.9600105683147907,0.41861864917203784
1761414102327808000,6.49280810546875,10.53390745897293,1.2370322968415914,0.5890922663420438
1761414102337820000,6.50281982421875,11.218591850632428,0.9822608324371278,0.8098279709581285
1761414102347832600,6.51283251953125,11.59088202548027,0.9239572581589222,0.9664086718540638
1761414102357845800,6.522845703125,11.629535289001463,0.9022897623606025,0.8887564731791615
1761414102367857700,6.532857666015625,11.502986299884318,0.7514940746068954,0.7597266270317137
1761414102377870800,6.542870849609375,11.316431462615729,0.7185637187771499,0.5691122121740132
1761414102387882800,6.5528828125,10.852456691282987,0.8086552008517086,0.5242464673461392
1761414102397896000,6.56289599609375,10.189750322675705,0.8599801682889461,0.7196777444336563
1761414102407907800,6.572907958984375,9.581684475794434,0.7800402240030467,0.7596785501062869
1761414102417920800,6.582920654296875,8.915766159403324,0.812216692725569,0.5928604963017627
1761414102427932700,6.5929326171875,8.234816862618922,0.704838121894002,0.46140733199752865
1761414102437945900,6.60294580078125,7.8236863772451875,0.5651391438245773,0.3934023383183405
1761414102447957800,6.612957763671875,7.583910237398743,0.5555654059238732,0.398101346322149
1761414102457971000,6.622970947265625,6.892140855914354,0.7264609017677605,0.8478885292831808
1761414102467982800,6.63298291015625,5.338530188444256,1.2388527902670203,1.1734284972634166
1761414102477995800,6.642995849609375,3.279941123601794,1.7129022347599268,1.3492773046657442
1761414102488007700,6.653007568359375,1.3237088559061287,1.5320574457012115,1.6476001798965036
1761414102498020900,6.663020751953125,-0.30364509316682814,-0.1349900697261095,2.4646108289003372
1761414102508032800,6.67303271484375,-1.1943728664189577,-1.809706366215646,2.8465426923185584
1761414102518046000,6.6830458984375,-2.5526363183557987,-1.287915073469281,1.998506936584413
1761414102528057900,6.693057861328125,-6.200094411054253,-0.23039397899508474,0.4638854125488549
1761414102538070800,6.70307080078125,-12.34585283628702,0.1531492651425302,-0.6945850234270096
1761414102548083000,6.7130830078125,-18.307266501516104,-0.07837773647047579,-0.46530886948071415
1761414102558095600,6.723095703125,-20.716568700170516,0.18291085474304855,-0.6933643955908715
1761414102568107800,6.733107666015625,-20.091663362169264,1.384897484101355,-1.843346916141361
1761414102578120700,6.74312060546875,-18.970368006920815,2.222152902624011,-2.7171958891764283
1761414102588132900,6.7531328125,-18.24915567333102,1.9132849602423607,-3.511439264446497
1761414102598145800,6.763145751953125,-16.29259607337713,0.7764738367583602,-3.675836922703683
1761414102608158000,6.773157958984375,-13.352111945557594,-0.6830079828798771,-3.216803114904463
1761414102618170600,6.783170654296875,-11.10948616374731,-1.797028086428344,-3.1737714901685714
1761414102628182800,6.793182861328125,-10.10143140323162,-2.5032728602498766,-3.250181360632181
1761414102638195700,6.80319580078125,-9.3904563860178,-3.0191511295601723,-2.9324843612372873
1761414102648208000,6.813207763671875,-8.195194461804627,-3.408720355989039,-2.5503531758546827
1761414102658220800,6.823220703125,-6.416967229697108,-3.815965816622972,-2.2098358573645354
1761414102668232700,6.833232666015625,-4.903462947165965,-4.130715948911011,-2.0365933600030837
1761414102678246000,6.843245849609375,-4.035538541874289,-4.215930180338025,-1.891535631379485
1761414102688258800,6.8532587890625,-3.2063176689863204,-3.7477328228741884,-1.4188807099848986
1761414102698270700,6.863270751953125,-2.130232159295678,-2.549551211822033,-0.8997139205232262
1761414102708284000,6.873283935546875,-1.8565613486319779,-1.5726432847201823,-0.3560365207917988
1761414102718295800,6.8832958984375,-2.201510512089729,-1.1159911113604903,0.045687619137391444
1761414102728308700,6.893308837890625,-1.8533967471212147,-0.5934850214082747,0.265025220458582
1761414102738321000,6.90332080078125,-0.4298936380326748,-0.1390845724981278,0.9472464368749409
1761414102748333600,6.91333349609375,1.625615580973029,0.4060847462914884,1.8390552102968096
1761414102758345700,6.923345703125,3.178294520550966,0.8897503065221011,2.6323388006240127
1761414102768358700,6.933358642578125,4.225426907479763,0.9232463334105908,2.573066235183179
1761414102778370800,6.943370849609375,5.0692754406571385,1.3262830903083085,2.6778786087885496
1761414102788383700,6.9533837890625,6.199423964446782,1.4943758036911488,2.672156724010408
1761414102798396000,6.96339599609375,7.644289010515808,1.1205034742183984,2.295755752842873
1761414102808408800,6.973408935546875,8.769120138674975,0.9295415610972791,1.9390819570608435
1761414102818421000,6.9834208984375,9.039265697821975,1.1154685487911105,2.0626129135310647
1761414102828433700,6.99343359375,9.072236824053526,1.0214181730229408,1.932230045339465
1761414102838445800,7.00344580078125,9.11262319497764,0.9043651073299348,1.8460951919361948
1761414102848458800,7.013458740234375,9.136066029885411,0.8977603022374212,1.7964134616613388
1761414102858470700,7.023470703125,9.273899214082956,0.8784957759276032,1.7587893950574098
1761414102868483800,7.03348388671875,9.497816690540313,0.8101005773544311,1.6076897559210657
1761414102878495700,7.043495849609375,9.707457219842075,0.742671593464911,1.4403409927733242
1761414102888508700,7.0535087890625,9.850904152268171,0.7250839143261313,1.4393201252929866
1761414102898520800,7.063520751953125,9.905459918320178,0.7216387423083186,1.4664248437091707
1761414102908533800,7.07353369140625,9.759485513243078,0.6507343373931944,1.479168005426228
1761414102918545700,7.083545654296875,9.49605026538968,0.5248498035341501,1.4791954779550431
1761414102928558800,7.093558837890625,9.05378580608368,0.4810908874370157,1.3329177060171962
1761414102938570800,7.10357080078125,8.49928086899817,0.5348953967303037,1.2968727252982557
1761414102948584000,7.113583984375,7.892807844266295,0.6947256009414792,1.1812808912642299
1761414102958595800,7.123595947265625,7.088081361165642,0.9450747188590466,1.0506593189459295
1761414102968608800,7.13360888671875,6.207500887918472,1.0614211706526577,0.7482255012650042
1761414102978620700,7.14362060546875,5.258364764839411,0.6062615739382803,-0.22884726100973785
1761414102988633900,7.1536337890625,4.068680348497629,-0.12162366154417395,-1.2066588589530438
1761414102998645800,7.163645751953125,2.4130899004995823,-0.6660740914747119,-1.5403911204129457
1761414103008659000,7.173658935546875,0.5972416705280542,-0.542975827333331,-2.1208654882743954
1761414103018670800,7.1836708984375,-1.5244529620468616,-0.7798683745674788,-2.4011964874796567
1761414103028683800,7.193683837890625,-3.0688644240170717,-1.4533032040685414,-1.358132080642134
1761414103038696000,7.203696044921875,-1.2941980992615223,-3.350979237899184,0.8410641631558538
1761414103048708600,7.21370849609375,2.8133552929878234,-4.562996189819276,1.0343880561679601
1761414103058720800,7.223720703125,2.121037629970908,-2.5337866564571856,-1.1694972952943294
1761414103068733700,7.233733642578125,-7.411676186427473,-0.629503917837888,-1.6551546869292855
1761414103078747000,7.243746826171875,-17.801069376003742,-0.23772461414411664,-1.343235101892054
1761414103088758800,7.2537587890625,-21.646734749841688,0.8108462811551987,-0.8472976507179438
1761414103098771700,7.263771728515625,-19.753568886911868,3.4747722063064574,-1.4065890914276242
1761414103108783600,7.27378369140625,-18.121990598142148,2.7449931199014186,-0.5147838616697117
1761414103118796800,7.283796875,-16.789684009760617,1.327186468888819,-0.05539828129075467
1761414103128808700,7.29380859375,-15.26326471607685,1.131971793694049,-1.1992088352080434
1761414103138822000,7.30382177734375,-14.026135826992988,0.6787685917444527,-1.9684639727592468
1761414103148834300,7.313834228515625,-12.864825272220372,0.3056011956706643,-2.301375784681737
1761414103158847000,7.323846923828125,-11.587222918450832,0.12279840441197157,-2.249909509077668
1761414103168859100,7.333859130859375,-10.03520507313013,-0.015748627143353223,-1.7708404828570783
1761414103178872000,7.3438720703125,-8.02064395058453,-0.4331773358784616,-0.9285402751002461
1761414103188884200,7.35388427734375,-5.712641148978472,-0.8017410375490784,-0.00676364891603589
1761414103198897200,7.363897216796875,-3.4963398949921127,-1.0325748692661523,0.8840085479997097
1761414103208909300,7.373909423828125,-1.613371600949764,-1.0178380495138466,1.3097978194534778
1761414103218922200,7.383922119140625,-0.176961079493165,-0.7963515995956957,1.0479606544464826
1761414103228934400,7.393934326171875,1.001857074919343,-0.4097960218995809,0.558229802827537
1761414103238947000,7.403947021484375,1.8972306281507014,-0.3375638755120337,0.11346095948517322
1761414103248959200,7.413959228515625,2.678681449604034,-0.5182052509531379,-0.26710034623220563
1761414103258972200,7.42397216796875,3.409014662760496,-0.5817857427209615,-0.29070626274719835
1761414103268984300,7.433984375,4.329570588043332,-0.4681773375891149,-0.03749795600622892
1761414103278997200,7.443997314453125,5.703633082136512,-0.26629049115404485,0.4949265205658972
1761414103289009200,7.454009033203125,7.0733549166768785,-0.2626435129538178,1.1396266923613845
1761414103299022000,7.46402197265625,8.10160490848124,-0.4929167881786823,1.9217546824239193
1761414103309034000,7.474033935546875,8.767791520419717,-0.6882713102355599,2.6387077511340378
1761414103319047200,7.484047119140625,9.13216902244687,-0.6295799787487835,2.9792011042267084
1761414103329059000,7.49405908203125,9.23651670114994,-0.5634355547770857,2.9687936919808386
1761414103339072300,7.504072265625,9.03503843551576,-0.7572166900373994,2.6924469401061533
1761414103349084200,7.514084228515625,8.696529534238577,-1.021518126266077,2.295273960675299
1761414103359097300,7.524097412109375,8.55012141391933,-1.1452990389093756,1.88099816301316
1761414103369109200,7.534109130859375,8.481765086051821,-1.2112561236154287,1.5705163556940853
1761414103379122200,7.5441220703125,8.30804050426185,-1.2528899373173712,1.4389857787720859
1761414103389134000,7.554134033203125,8.065327141919731,-1.275192370018363,1.3879659317612647
1761414103399147300,7.564147216796875,7.99160548762679,-1.2222592367321252,1.3497855464488266
1761414103409159200,7.5741591796875,8.095680194607377,-1.137371022389084,1.3051790736116469
1761414103419172400,7.58417236328125,8.140393781080842,-1.0049646124806255,1.3716386279471218
1761414103429184300,7.594184326171875,7.799221798074245,-0.8893009553194046,1.486224938200414
1761414103439197200,7.604197265625,7.104989241346717,-0.5917988218870014,1.3722097058333456
1761414103449209000,7.614208984375,6.5097255928933615,-0.12129464878551661,1.0830194006070495
1761414103459222300,7.62422216796875,5.854451420113444,0.24484482141286135,0.9033068304486572
1761414103469234200,7.634234130859375,5.197769718623161,0.45223304174318907,0.7955690709158778
1761414103479247000,7.6442470703125,4.776089197662473,0.5212376043863595,0.7378058871246874
1761414103489260300,7.65426025390625,4.265780545178056,0.5621252028308809,0.9942974533200264
1761414103499272200,7.664272216796875,3.3264275649666786,0.6890203750371933,1.3443259658686817
1761414103509285000,7.67428515625,2.142380277729034,0.4555832289539277,1.6209946431741118
1761414103519297000,7.684297119140625,1.2304583252787589,-0.7651184030726551,2.3760446566969153
1761414103529310200,7.694310302734375,1.403569743606448,-2.3916674655035135,2.7579654141992327
1761414103539322000,7.704322021484375,2.0330887128829955,-2.6117487247988582,1.698557044673711
1761414103549335300,7.714335205078125,1.09328506629467,-0.6193081025160849,-0.3282479117646813
1761414103559347200,7.72434716796875,-2.8253917677402494,1.2785092394813895,-1.3479827348105609
1761414103569360400,7.7343603515625,-8.023895645856857,1.8047423140674828,-1.3014306808635592
1761414103579372300,7.744372314453125,-13.182713994795083,0.4589341468170285,-1.0001092814039438
1761414103589385200,7.75438525390625,-14.905114125740527,-0.32386545889675616,-1.531548765526712
1761414103599397000,7.764397216796875,-14.146208313572407,0.7203438801921903,-2.1584861938774584
1761414103609410300,7.774410400390625,-13.716874647510052,1.568123176947236,-2.755066477887332
1761414103619422200,7.784422119140625,-14.173828141903876,1.153085601132363,-3.7439910059973593
1761414103629435400,7.794435302734375,-15.112468589931726,0.4213775924913585,-4.784453121381998
1761414103639447300,7.804447265625,-15.83445716859102,0.7083553362347185,-5.271236521372199
1761414103649460200,7.814460205078125,-15.988308006131648,1.5751789406776426,-4.860206281502545
1761414103659472100,7.82447216796875,-15.375100120186804,2.0076687326833604,-3.7405335590198634
1761414103669485000,7.834485107421875,-13.737867166656255,1.6227271660551428,-2.5366367851912974
1761414103679497200,7.844497314453125,-11.363400134539603,0.7723771420292556,-1.9426976633399724
1761414103689510100,7.85451025390625,-8.736244289511442,0.1365042736813426,-1.8553084259614347
1761414103699522300,7.864522216796875,-6.393422687980532,-0.43944538329727945,-1.467676012814045
1761414103709535200,7.87453515625,-5.111539880412817,-0.8679012436117977,-0.5012826115943492
1761414103719547400,7.88454736328125,-4.170389495390653,-0.8930220216691493,0.32382600366920233
1761414103729560000,7.89456005859375,-2.8056308362156153,-0.5205863008707762,0.4721603428106755
1761414103739572200,7.904572265625,-1.9971628284990786,-0.5066350054729729,0.4416533416703343
1761414103749585200,7.914585205078125,-1.2536200051575899,-1.0339280374407767,0.3801736215740442
1761414103759597300,7.924597412109375,0.24872458545565604,-1.0328228526778518,0.6377842549271882
1761414103769610200,7.9346103515625,2.5137305413782594,-0.5995388415545225,0.8280939146846532
1761414103779622400,7.944622314453125,4.628939319065213,-0.5317660126633942,1.1067173793196678
1761414103789635000,7.954635009765625,6.233275380644202,-0.42095761351361866,1.321526543430984
1761414103799647000,7.96464697265625,7.5262880695134395,-0.19795988224968314,1.5281176220342516
1761414103809660200,7.97466015625,8.569656135472655,-0.00978109704107046,2.014983585741371
1761414103819672000,7.984672119140625,9.158568369072675,0.06646876055523752,2.8844772861763834
1761414103829685200,7.994685302734375,9.483047575953602,0.17461612380221486,3.5131133351385593
1761414103839697200,8.004697265625,9.17545696003139,-0.1936918495416641,3.781842597746849
1761414103849710300,8.01471044921875,9.164829767554998,0.11166004754304885,3.149414463025331
1761414103859722200,8.02472216796875,9.402375956392287,-0.03491816864609718,2.834479329559207
1761414103869735200,8.034735107421875,9.717863463044166,-0.3820880768932402,2.9168735351294277
1761414103879747000,8.0447470703125,9.757574126663803,-0.5961360473737121,2.8065888675928115
1761414103889760300,8.05476025390625,9.49946211965978,-0.5851897059455513,2.3925093231551346
1761414103899772200,8.064772216796875,9.233844267070292,-0.2717455416895449,1.6714321602523325
1761414103909785300,8.074785400390626,8.948396509373188,0.06844152193292975,1.5956126568973064
1761414103919797200,8.08479736328125,8.489231768670678,0.697548695538193,2.1041220048747955
1761414103929810200,8.09481005859375,7.826378685069083,1.6319797091774642,2.7966315372020003
1761414103939823000,8.104822998046876,7.3632298431664704,2.334367661440372,3.139868343783915
1761414103949835300,8.114835205078125,6.897762787449359,2.5248405489355323,2.941885226789117
1761414103959848200,8.12484814453125,6.3523863287150855,2.279553682843596,2.3337601970665154
1761414103969860400,8.1348603515625,5.69979452688694,1.7859964048042893,1.5519605621755121
1761414103979873300,8.144873291015625,4.8997506486445666,1.2781029967680573,0.7488837459780275
1761414103989885200,8.15488525390625,4.208206892609596,1.003109559198469,0.23072416079752145
1761414103999898000,8.164898193359376,3.4995991890490052,1.014475441212952,0.07457191444672644
1761414104009910000,8.174909912109374,2.6899586304217578,1.0108261249251662,0.3685067838516086
1761414104019923200,8.184923095703125,1.948461049172282,1.0049570867612958,0.7160427489321678
1761414104029935000,8.19493505859375,1.2835557092159986,0.8728183148130774,0.897216112358123
1761414104039948300,8.2049482421875,0.2721890476733446,0.2719189985603094,0.9663334146607666
1761414104049960200,8.214960205078125,-1.1330278786182404,-0.8575941499352454,1.1663213686719536
1761414104059973000,8.22497314453125,-2.3931781623274087,-2.294858804003149,1.6676909278973937
1761414104069985000,8.234985107421876,-3.421881158596277,-3.3688892808601256,1.8872952173307538
1761414104079998200,8.244998291015625,-4.952025025761127,-2.6466288995221254,0.5231134081955999
1761414104090010000,8.255010009765625,-7.671569816151261,-0.8691051395088434,-1.3240655603893101
1761414104100023300,8.265023193359376,-10.271416213971376,0.0526245057284832,-1.6116434619829059
1761414104110035200,8.27503515625,-11.083119550347327,0.1968079357355833,-1.4087963922135531
1761414104120048400,8.28504833984375,-11.19449435120821,-0.2562535196557641,-1.3942574331209063
1761414104130060300,8.295060302734376,-10.84077794392705,-0.7152063711732626,-2.127606486967206
1761414104140073200,8.3050732421875,-10.024580803263186,-1.023093924215436,-2.6032620514824987
1761414104150084900,8.3150849609375,-9.94637761964202,-1.6884858786448835,-2.5042192011892794
1761414104160098000,8.32509814453125,-10.400196907663345,-2.082044466970861,-2.733759778225422
1761414104170110000,8.33510986328125,-11.238663163280487,-2.0970622956216336,-3.105191874939203
1761414104180123100,8.345123046875,-11.896177808463573,-1.5060972211450336,-3.3496301613777875
1761414104190135000,8.355135009765625,-12.000154900288582,-0.7799716888114809,-3.256287568552792
1761414104200148200,8.365148193359374,-11.20797693311572,-0.2087839124724269,-2.711291341307759
1761414104210160000,8.37516015625,-9.626341363644599,-0.3463759813904762,-1.8069865858629346
1761414104220173000,8.385173095703125,-7.406865571275353,-0.7418428875558077,-1.0955240043278782
1761414104230185000,8.39518505859375,-5.091607099452615,-0.8798924909830093,-0.6540050296269356
1761414104240198100,8.4051982421875,-3.4962662452340125,-1.0030521299228072,-0.45540703213680533
1761414104250210000,8.4152099609375,-2.7757208511203526,-0.9771446584671735,-0.6402281409479678
1761414104260223200,8.42522314453125,-2.0023072056502103,-0.7786676204755902,-0.8264709896579384
1761414104270235100,8.435235107421875,-1.0953922677069903,-0.5978915127389133,-0.817903579255566
1761414104280247800,8.445247802734375,-0.13280045072734356,-0.4604410442486405,-0.5071069338336587
1761414104290260000,8.455260009765626,0.8379372633069753,-0.25468838923089204,-0.04083572212681174
1761414104300273000,8.46527294921875,1.7301444614619015,-0.09864354877732694,0.38738589104041454
1761414104310285000,8.47528515625,2.6204642384350296,-0.012458791817724704,0.755440693340823
1761414104320298000,8.485298095703126,3.5000872648268935,-0.04118731204345822,0.8135906114272773
1761414104330310100,8.49531005859375,4.439451935476065,-0.0735934978686273,0.5685724062088877
1761414104340323000,8.505322998046875,5.443395169019698,-0.11178177422657608,0.3511443648360669
1761414104350335200,8.515335205078125,6.3926914510965345,-0.156584061896801,0.20430033731758593
1761414104360348000,8.525347900390624,7.351801855701208,-0.21096958594843743,0.12276830153465271
1761414104370360000,8.535360107421875,8.129363853022456,-0.24624182872921227,0.22255963210761545
1761414104380373000,8.545373046875,8.792674617263675,-0.21168094908818602,0.40905711316578086
1761414104390385200,8.55538525390625,9.179221281000972,-0.2144669265449047,0.6696925011675805
1761414104400398000,8.565398193359375,9.155852680373192,-0.23282222905531524,0.972676134750992
1761414104410411000,8.575410888671875,8.772606811746954,-0.11756919852159917,1.1047252556543796
1761414104420423000,8.5854228515625,8.396544717144966,0.041863750000298024,1.098081579856202
1761414104430436000,8.59543603515625,8.04727418335676,0.2134245778851211,1.1033807091776282
1761414104440448000,8.605447998046875,7.765930353847145,0.3339784182406962,1.1488711252424866
1761414104450461200,8.615461181640624,7.4868322574377055,0.2871470358956605,1.1950367371551691
1761414104460473000,8.62547314453125,7.27800012190938,0.26993118574395775,1.156635914025083
1761414104470486000,8.635486083984375,6.921606604373455,0.3201894007325172,1.1215090710643678
1761414104480498200,8.645498291015626,6.2960524470746515,0.4353814948592335,0.9038659987013786
1761414104490510800,8.6555107421875,5.826415412196517,0.5703020064804702,0.7489471666030585
1761414104500523000,8.66552294921875,5.5479509375154965,0.6854748113848269,0.7801289251998067
1761414104510536000,8.675535888671876,5.438809594795107,0.7879305388614535,0.8065679462488741
1761414104520548000,8.685548095703124,5.281945546913147,0.7348101393748074,1.0159824117098002
1761414104530561000,8.69556103515625,4.631678973162174,0.4599679468441754,1.3849658731624483
1761414104540573200,8.7055732421875,3.1767157269269224,0.1043465096592903,1.1446369948040693
1761414104550586000,8.715586181640624,1.6916291451066732,-0.1695121517267078,0.5775867566611618
1761414104560598000,8.725597900390625,0.46561669332087036,-0.38670901469215746,0.4446251970879733
1761414104570611000,8.73561083984375,-0.42257367040812965,-1.00014676387012,0.8628424989175051
1761414104580623000,8.745623046875,-0.702325846812129,-2.1402624087922275,1.0409622469265014
1761414104590636000,8.755635986328125,-0.9902671748906373,-3.174574330984056,0.22739874270185828
1761414104600648000,8.76564794921875,-2.932317187976837,-3.2469758425891397,-1.3981785520873964
1761414104610661000,8.7756611328125,-6.63453621391058,-2.476927581898868,-2.552078099951148
1761414104620673000,8.785673095703125,-10.452415755200386,-1.7229986813604832,-2.002110367903858
1761414104630686000,8.79568603515625,-12.995471759784222,-0.7460270413726567,-1.0810381636619568
1761414104640697900,8.80569775390625,-13.522564373809098,0.1133136599689722,-0.8656636207528412
1761414104650711000,8.8157109375,-12.151682847839593,0.5960702886611223,-0.46170361153036354
1761414104660723000,8.825722900390625,-10.343251616126299,0.3731913614712655,0.23490678024441003
1761414104670736100,8.835736083984376,-9.41391792562604,-0.015534546001255511,-0.7055576683402061
1761414104680748000,8.845748046875,-9.801760474392772,-0.5412501725845038,-3.076795801538229
1761414104690761200,8.85576123046875,-11.078317118501662,-0.39708362064696845,-4.416121328771114
1761414104700773000,8.865773193359376,-11.82035129084587,0.1130219835460186,-4.4224017242148514
1761414104710786000,8.8757861328125,-10.958445707452297,0.25586842932831494,-3.852389713656902
1761414104720798000,8.8857978515625,-8.849999848029016,-0.08057539264522492,-2.9288153173357245
1761414104730811100,8.89581103515625,-6.2850412237167355,-0.0809890149474144,-1.7355124182358384
1761414104740823000,8.905822998046874,-3.673416125297546,0.06431669708788394,-0.7797511779285967
1761414104750836200,8.915836181640625,-1.2792886994212864,0.06333709319969638,0.013500117564201355
1761414104760848100,8.92584814453125,0.5839513963222503,-0.03620515798302367,0.5579517165385186
1761414104770861000,8.935861083984374,1.6657511920064687,-0.10655096090100705,0.8203953230060637
1761414104780873000,8.945873046875,2.1072113491922617,-0.16243395696878432,0.7882168815221637
1761414104790886000,8.955885986328125,2.406412906953692,-0.14780470751048996,0.6387704894855618
1761414104800898000,8.96589794921875,2.889722493353486,-0.2172732892025262,0.6088530517362057
1761414104810911000,8.975910888671875,3.753635909438133,-0.4042750299884006,0.5372426905088127
1761414104820923100,8.985923095703125,4.823501521700621,-0.589593822656013,0.3554848051931709
1761414104830936000,8.99593603515625,5.739413420569896,-0.7206997078925371,0.18747392487488687
1761414104840948200,9.0059482421875,6.433907258582114,-0.7966482444547116,-0.012668123719468712
1761414104850961000,9.0159609375,6.9056830590546125,-0.704414635784924,-0.23524171128720045
1761414104860973000,9.02597314453125,7.203947628226876,-0.6040341071471571,-0.2413200082875788
1761414104870986000,9.035986083984374,7.423384159877896,-0.598054302085191,-0.07746540739852935
1761414104880998100,9.045998046875,7.706756280344724,-0.4879353465043008,0.10158062514252961
1761414104891011000,9.056010986328126,7.958318135052919,-0.13170074585713445,0.3376255060387775
1761414104901023200,9.066023193359374,7.9225716988891355,0.23452399147190153,0.5729919396841898
1761414104911036000,9.076035888671875,7.753186023086309,0.48989758648797865,0.6966396178692579
1761414104921049000,9.086049072265626,7.634287840983271,0.7715908139571547,0.7225529345437884
1761414104931061000,9.09606103515625,7.523575303423404,1.0608961238652468,0.7414750771567225
1761414104941074200,9.10607421875,7.256854458028077,1.1452952395170926,0.7629694814104586
1761414104951086000,9.116086181640625,6.6586781369984145,1.056585567189753,0.5700157368849963
1761414104961099300,9.126099365234374,5.818491048938036,0.960547159409523,0.23350175401838494
1761414104971111200,9.136111083984375,5.159447294491529,0.9888733824446797,-0.09120700556840747
1761414104981123800,9.146123779296875,4.4450259362161155,0.7821236061483621,-0.22033123373473062
1761414104991136000,9.156135986328126,3.7493583782494064,0.24193945536017417,-0.08122072307774797
1761414105001149000,9.16614892578125,3.1143560091257094,-0.32899697656631466,0.12308770621474832
1761414105011161000,9.1761611328125,2.0829630431205035,-0.8147508873783051,0.29205939438920464
1761414105021174000,9.186174072265626,0.6389227574378251,-1.4312145602487027,0.6795271550267934
1761414105031186200,9.196186279296874,-1.1735405062705278,-2.183653368359804,1.5101060183949768
1761414105041198800,9.20619873046875,-2.626054605787992,-2.8008313269793987,2.3637840177997944
1761414105051211000,9.2162109375,-3.4454607716262338,-2.898224948760867,2.475713237673044
1761414105061224000,9.226223876953124,-4.0654420972287655,-2.2941021404169497,1.6248308603361248
1761414105071236000,9.236236083984375,-4.965996267968416,-2.1397356084391475,1.1022000480256975
1761414105081249000,9.2462490234375,-6.026778994587064,-2.828372829377651,1.425991126511991
1761414105091261200,9.25626123046875,-6.375865988501906,-2.739994288700819,1.6675822068259119
1761414105101274000,9.266274169921875,-5.878671084612607,-2.0943132891744374,1.5450573586583136
1761414105111286000,9.2762861328125,-5.0321360888302324,-1.6207377458035945,1.4141029741890727
1761414105121299000,9.286298828125,-4.601628118291497,-1.4138091058090327,1.3710155276127158
1761414105131310800,9.296310791015625,-5.074391760757565,-1.433786602693796,1.485722687766701
1761414105141324000,9.306323974609375,-6.472219161319733,-1.322386082869768,1.5358186979308723
1761414105151335700,9.316335693359376,-7.934506466832756,-0.8809500372119248,1.292852676001936
1761414105161348600,9.3263486328125,-9.038650196272135,-0.5210401821181178,1.0340916305046528
1761414105171360800,9.33636083984375,-9.701036246883868,-0.2531746967323124,0.7942762546263634
1761414105181373700,9.346373779296876,-9.486834108754993,-0.12962693525776267,0.540262842047587
1761414105191385900,9.3563857421875,-8.666281695491074,-0.4804356383986771,0.3110972358036786
1761414105201398500,9.3663984375,-7.441947990572452,-0.9026336073622107,0.12121015797299332
1761414105211410700,9.37641064453125,-5.734163244956731,-0.952456499673426,-0.0686214085444808
1761414105221423600,9.386423583984374,-3.827771989750862,-0.770212949732691,-0.044845250029116865
1761414105231435800,9.396435791015625,-2.3180559935867784,-0.4996310449950397,-0.001994155792170204
1761414105241448700,9.40644873046875,-1.413310800898075,-0.028801877722889183,-0.16247569548496976
1761414105251460600,9.416460693359374,-0.9314332931280136,0.386570921395719,-0.46533042372539635
1761414105261473500,9.4264736328125,-0.5901753854036331,0.6262766263544559,-0.704540088795498
1761414105271485400,9.4364853515625,-0.09703297177553176,0.7059585042260587,-0.8847794593069702
1761414105281498600,9.44649853515625,0.7438660639464855,0.6725495710991323,-0.9842209535289556
1761414105291510500,9.456510498046875,1.8753654178231953,0.5661145647279918,-0.9197218125462532
1761414105301523700,9.466523681640625,3.1974434576570987,0.525532525101304,-0.7735808187305927
1761414105311535600,9.47653564453125,4.433214502391219,0.4518351284667849,-0.6021500104336067
1761414105321548800,9.486548828125,5.394298252895474,0.29383360098749395,-0.3312351108819246
1761414105331560700,9.496560791015625,6.116701257574558,0.22230551121607423,0.004928177117183804
1761414105341573600,9.50657373046875,6.620795273327827,0.3949195014156401,0.24850164515366777
1761414105351585500,9.51658544921875,6.947131506252289,0.699117990681529,0.25126689034961164
1761414105361598700,9.5265986328125,6.96728932814002,1.019728685566038,0.2392562806908041
1761414105371610600,9.536610595703126,6.698464788463712,1.1644960529409347,0.2714851006550714
1761414105381623800,9.546623779296874,6.421970152550935,1.250959846037626,0.24211979862945152
1761414105391635700,9.5566357421875,6.29987872736454,1.2639903002634645,0.24062108450429512
1761414105401648600,9.566648681640626,6.427358275330066,1.171625466429442,0.24363307100292295
1761414105411660500,9.57666064453125,6.822591518869996,1.00673023391366,0.17476154188858345
1761414105421673700,9.586673828125,7.222544192147255,0.7702630724847316,-0.05921466124113649
1761414105431685600,9.596685546875,7.4996356249094,0.6872390445783734,-0.43632447479777037
1761414105441698600,9.606698486328124,7.493315774238109,0.8924116346858442,-0.8121135976772755
1761414105451710700,9.616710693359375,6.921631738814711,1.1436211688250302,-1.0213210693240165
1761414105461723600,9.6267236328125,5.8441597432017325,1.4275443473033607,-1.0777069734126328
1761414105471735800,9.63673583984375,4.633488652932644,1.9318650114193558,-1.417179897416383
1761414105481748500,9.64674853515625,3.37299350130856,2.468514850601554,-2.0271014551669357
1761414105491760600,9.6567607421875,1.7860183243751524,2.139866541342437,-1.3678772295869885
1761414105501773600,9.666773681640626,-0.011595745247602462,-1.0721417405009268,2.262930318692326
1761414105511785700,9.67678564453125,0.9452303478121757,-3.6692101980403065,4.868608783666789
1761414105521798700,9.686798583984375,4.060701040181518,-3.700949444389343,4.474549552342295
1761414105531810800,9.696810791015626,6.298782164299488,-2.2708611116915938,1.8737157509200273
1761414105541823700,9.70682373046875,5.58427546582818,-0.47168446892723437,-1.580930343811214
