time,seconds_elapsed,z,y,x
1761414077381553400,0.069553466796875,-0.30773064494132996,-0.13733991980552673,-0.4406522512435913
1761414077391566600,0.079566650390625,-0.3616122901439667,-0.2917874753475189,-0.4089037775993347
1761414077401579300,0.089579345703125,-0.3739802837371826,-0.44916456937789917,-0.3451288044452667
1761414077411591400,0.09959130859375,-0.20435427129268646,-0.5402191877365112,-0.20759189128875732
1761414077421604400,0.109604248046875,-0.002991592278704047,-0.5153884291648865,-0.12316487729549408
1761414077431616500,0.119616455078125,0.25975173711776733,-0.287814736366272,-0.08553231507539749
1761414077441629400,0.12962939453125,0.4558860957622528,0.12256480753421783,-0.08233093470335007
1761414077451642600,0.139642578125,0.583615779876709,0.5081717371940613,-0.0677766427397728
1761414077461654500,0.149654541015625,0.6723752021789551,0.7564595937728882,-0.02988598123192787
1761414077471667500,0.15966748046875,0.6710991859436035,0.8596846461296082,0.016563372686505318
1761414077481679400,0.169679443359375,0.5913569331169128,0.7699947357177734,0.01935196854174137
1761414077491692500,0.179692626953125,0.4861287474632263,0.6528803110122681,0.016715887933969498
1761414077501704400,0.189704345703125,0.3807980716228485,0.5913458466529846,0.006114909425377846
1761414077511717600,0.199717529296875,0.2727377712726593,0.5352742075920105,-0.04164816439151764
1761414077521730300,0.209730224609375,0.16211886703968048,0.4606676697731018,-0.12895643711090088
1761414077531742500,0.219742431640625,0.05368773266673088,0.4555945098400116,-0.20512357354164124
1761414077541755400,0.22975537109375,-0.028308598324656487,0.6237584948539734,-0.2539888322353363
1761414077551767600,0.239767578125,-0.08982701599597931,0.8231406211853027,-0.31181424856185913
1761414077561780500,0.249780517578125,-0.10834956914186478,0.9662908315658569,-0.4147563576698303
1761414077571792600,0.259792724609375,-0.0798182263970375,1.0723145008087158,-0.536975622177124
1761414077581805600,0.2698056640625,-0.0049274759367108345,1.1564451456069946,-0.6779996156692505
1761414077591818500,0.279818603515625,0.16325488686561584,1.082059621810913,-0.8142397403717041
1761414077601830400,0.289830322265625,0.47932788729667664,0.710048496723175,-0.9315402507781982
1761414077611843600,0.299843505859375,0.9348143339157104,0.35346469283103943,-1.007021427154541
1761414077621855500,0.30985546875,1.4178308248519897,-0.043602243065834045,-1.1185810565948486
1761414077631868700,0.31986865234375,1.7592636346817017,-0.5137243866920471,-1.1666377782821655
1761414077641881300,0.32988134765625,2.0727150440216064,-0.46258875727653503,-0.941303014755249
1761414077651893500,0.3398935546875,2.1621623039245605,0.3625243306159973,-0.399034708738327
1761414077661906400,0.349906494140625,1.81968355178833,0.8396336436271667,0.044729966670274734
1761414077671918300,0.35991845703125,1.597389578819275,0.41553762555122375,0.15193361043930054
1761414077681931500,0.369931640625,1.689902424812317,0.10311263799667358,0.2915940582752228
1761414077691943400,0.379943359375,1.8317168951034546,-0.2543541491031647,0.503272294998169
1761414077701956600,0.38995654296875,1.9402724504470825,-1.150952935218811,0.5972688794136047
1761414077711969300,0.39996923828125,2.0426828861236572,-2.0499610900878906,0.6338541507720947
1761414077721981400,0.4099814453125,2.302373170852661,-2.389939069747925,0.8285911679267883
1761414077731994400,0.419994384765625,2.7137598991394043,-1.9986999034881592,1.3555289506912231
1761414077742006500,0.430006591796875,3.0738842487335205,-1.261989712715149,2.116715908050537
1761414077752019500,0.44001953125,3.1449360847473145,-0.6731411218643188,2.8513975143432617
1761414077762032400,0.450032470703125,2.909964084625244,-0.25469887256622314,3.3270304203033447
1761414077772044500,0.46004443359375,2.5101146697998047,0.02604030631482601,3.3646531105041504
1761414077782057500,0.470057373046875,2.101658582687378,0.27466875314712524,2.9798483848571777
1761414077792069400,0.4800693359375,1.760452389717102,0.5258005261421204,2.292487382888794
1761414077802082600,0.49008251953125,1.4945664405822754,0.8511999249458313,1.4651399850845337
1761414077812094500,0.500094482421875,1.2784370183944702,1.1891659498214722,0.6548383831977844
1761414077822107600,0.510107666015625,1.0476783514022827,1.4063938856124878,-0.028914887458086014
1761414077832120300,0.520120361328125,0.7809935808181763,1.44650137424469,-0.5379923582077026
1761414077842132500,0.530132568359375,0.48511528968811035,1.3546640872955322,-0.8349707722663879
1761414077852145400,0.5401455078125,0.19339871406555176,1.2141121625900269,-0.9489055275917053
1761414077862157600,0.550157470703125,-0.050031255930662155,1.1044632196426392,-0.9649302959442139
1761414077872170500,0.56017041015625,-0.20297877490520477,1.0956017971038818,-0.9446142315864563
1761414077882182700,0.5701826171875,-0.2689751088619232,1.1232893466949463,-0.9522183537483215
1761414077892195600,0.580195556640625,-0.2708829641342163,1.1037222146987915,-1.0333143472671509
1761414077902208500,0.59020849609375,-0.22963884472846985,1.016653060913086,-1.1729873418807983
1761414077912220400,0.600220458984375,-0.1677170693874359,0.8945825099945068,-1.2929860353469849
1761414077922233600,0.610233642578125,-0.08794954419136047,0.7192498445510864,-1.3136255741119385
1761414077932245500,0.62024560546875,-0.003309789579361677,0.5320462584495544,-1.2046520709991455
1761414077942258700,0.6302587890625,0.11067509651184082,0.37783002853393555,-0.9912394881248474
1761414077952270600,0.6402705078125,0.2337559163570404,0.21642763912677765,-0.701004683971405
1761414077962283300,0.650283203125,0.31978026032447815,0.029899846762418747,-0.3999903202056885
1761414077972296400,0.66029638671875,0.37949565052986145,-0.13734497129917145,-0.17951887845993042
1761414077982308400,0.670308349609375,0.4213051497936249,-0.23337669670581818,-0.07083315402269363
1761414077992321500,0.680321533203125,0.44974419474601746,-0.23435771465301514,-0.06465423107147217
1761414078002333400,0.69033349609375,0.47564929723739624,-0.17572689056396484,-0.1269138753414154
1761414078012346600,0.7003466796875,0.4938598871231079,-0.08378516882658005,-0.21213778853416443
1761414078022359600,0.710359619140625,0.4991057813167572,0.016412535682320595,-0.2726767659187317
1761414078032371500,0.720371337890625,0.4751553535461426,0.0950658917427063,-0.3021583557128906
1761414078042384400,0.73038427734375,0.44192495942115784,0.1795607954263687,-0.299253910779953
1761414078052396500,0.740396484375,0.4180932939052582,0.30160608887672424,-0.2596350610256195
1761414078062409500,0.750409423828125,0.4173625111579895,0.42078202962875366,-0.20753540098667145
1761414078072421600,0.760421630859375,0.43385404348373413,0.492696076631546,-0.1579218953847885
1761414078082434300,0.770434326171875,0.45753994584083557,0.5300714373588562,-0.10376038402318954
1761414078092447500,0.780447509765625,0.4882912337779999,0.5302428007125854,-0.04069067910313606
1761414078102459400,0.79045947265625,0.5087155699729919,0.5020535588264465,0.02299748733639717
1761414078112472600,0.80047265625,0.5211746692657471,0.43216410279273987,0.08323390781879425
1761414078122484500,0.810484375,0.5239326357841492,0.3489142060279846,0.12548762559890747
1761414078132497200,0.8204970703125,0.5170451402664185,0.2665259838104248,0.13105665147304535
1761414078142510000,0.830510009765625,0.5196334719657898,0.24876269698143005,0.13307666778564453
1761414078152522000,0.84052197265625,0.55302894115448,0.29437217116355896,0.13581272959709167
1761414078162535200,0.85053515625,0.5826113224029541,0.31257888674736023,0.09919080883264542
1761414078172547000,0.860547119140625,0.6102880835533142,0.24114835262298584,-0.00693682674318552
1761414078182560300,0.870560302734375,0.6291866302490234,0.07805290818214417,-0.21160341799259186
1761414078192572200,0.880572265625,0.6390193104743958,-0.21240085363388062,-0.4859599471092224
1761414078202585300,0.89058544921875,0.6092326641082764,-0.6340364813804626,-0.7775012850761414
1761414078212598000,0.900597900390625,0.4871751070022583,-1.047905683517456,-0.9968670010566711
1761414078222610200,0.910610107421875,0.32350146770477295,-1.370025396347046,-1.0702556371688843
1761414078232623000,0.920623046875,0.21752354502677917,-1.4956859350204468,-0.9826319217681885
1761414078242635000,0.930635009765625,0.24329841136932373,-1.0652320384979248,-0.7055001854896545
1761414078252648200,0.940648193359375,0.39943912625312805,-0.17454278469085693,-0.353683203458786
1761414078262660000,0.95066015625,0.5956299304962158,0.49567896127700806,-0.16416867077350616
1761414078272673000,0.960673095703125,0.6940155625343323,0.7221112251281738,-0.1484885811805725
1761414078282686200,0.970686279296875,0.7015541195869446,0.49303945899009705,-0.18371662497520447
1761414078292698000,0.980697998046875,0.6003591418266296,-0.1658981442451477,-0.20901839435100555
1761414078302711000,0.9907109375,0.3913492262363434,-0.9263355731964111,-0.017379717901349068
1761414078312723200,1.00072314453125,0.14171524345874786,-1.290014624595642,0.4565217196941376
1761414078322736000,1.010736083984375,-0.026480156928300858,-1.2078806161880493,0.8785613775253296
1761414078332749000,1.0207490234375,-0.0616956502199173,-0.7275335788726807,0.9496884346008301
1761414078342761000,1.030760986328125,-0.00881938636302948,0.12115990370512009,0.8008331656455994
1761414078352774100,1.040774169921875,0.1092929095029831,1.1608608961105347,0.7703806161880493
1761414078362786000,1.0507861328125,0.24166958034038544,1.910016655921936,0.9803711175918579
1761414078372799200,1.06079931640625,0.31896862387657166,2.0410256385803223,1.303495168685913
1761414078382811100,1.07081103515625,0.30915889143943787,1.6662075519561768,1.6794791221618652
1761414078392824000,1.080823974609375,0.23797829449176788,1.0042780637741089,2.0139694213867188
1761414078402837000,1.0908369140625,0.11864737421274185,0.2991846799850464,2.221618890762329
1761414078412849200,1.10084912109375,-0.015781771391630173,-0.27571040391921997,2.279625415802002
1761414078422862000,1.110862060546875,-0.1570531576871872,-0.7651118040084839,2.19997501373291
1761414078432874200,1.120874267578125,-0.3159051537513733,-1.1835659742355347,1.9671878814697266
1761414078442887200,1.13088720703125,-0.49820518493652344,-1.4022064208984375,1.5353310108184814
1761414078452899300,1.1408994140625,-0.6864627003669739,-1.306437611579895,0.950235903263092
1761414078462912000,1.150912109375,-0.8663405776023865,-1.0256807804107666,0.3027687072753906
1761414078472925200,1.16092529296875,-1.0477914810180664,-0.7642216086387634,-0.34984269738197327
1761414078482937000,1.17093701171875,-1.2058305740356445,-0.5695722103118896,-0.9311646819114685
1761414078492950300,1.1809501953125,-1.3234021663665771,-0.3740537464618683,-1.3214573860168457
1761414078502962200,1.190962158203125,-1.3892594575881958,-0.18622872233390808,-1.4932773113250732
1761414078512975000,1.20097509765625,-1.411234736442566,-0.06706859916448593,-1.478779911994934
1761414078522987000,1.210987060546875,-1.409586787223816,-0.03860233724117279,-1.3364983797073364
1761414078533000200,1.221000244140625,-1.380689024925232,-0.07814069092273712,-1.1476703882217407
1761414078543013000,1.23101318359375,-1.3235785961151123,-0.168671652674675,-0.9770064949989319
1761414078553025000,1.24102490234375,-1.2935115098953247,-0.22472426295280457,-0.8180485367774963
1761414078563038200,1.2510380859375,-1.309180498123169,-0.21770915389060974,-0.6638541221618652
1761414078573050000,1.261050048828125,-1.3567006587982178,-0.13989585638046265,-0.5208658576011658
1761414078583063000,1.27106298828125,-1.4093323945999146,-0.038336995989084244,-0.3873159885406494
1761414078593076200,1.281076171875,-1.4421966075897217,0.044478170573711395,-0.28070375323295593
1761414078603088100,1.291088134765625,-1.4460363388061523,0.12503506243228912,-0.17415547370910645
1761414078613101000,1.30110107421875,-1.4112236499786377,0.1978367567062378,-0.0764138475060463
1761414078623113200,1.31111328125,-1.3320997953414917,0.23541608452796936,0.012965301051735878
1761414078633126100,1.321126220703125,-1.2342737913131714,0.23318718373775482,0.08896975219249725
1761414078643138000,1.331137939453125,-1.140814185142517,0.23424898087978363,0.17073757946491241
1761414078653151000,1.34115087890625,-1.0487619638442993,0.2630643844604492,0.28757068514823914
1761414078663164200,1.3511640625,-0.9711734056472778,0.2565883696079254,0.4179571866989136
1761414078673176000,1.361176025390625,-0.9221415519714355,0.1692906767129898,0.5251097679138184
1761414078683189200,1.371189208984375,-0.8816985487937927,0.04161260277032852,0.5903883576393127
1761414078693201200,1.381201171875,-0.8405750393867493,-0.07902663946151733,0.6394191980361938
1761414078703214000,1.391214111328125,-0.801652729511261,-0.19335773587226868,0.6647410988807678
1761414078713226000,1.40122607421875,-0.7618638277053833,-0.2921432554721832,0.6607166528701782
1761414078723239200,1.4112392578125,-0.730654776096344,-0.3719531297683716,0.6427515149116516
1761414078733252000,1.421252197265625,-0.6993588805198669,-0.42513203620910645,0.615894079208374
1761414078743264300,1.43126416015625,-0.6557131409645081,-0.4352254271507263,0.5718411803245544
1761414078753277200,1.441277099609375,-0.5974153876304626,-0.3834948241710663,0.5027734637260437
1761414078763289000,1.4512890625,-0.5489863157272339,-0.3403646647930145,0.4203994572162628
1761414078773302000,1.461302001953125,-0.5024737119674683,-0.38892048597335815,0.25841203331947327
1761414078783314200,1.471314208984375,-0.44784778356552124,-0.5285172462463379,-0.06749257445335388
1761414078793327000,1.4813271484375,-0.4017130732536316,-0.6965089440345764,-0.5011171698570251
1761414078803340300,1.49134033203125,-0.3998613953590393,-0.7819511294364929,-0.9315734505653381
1761414078813352200,1.501352294921875,-0.3847302794456482,-0.6013525724411011,-1.1848806142807007
1761414078823365000,1.511365234375,-0.2721070647239685,-0.1296527087688446,-1.1451374292373657
1761414078833377000,1.521376953125,-0.1040395125746727,0.34757936000823975,-0.8602017760276794
1761414078843390200,1.53139013671875,0.049609433859586716,0.5946086049079895,-0.5872642397880554
1761414078853402000,1.541402099609375,0.08444010466337204,0.3684324324131012,-0.6134779453277588
1761414078863415000,1.5514150390625,-0.05414840206503868,-0.4388126730918884,-0.9882699251174927
1761414078873428200,1.56142822265625,-0.3789752125740051,-1.4726829528808594,-1.4665555953979492
1761414078883440000,1.571440185546875,-0.6503872871398926,-2.2321481704711914,-1.6634334325790405
1761414078893453000,1.581453125,-0.7280071973800659,-2.308772325515747,-1.3210588693618774
1761414078903465000,1.59146484375,-0.6268158555030823,-1.6005432605743408,-0.38679108023643494
1761414078913478100,1.60147802734375,-0.3862020671367645,-0.7461658716201782,0.6393824815750122
1761414078923490000,1.611489990234375,-0.12954498827457428,-0.19684843719005585,1.2118842601776123
1761414078933503200,1.621503173828125,0.0910012274980545,0.27311959862709045,1.511815071105957
1761414078943516000,1.631515869140625,0.1498323231935501,0.6042042970657349,1.7566250562667847
1761414078953528000,1.641528076171875,0.056252457201480865,0.7081828117370605,1.9184207916259766
1761414078963541000,1.651541015625,-0.14287129044532776,0.546248197555542,1.9520459175109863
1761414078973553200,1.66155322265625,-0.38539767265319824,0.2880403995513916,1.8547484874725342
1761414078983566000,1.671566162109375,-0.5827701687812805,0.166407972574234,1.6564425230026245
1761414078993579300,1.681579345703125,-0.6864340901374817,0.22206413745880127,1.4217908382415771
1761414079003591200,1.691591064453125,-0.7358455657958984,0.319669246673584,1.1850411891937256
1761414079013604000,1.70160400390625,-0.7668334245681763,0.38233041763305664,0.9386184811592102
1761414079023616000,1.711615966796875,-0.8131439685821533,0.35372301936149597,0.6817110180854797
1761414079033629200,1.721629150390625,-0.924406111240387,0.2685282230377197,0.4045991599559784
1761414079043641000,1.73164111328125,-1.0646425485610962,0.17969901859760284,0.12337467074394226
1761414079053654300,1.741654296875,-1.2159368991851807,0.17155985534191132,-0.1311911642551422
1761414079063666200,1.751666259765625,-1.3321112394332886,0.26224660873413086,-0.3344060480594635
1761414079073679000,1.76167919921875,-1.3909817934036255,0.3603583574295044,-0.4746066927909851
1761414079083692000,1.771692138671875,-1.4182792901992798,0.37734267115592957,-0.5718522667884827
1761414079093704200,1.7817041015625,-1.41554594039917,0.3310793936252594,-0.6348020434379578
1761414079103717000,1.791717041015625,-1.3929247856140137,0.26592782139778137,-0.6405936479568481
1761414079113729000,1.80172900390625,-1.366349458694458,0.2199953943490982,-0.5937957763671875
1761414079123742200,1.8117421875,-1.3391045331954956,0.14250832796096802,-0.5191585421562195
1761414079133755000,1.8217548828125,-1.328870177268982,0.014435491524636745,-0.455842524766922
1761414079143767800,1.831767822265625,-1.3274013996124268,-0.1579759567975998,-0.42203930020332336
1761414079153781000,1.841781005859375,-1.3407270908355713,-0.23599788546562195,-0.38362520933151245
1761414079163793000,1.85179296875,-1.312050700187683,-0.28977641463279724,-0.3459414839744568
1761414079173806000,1.86180615234375,-1.2461196184158325,-0.3416112959384918,-0.3051430284976959
1761414079183818000,1.87181787109375,-1.1620923280715942,-0.3972095847129822,-0.25095251202583313
1761414079193831000,1.881830810546875,-1.053688883781433,-0.47770142555236816,-0.2064235359430313
1761414079203843800,1.89184375,-0.9567915797233582,-0.5876100659370422,-0.183491051197052
1761414079213856000,1.90185595703125,-0.886357307434082,-0.7054834365844727,-0.18374019861221313
1761414079223869000,1.911868896484375,-0.8084396123886108,-0.7643198370933533,-0.163314551115036
1761414079233880800,1.921880859375,-0.7502354383468628,-0.7786889672279358,-0.1438194066286087
1761414079243893800,1.931893798828125,-0.7060858011245728,-0.734299898147583,-0.13033102452754974
1761414079253905700,1.94190576171875,-0.6568900346755981,-0.6566306352615356,-0.13229459524154663
1761414079263918800,1.9519189453125,-0.5959819555282593,-0.5808786153793335,-0.1718747615814209
1761414079273932000,1.96193212890625,-0.5324072241783142,-0.5530871748924255,-0.2739107608795166
1761414079283944000,1.97194384765625,-0.4625893235206604,-0.5258393287658691,-0.42727819085121155
1761414079293956900,1.981956787109375,-0.4162941575050354,-0.5115339756011963,-0.6132226586341858
1761414079303969000,1.991968994140625,-0.4192976653575897,-0.5272541046142578,-0.8291586637496948
1761414079313981700,2.001981689453125,-0.42268821597099304,-0.49753573536872864,-0.984062135219574
1761414079323993900,2.011993896484375,-0.4070354700088501,-0.44466933608055115,-1.0547759532928467
1761414079334006800,2.0220068359375,-0.3791944980621338,-0.37703126668930054,-1.0502148866653442
1761414079344019000,2.03201904296875,-0.3356403410434723,-0.3037669062614441,-0.9852384924888611
1761414079354031900,2.042031982421875,-0.25232943892478943,-0.20090799033641815,-0.8180984258651733
1761414079364044800,2.052044921875,-0.10760258883237839,-0.17542153596878052,-0.6063855886459351
1761414079374056700,2.062056640625,0.03278568014502525,-0.2930014133453369,-0.4855603873729706
1761414079384070000,2.07206982421875,0.1822497397661209,-0.4793904721736908,-0.49075862765312195
1761414079394081800,2.082081787109375,0.27601358294487,-0.600589394569397,-0.6265519857406616
1761414079404095000,2.092094970703125,0.29222506284713745,-0.5023656487464905,-0.7845280170440674
1761414079414108000,2.10210791015625,0.3811500668525696,-0.46050652861595154,-0.9419359564781189
1761414079424120000,2.1121201171875,0.4422432482242584,-0.5866868495941162,-1.1672375202178955
1761414079434132700,2.1221328125,0.39154359698295593,-0.6678836941719055,-1.383498191833496
1761414079444145000,2.132144775390625,0.25955280661582947,-0.6271181702613831,-1.5374259948730469
1761414079454157800,2.14215771484375,0.085523322224617,-0.48795926570892334,-1.5732600688934326
1761414079464170000,2.152169921875,-0.13157570362091064,-0.5842224359512329,-1.5915602445602417
1761414079474183000,2.162182861328125,-0.15685704350471497,-0.7731455564498901,-1.6098225116729736
1761414079484195800,2.17219580078125,0.03869115933775902,-0.7424928545951843,-1.3509435653686523
1761414079494207700,2.182207763671875,0.2631886303424835,-0.12299222499132156,-0.4209318161010742
1761414079504221000,2.192220947265625,0.33735448122024536,0.6110892295837402,1.0898174047470093
1761414079514232800,2.20223291015625,0.28604409098625183,0.5936237573623657,2.4378457069396973
1761414079524246000,2.21224609375,0.12405864894390106,-0.30979904532432556,3.1676268577575684
1761414079534258000,2.2222578125,-0.05085252597928047,-1.4330838918685913,3.4750044345855713
1761414079544270800,2.232270751953125,-0.13921301066875458,-2.341874599456787,3.433084487915039
1761414079554283800,2.24228369140625,-0.1654270440340042,-2.7234957218170166,3.1725635528564453
1761414079564295700,2.252295654296875,-0.15459169447422028,-2.626939058303833,2.7867836952209473
1761414079574308900,2.262308837890625,-0.16864147782325745,-2.2639400959014893,2.3077712059020996
1761414079584320800,2.27232080078125,-0.29952919483184814,-1.7978562116622925,1.7447398900985718
1761414079594334000,2.282333984375,-0.5970962643623352,-1.3580970764160156,1.0806077718734741
1761414079604345900,2.292345947265625,-1.003944754600525,-0.8909410834312439,0.4645738899707794
1761414079614358800,2.30235888671875,-1.3800642490386963,-0.5030893087387085,-0.10379897058010101
1761414079624371700,2.312371826171875,-1.6896823644638062,-0.17679855227470398,-0.6049169301986694
1761414079634384000,2.3223837890625,-1.8721011877059937,0.24576805531978607,-0.9546666741371155
1761414079644396800,2.332396728515625,-1.8979511260986328,0.6581910252571106,-1.1545320749282837
1761414079654409000,2.342408935546875,-1.801735281944275,0.9001718163490295,-1.1867949962615967
1761414079664422000,2.352421875,-1.673353910446167,0.9268258213996887,-1.0805578231811523
1761414079674434000,2.36243408203125,-1.5490604639053345,0.8439185619354248,-0.8552083373069763
1761414079684446700,2.37244677734375,-1.4324963092803955,0.6808865070343018,-0.6060712337493896
1761414079694460000,2.3824599609375,-1.3433077335357666,0.4711780846118927,-0.42869627475738525
1761414079704471800,2.392471923828125,-1.2487090826034546,0.24236994981765747,-0.3617526590824127
1761414079714485000,2.402485107421875,-1.130606770515442,0.05740106850862503,-0.413946270942688
1761414079724497000,2.412496826171875,-1.0430686473846436,-0.042219266295433044,-0.5300808548927307
1761414079734509800,2.422509765625,-0.9940873980522156,-0.10522699356079102,-0.6320582032203674
1761414079744522000,2.43252197265625,-0.95536208152771,-0.1501436084508896,-0.719428300857544
1761414079754535000,2.442534912109375,-0.9352120161056519,-0.16400109231472015,-0.7572229504585266
1761414079764547800,2.4525478515625,-0.893875241279602,-0.10821186751127243,-0.7432381510734558
1761414079774560000,2.46256005859375,-0.8199607133865356,-0.021407904103398323,-0.7314378619194031
1761414079784573000,2.472572998046875,-0.722140371799469,0.0750451311469078,-0.7225162386894226
1761414079794584800,2.482584716796875,-0.61077481508255,0.1526486575603485,-0.7142033576965332
1761414079804597800,2.49259765625,-0.5279771089553833,0.1328134387731552,-0.6782613396644592
1761414079814609700,2.502609619140625,-0.4805598855018616,0.021243330091238022,-0.6315403580665588
1761414079824622800,2.512622802734375,-0.4421722888946533,-0.10949231684207916,-0.577057957649231
1761414079834636000,2.522635986328125,-0.4111224412918091,-0.24840927124023438,-0.5391824841499329
1761414079844648000,2.53264794921875,-0.3979256749153137,-0.35109812021255493,-0.5270507335662842
1761414079854660900,2.542660888671875,-0.38981011509895325,-0.36800020933151245,-0.5241425633430481
1761414079864673000,2.552673095703125,-0.34609219431877136,-0.27469876408576965,-0.5049321055412292
1761414079874685700,2.562685791015625,-0.2864363193511963,-0.1370084583759308,-0.49453380703926086
1761414079884697900,2.57269775390625,-0.23005801439285278,-0.0401277132332325,-0.5152838826179504
1761414079894710800,2.582710693359375,-0.14736934006214142,0.03316115215420723,-0.5273080468177795
1761414079904724000,2.592723876953125,-0.04813623055815697,0.06292597949504852,-0.4865041673183441
1761414079914735900,2.60273583984375,0.029509471729397774,0.01909078098833561,-0.44579604268074036
1761414079924748800,2.612748779296875,0.06145888566970825,-0.07037732005119324,-0.4110891819000244
1761414079934760700,2.6227607421875,0.07500813901424408,-0.08220493793487549,-0.37705954909324646
1761414079944774000,2.63277392578125,0.10010337084531784,0.10639799386262894,-0.32198190689086914
1761414079954785800,2.642785888671875,0.14134983718395233,0.4011271893978119,-0.2827844023704529
1761414079964799000,2.652799072265625,0.16712258756160736,0.61171555519104,-0.36164647340774536
1761414079974812000,2.66281201171875,0.189482182264328,0.6174800395965576,-0.49989408254623413
1761414079984824000,2.672823974609375,0.20050233602523804,0.30754512548446655,-0.6481956839561462
1761414079994836700,2.682836669921875,0.1633908748626709,-0.276777446269989,-0.8327456116676331
1761414080004849000,2.692848876953125,0.1631261557340622,-0.5957197546958923,-0.8776965737342834
1761414080014861800,2.70286181640625,0.23791007697582245,-0.348010778427124,-0.6671289801597595
1761414080024874000,2.7128740234375,0.23915830254554749,0.20841489732265472,-0.30690819025039673
1761414080034887000,2.722886962890625,0.12605927884578705,0.6594930291175842,-0.009196028113365173
1761414080044898800,2.73289892578125,0.019880911335349083,0.7657595872879028,-0.017937056720256805
1761414080054911700,2.742911865234375,-0.06131310388445854,0.6849262118339539,-0.3039166033267975
1761414080064925000,2.752925048828125,-0.09519064426422119,0.6106301546096802,-0.5106884241104126
1761414080074936800,2.762936767578125,-0.02426510863006115,0.5494348406791687,-0.3357434868812561
1761414080084950000,2.772949951171875,0.14827470481395721,0.43050122261047363,0.29746007919311523
1761414080094962000,2.7829619140625,0.2965080738067627,0.2489604651927948,1.2199485301971436
1761414080104975000,2.79297509765625,0.34400635957717896,-0.09528345614671707,2.1593730449676514
1761414080114987800,2.80298779296875,0.2820422649383545,-0.5347188115119934,2.876486301422119
1761414080124999400,2.81299951171875,0.11801683902740479,-1.0432499647140503,3.2280731201171875
1761414080135012600,2.8230126953125,-0.09929624199867249,-1.5351979732513428,3.1495420932769775
1761414080145024500,2.8330244140625,-0.292144238948822,-1.8952120542526245,2.741671085357666
1761414080155037700,2.84303759765625,-0.4089438319206238,-2.014610528945923,2.1568896770477295
1761414080165049600,2.853049560546875,-0.43865033984184265,-1.9285165071487427,1.5308244228363037
1761414080175062800,2.863062744140625,-0.3980939984321594,-1.7964472770690918,0.9803758859634399
1761414080185075500,2.873075439453125,-0.35060638189315796,-1.7609920501708984,0.5502578020095825
1761414080195087600,2.883087646484375,-0.37052491307258606,-1.8134874105453491,0.2751542925834656
1761414080205100500,2.8931005859375,-0.5351479053497314,-1.7496709823608398,0.17520610988140106
1761414080215112700,2.90311279296875,-0.760429322719574,-1.5324976444244385,0.2251625955104828
1761414080225125600,2.913125732421875,-1.0118695497512817,-1.2165231704711914,0.2644692361354828
1761414080235137800,2.9231376953125,-1.2464826107025146,-0.8758668899536133,0.18829897046089172
1761414080245150500,2.933150390625,-1.424350619316101,-0.4648450016975403,-0.01980442926287651
1761414080255162600,2.94316259765625,-1.5248820781707764,0.04282372072339058,-0.3448846638202667
1761414080265175600,2.953175537109375,-1.5618590116500854,0.541083037853241,-0.7249004244804382
1761414080275188700,2.963188720703125,-1.5447841882705688,0.9525380730628967,-1.1001956462860107
1761414080285200600,2.97320068359375,-1.4962334632873535,1.2486541271209717,-1.4026376008987427
1761414080295213800,2.9832138671875,-1.4336020946502686,1.4163508415222168,-1.5638691186904907
1761414080305225700,2.993225830078125,-1.3720604181289673,1.4517059326171875,-1.552274227142334
1761414080315238700,3.00323876953125,-1.332726001739502,1.4118218421936035,-1.3753859996795654
1761414080325250600,3.01325048828125,-1.267440676689148,1.370572566986084,-1.034697413444519
1761414080335263700,3.023263671875,-1.1790738105773926,1.2336852550506592,-0.6707051992416382
1761414080345276700,3.033276611328125,-1.080565333366394,0.9820543527603149,-0.4251657724380493
1761414080355288600,3.04328857421875,-0.9878439903259277,0.6872276067733765,-0.2936296761035919
1761414080365301500,3.053301513671875,-0.9139820337295532,0.4151703119277954,-0.24731118977069855
1761414080375313400,3.0633134765625,-0.8644294142723083,0.18181614577770233,-0.2511167526245117
1761414080385326600,3.07332666015625,-0.8432207703590393,0.015805331990122795,-0.2799609303474426
1761414080395338500,3.08333837890625,-0.8202822208404541,-0.0835890844464302,-0.31149807572364807
1761414080405351700,3.0933515625,-0.7791990041732788,-0.13955222070217133,-0.3170390725135803
1761414080415364600,3.103364501953125,-0.7207290530204773,-0.15631049871444702,-0.31005632877349854
1761414080425376800,3.113376708984375,-0.6419562101364136,-0.14493507146835327,-0.303363561630249
1761414080435389400,3.123389404296875,-0.5587332248687744,-0.13517209887504578,-0.31534409523010254
1761414080445401600,3.133401611328125,-0.49777692556381226,-0.16047027707099915,-0.3653643727302551
1761414080455414500,3.14341455078125,-0.5077974200248718,-0.2624114751815796,-0.4792574644088745
1761414080465426700,3.1534267578125,-0.6295691132545471,-0.5224121809005737,-0.6219096779823303
1761414080475439600,3.163439697265625,-0.8364128470420837,-0.8407717943191528,-0.643961489200592
1761414080485452500,3.17345263671875,-1.0779900550842285,-1.2263442277908325,-0.48124974966049194
1761414080495464400,3.18346435546875,-1.1859532594680786,-1.572911262512207,-0.12401898205280304
1761414080505477600,3.1934775390625,-1.1739383935928345,-1.7919831275939941,0.2668827176094055
1761414080515489500,3.203489501953125,-1.0622999668121338,-1.8406814336776733,0.49239102005958557
1761414080525502700,3.213502685546875,-0.7625390291213989,-1.6189149618148804,0.508759617805481
1761414080535514600,3.2235146484375,-0.3433278203010559,-0.9147418737411499,0.4977825880050659
1761414080545527800,3.23352783203125,0.006810755003243685,-0.054468654096126556,0.5052881836891174
1761414080555540500,3.24354052734375,0.1805935651063919,0.4433564841747284,0.42149853706359863
1761414080565552600,3.253552734375,0.15967603027820587,0.45378437638282776,0.2673012614250183
1761414080575565600,3.263565673828125,0.018625034019351006,-0.01751747354865074,0.11500516533851624
1761414080585577700,3.27357763671875,-0.11593490839004517,-0.5399231314659119,0.11736099421977997
1761414080595590700,3.283590576171875,-0.16268105804920197,-0.4951229989528656,0.3638806939125061
1761414080605602600,3.2936025390625,-0.09269531071186066,0.16398325562477112,0.6776180863380432
1761414080615615500,3.303615478515625,0.03020722046494484,0.9600332975387573,0.7931184768676758
1761414080625628700,3.313628662109375,0.1880173534154892,1.5811245441436768,0.6523957252502441
1761414080635640600,3.323640625,0.30113500356674194,1.9135246276855469,0.42143386602401733
1761414080645653800,3.33365380859375,0.29499268531799316,1.8649581670761108,0.31010520458221436
1761414080655665700,3.343665771484375,0.18992027640342712,1.5859707593917847,0.42607033252716064
1761414080665678600,3.3536787109375,0.0925428494811058,1.2456616163253784,0.8028202652931213
1761414080675690800,3.363690673828125,0.08566353470087051,0.9152540564537048,1.2393535375595093
1761414080685703400,3.373703369140625,0.14882679283618927,0.6582518219947815,1.5570542812347412
1761414080695716600,3.383716552734375,0.21000197529792786,0.5618911981582642,1.7351815700531006
1761414080705728500,3.393728515625,0.22869762778282166,0.6312694549560547,1.7768323421478271
1761414080715741700,3.40374169921875,0.17599207162857056,0.7035157084465027,1.6746406555175781
1761414080725753600,3.413753662109375,0.0658210963010788,0.5242341160774231,1.459970235824585
1761414080735766500,3.4237666015625,-0.03333205357193947,0.13940885663032532,1.2148947715759277
1761414080745778700,3.43377880859375,-0.0759066715836525,-0.3237641155719757,0.9973107576370239
1761414080755791600,3.44379150390625,-0.10186060518026352,-0.6268425583839417,0.7643809914588928
1761414080765803500,3.453803466796875,-0.11280166357755661,-0.663203775882721,0.5095492005348206
1761414080775816700,3.463816650390625,-0.10630180686712265,-0.4567224383354187,0.21188446879386902
1761414080785829600,3.47382958984375,-0.2096835821866989,-0.07962602376937866,-0.09613647311925888
1761414080795841800,3.483841796875,-0.36403557658195496,0.362311989068985,-0.35025641322135925
1761414080805854500,3.4938544921875,-0.4988242983818054,0.7210839986801147,-0.5745531916618347
1761414080815866600,3.50386669921875,-0.5981194972991943,0.9645847678184509,-0.7383279800415039
1761414080825879600,3.513879638671875,-0.6745008230209351,1.0507858991622925,-0.8279484510421753
1761414080835891700,3.5238916015625,-0.7304672002792358,1.0057293176651,-0.8819548487663269
1761414080845904600,3.533904541015625,-0.7451822757720947,0.8671022653579712,-0.8846643567085266
1761414080855917600,3.54391748046875,-0.7278339266777039,0.6765842437744141,-0.8195120692253113
1761414080865929700,3.5539296875,-0.6955025792121887,0.5159060955047607,-0.6880975365638733
1761414080875942700,3.563942626953125,-0.6944181323051453,0.37943005561828613,-0.5445283651351929
1761414080885954600,3.57395458984375,-0.7029697895050049,0.2582373023033142,-0.4211598038673401
1761414080895967700,3.5839677734375,-0.6941562294960022,0.16399453580379486,-0.34088853001594543
1761414080905979600,3.593979736328125,-0.6634361147880554,0.06937774270772934,-0.3140060603618622
1761414080915992600,3.60399267578125,-0.6071656346321106,-0.0063130222260952,-0.3054242730140686
1761414080926005500,3.614005615234375,-0.5211330056190491,-0.027000457048416138,-0.2943069040775299
1761414080936017400,3.624017333984375,-0.41842150688171387,-0.017574548721313477,-0.27738943696022034
1761414080946030600,3.634030517578125,-0.30975469946861267,0.0254988856613636,-0.20582498610019684
1761414080956042500,3.64404248046875,-0.1842159479856491,0.06228707730770111,-0.10789187252521515
1761414080966055700,3.6540556640625,-0.05551442503929138,0.06655239313840866,-0.04376162216067314
1761414080976067600,3.664067626953125,0.05505368113517761,0.059633947908878326,-0.028877288103103638
1761414080986080800,3.674080810546875,0.11999885737895966,0.03789056837558746,-0.05439809337258339
1761414080996092700,3.6840927734375,0.15702469646930695,0.0022570304572582245,-0.09732595831155777
1761414081006105600,3.694105712890625,0.17640584707260132,-0.045041508972644806,-0.1505923718214035
1761414081016118500,3.704118408203125,0.18738441169261932,-0.06837576627731323,-0.20559105277061462
1761414081026130700,3.714130615234375,0.21260027587413788,-0.07449358701705933,-0.27481383085250854
1761414081036143600,3.7241435546875,0.2526022493839264,-0.06941067427396774,-0.4012206196784973
1761414081046155800,3.73415576171875,0.2682105004787445,-0.07603102177381516,-0.6063785552978516
1761414081056168400,3.74416845703125,0.2509205639362335,-0.16289836168289185,-0.855229914188385
1761414081066180600,3.7541806640625,0.25828686356544495,-0.3322136104106903,-1.0914744138717651
1761414081076193500,3.764193603515625,0.3457362949848175,-0.6028850674629211,-1.287038803100586
1761414081086206700,3.774206787109375,0.5077970623970032,-0.9524933695793152,-1.480413556098938
1761414081096218600,3.784218505859375,0.6519710421562195,-1.2000621557235718,-1.6838417053222656
1761414081106231800,3.794231689453125,0.5782480835914612,-1.2498475313186646,-1.8703540563583374
1761414081116243700,3.80424365234375,0.17141743004322052,-1.0542380809783936,-2.0153329372406006
1761414081126257000,3.8142568359375,-0.4619072377681732,-0.869706392288208,-2.202608108520508
1761414081136269000,3.82426904296875,-0.987561047077179,-0.7658323645591736,-2.2807164192199707
1761414081146282000,3.834281982421875,-1.1985942125320435,-0.834247887134552,-2.227834463119507
1761414081156295200,3.844295166015625,-1.2225021123886108,-1.1176501512527466,-2.1299026012420654
1761414081166307000,3.85430712890625,-1.1693211793899536,-1.203330397605896,-1.7985646724700928
1761414081176320000,3.864320068359375,-1.1375458240509033,-1.1292165517807007,-1.1620208024978638
1761414081186332000,3.874331787109375,-1.1074206829071045,-1.0036375522613525,-0.3534632921218872
1761414081196345000,3.884344970703125,-1.0141971111297607,-0.8498420119285583,0.49606290459632874
1761414081206357000,3.89435693359375,-0.8846468329429626,-0.7080987691879272,1.2671713829040527
1761414081216370200,3.9043701171875,-0.7241287231445312,-0.6089941263198853,1.8169150352478027
1761414081226382800,3.9143828125,-0.5842528939247131,-0.4357602596282959,2.1641247272491455
1761414081236395000,3.92439501953125,-0.4728713631629944,-0.14762896299362183,2.2892050743103027
1761414081246408000,3.934407958984375,-0.3716784417629242,0.2225746512413025,2.2341859340667725
1761414081256420000,3.944420166015625,-0.27517613768577576,0.6035686135292053,2.1334011554718018
1761414081266433000,3.95443310546875,-0.2079257369041443,0.8663097023963928,2.055454969406128
1761414081276445200,3.964445068359375,-0.20112815499305725,0.9556565284729004,1.9803544282913208
1761414081286458000,3.9744580078125,-0.2552449107170105,0.8984022736549377,1.9185032844543457
1761414081296471000,3.984470947265625,-0.346491277217865,0.7545929551124573,1.8484052419662476
1761414081306483000,3.99448291015625,-0.46628719568252563,0.6093915104866028,1.779759407043457
1761414081316496100,4.00449609375,-0.5777237415313721,0.49029043316841125,1.6732182502746582
1761414081326508000,4.014508056640625,-0.6414811015129089,0.448505699634552,1.5007528066635132
1761414081336521200,4.024521240234375,-0.657554566860199,0.5242183208465576,1.296947717666626
1761414081346533000,4.034533203125,-0.6301463842391968,0.6857944130897522,1.073553204536438
1761414081356546000,4.044546142578125,-0.5627695918083191,0.8747361898422241,0.8395592570304871
1761414081366559000,4.05455908203125,-0.47234034538269043,0.9761378765106201,0.6301794052124023
1761414081376571000,4.06457080078125,-0.3698245882987976,0.9367516040802002,0.43431711196899414
1761414081386584000,4.074583984375,-0.27965447306632996,0.8137332797050476,0.24470937252044678
1761414081396596000,4.084595947265625,-0.22799527645111084,0.6448832750320435,0.07253734022378922
1761414081406609200,4.094609130859375,-0.24096034467220306,0.48109114170074463,-0.0540006197988987
1761414081416621000,4.10462109375,-0.2592519521713257,0.3602434992790222,-0.11630885303020477
1761414081426634000,4.114634033203125,-0.24772977828979492,0.2200392335653305,-0.14090953767299652
1761414081436646000,4.12464599609375,-0.18687839806079865,0.06742306798696518,-0.16487936675548553
1761414081446659000,4.1346591796875,-0.08318981528282166,-0.08551587909460068,-0.2536989748477936
1761414081456672000,4.144672119140625,0.012989701703190804,-0.20860426127910614,-0.4188902974128723
1761414081466684200,4.15468408203125,0.07386663556098938,-0.3101561665534973,-0.5954195261001587
1761414081476697000,4.164697021484375,0.10051239281892776,-0.37031814455986023,-0.7368916869163513
1761414081486709000,4.174708984375,0.13118162751197815,-0.3785693943500519,-0.790561854839325
1761414081496722000,4.184721923828125,0.19614198803901672,-0.38580575585365295,-0.7990273237228394
1761414081506734000,4.194734130859375,0.2800012230873108,-0.4137417674064636,-0.8168721199035645
1761414081516747000,4.2047470703125,0.35891902446746826,-0.4545198380947113,-0.8591249585151672
1761414081526760200,4.21476025390625,0.40431925654411316,-0.5270172357559204,-0.9226861000061035
1761414081536772000,4.224772216796875,0.43601495027542114,-0.6065441370010376,-0.9979713559150696
1761414081546785000,4.234784912109375,0.4924182891845703,-0.6413894891738892,-1.043948769569397
1761414081556797000,4.244796875,0.5486956834793091,-0.6065710783004761,-1.0526341199874878
1761414081566810000,4.25481005859375,0.5914567112922668,-0.5063278079032898,-1.0346121788024902
1761414081576822000,4.264822021484375,0.6244484186172485,-0.3985663652420044,-1.0364618301391602
1761414081586835200,4.274835205078125,0.6677314639091492,-0.339944064617157,-1.1172096729278564
1761414081596848000,4.28484814453125,0.6668910980224609,-0.3020218014717102,-1.2762373685836792
1761414081606860000,4.294860107421875,0.6174828410148621,-0.288282573223114,-1.507548451423645
1761414081616873000,4.304873046875,0.5344324707984924,-0.21358278393745422,-1.7490496635437012
1761414081626884900,4.314884765625,0.5324881076812744,-0.09529154747724533,-1.935563564300537
1761414081636898000,4.32489794921875,0.7014557719230652,0.09854663908481598,-2.056396007537842
1761414081646910000,4.334909912109375,0.999530017375946,0.22961384057998657,-2.139522075653076
1761414081656923100,4.344923095703125,1.2318832874298096,0.29941031336784363,-2.197352886199951
1761414081666935000,4.35493505859375,1.3291983604431152,0.3105921447277069,-2.1410515308380127
1761414081676948000,4.364947998046875,1.2882634401321411,0.07971648126840591,-1.9620733261108398
1761414081686961000,4.3749609375,1.069958209991455,-0.5931710600852966,-2.0500833988189697
1761414081696973000,4.38497314453125,0.7283269166946411,-1.6318496465682983,-2.6575746536254883
1761414081706986000,4.394986083984375,0.4927673935890198,-2.2977569103240967,-3.3772542476654053
1761414081716998100,4.404998046875,0.5072125196456909,-2.021261692047119,-3.627453327178955
1761414081727011000,4.415010986328125,0.7612280249595642,-1.0158355236053467,-2.9351718425750732
1761414081737023200,4.425023193359375,0.9439858198165894,0.10253285616636276,-1.5877416133880615
1761414081747036000,4.435035888671875,0.9599722623825073,0.5671577453613281,-0.08530229330062866
1761414081757049000,4.445049072265625,0.9406653046607971,0.24258458614349365,1.1891446113586426
1761414081767061000,4.45506103515625,0.9094671607017517,-0.3342209458351135,2.155771017074585
1761414081777074200,4.46507421875,0.8515387773513794,-0.66258305311203,2.915884494781494
1761414081787086000,4.475086181640625,0.7377991676330566,-0.509856641292572,3.376180648803711
1761414081797099000,4.48509912109375,0.6058348417282104,0.10589278489351273,3.356386423110962
1761414081807111000,4.49511083984375,0.4599548876285553,0.8135436773300171,2.930691957473755
1761414081817124000,4.5051240234375,0.2995147109031677,1.2923671007156372,2.2772488594055176
1761414081827137000,4.515136962890625,0.15175078809261322,1.4766813516616821,1.538750410079956
1761414081837149200,4.525149169921875,0.055311474949121475,1.4255508184432983,0.8540919423103333
1761414081847162000,4.535162109375,0.02861621603369713,1.1792834997177124,0.3784382939338684
1761414081857174000,4.545174072265625,0.05412478744983673,0.8734341859817505,0.1962932050228119
1761414081867187000,4.55518701171875,0.11067327857017517,0.5306432843208313,0.30115756392478943
1761414081877198800,4.56519873046875,0.15893204510211945,0.20526820421218872,0.5473790168762207
1761414081887212000,4.5752119140625,0.1483539640903473,0.03400750458240509,0.7508661150932312
1761414081897225200,4.58522509765625,0.12094972282648087,0.030403267592191696,0.8078432083129883
1761414081907237000,4.595237060546875,0.11214105039834976,0.1613226681947708,0.7511114478111267
1761414081917249800,4.605249755859375,0.09976033121347427,0.3510284125804901,0.6416671276092529
1761414081927262000,4.615261962890625,0.08293207734823227,0.5118284821510315,0.5455513000488281
1761414081937275000,4.62527490234375,0.07136768847703934,0.5679698586463928,0.503176748752594
1761414081947287000,4.635287109375,0.05285659059882164,0.5125414729118347,0.528439462184906
1761414081957300000,4.645300048828125,0.05230418220162392,0.4208042323589325,0.6234252452850342
1761414081967312100,4.65531201171875,0.0741434395313263,0.2877359092235565,0.7392055988311768
1761414081977325000,4.665324951171875,0.0915251150727272,0.1276801973581314,0.8115004897117615
1761414081987338000,4.675337890625,0.09963923692703247,-0.030050579458475113,0.8426200747489929
1761414081997350000,4.685349853515625,0.0867377370595932,-0.133395254611969,0.8431645631790161
1761414082007363000,4.695363037109375,0.04961327090859413,-0.18730482459068298,0.8247030377388
1761414082017375000,4.705375,0.0009862487204372883,-0.22014683485031128,0.7919308543205261
1761414082027388200,4.71538818359375,-0.03950924426317215,-0.2453424632549286,0.7482137680053711
1761414082037400000,4.725400146484375,-0.058391787111759186,-0.2718697488307953,0.699327826499939
1761414082047413000,4.7354130859375,-0.05813825502991676,-0.2964528799057007,0.6270152926445007
1761414082057426000,4.745426025390625,-0.020741181448101997,-0.32688045501708984,0.5405506491661072
1761414082067438000,4.75543798828125,0.015056762844324112,-0.3423081636428833,0.4750414490699768
1761414082077451000,4.765450927734375,0.03187450394034386,-0.3424994945526123,0.4516473710536957
1761414082087463200,4.775463134765625,0.02997753396630287,-0.3158702552318573,0.4697267711162567
1761414082097476000,4.78547607421875,0.018130462616682053,-0.2613327205181122,0.4943609833717346
1761414082107488000,4.795488037109375,0.0033560432493686676,-0.2005157172679901,0.49920928478240967
1761414082117501000,4.8055009765625,-0.025475680828094482,-0.142814040184021,0.45907753705978394
1761414082127512600,4.8155126953125,-0.07929123938083649,-0.08103324472904205,0.3793957531452179
1761414082137525500,4.825525390625,-0.14899508655071259,-0.027905136346817017,0.26923221349716187
1761414082147538400,4.835538330078125,-0.22201870381832123,0.0354410819709301,0.1650591790676117
1761414082157550600,4.845550537109375,-0.2791997790336609,0.0926746279001236,0.10091982781887054
1761414082167563500,4.8555634765625,-0.3216535151004791,0.10879474133253098,0.07486798614263535
1761414082177575700,4.86557568359375,-0.3397461473941803,0.05342620611190796,0.08060795068740845
1761414082187588400,4.87558837890625,-0.2981073558330536,-0.023461919277906418,0.1475885808467865
1761414082197600500,4.8856005859375,-0.2132626622915268,-0.09816421568393707,0.30232521891593933
1761414082207613400,4.895613525390625,-0.13487757742404938,-0.21850046515464783,0.4932088851928711
1761414082217626600,4.905626708984375,-0.08129340410232544,-0.4347103536128998,0.6836208701133728
1761414082227638500,4.915638427734375,-0.15924200415611267,-0.7861812710762024,0.7943788170814514
1761414082237651700,4.925651611328125,-0.4810158312320709,-1.392574667930603,0.5756312012672424
1761414082247663600,4.93566357421875,-1.0409235954284668,-1.7066503763198853,-0.28597572445869446
1761414082257676500,4.945676513671875,-1.4178646802902222,-2.129195213317871,-1.7164971828460693
1761414082267688400,4.9556884765625,-1.402714490890503,-1.9308147430419922,-2.8187174797058105
1761414082277701400,4.965701416015625,-1.2185014486312866,-0.38319477438926697,-3.1594202518463135
1761414082287714600,4.975714599609375,-1.007558822631836,1.2479166984558105,-2.9899699687957764
1761414082297726500,4.9857265625,-0.7512233853340149,1.6626795530319214,-2.771735191345215
1761414082307739400,4.995739501953125,-0.592963695526123,1.2847367525100708,-2.56250262260437
1761414082317751300,5.005751220703125,-0.604594349861145,0.6605172157287598,-2.2604761123657227
1761414082327764500,5.015764404296875,-0.6819719672203064,0.086204394698143,-1.7055211067199707
1761414082337776400,5.0257763671875,-0.7210509181022644,-0.2866263687610626,-0.9939173460006714
1761414082347789600,5.03578955078125,-0.7183973789215088,-0.3112339675426483,-0.318129301071167
1761414082357802500,5.045802490234375,-0.5952829122543335,-0.25079697370529175,0.22854214906692505
1761414082367814700,5.055814697265625,-0.4407620131969452,-0.24217845499515533,0.5505968928337097
1761414082377827300,5.065827392578125,-0.3524427115917206,-0.3510127067565918,0.6202059388160706
1761414082387839500,5.075839599609375,-0.3153832256793976,-0.44486889243125916,0.4930298328399658
1761414082397852400,5.085852294921875,-0.2869207561016083,-0.4745310842990875,0.21614190936088562
1761414082407864600,5.095864501953125,-0.250550776720047,-0.5408520698547363,-0.09432142972946167
1761414082417877500,5.10587744140625,-0.232753187417984,-0.6420483589172363,-0.3087822496891022
1761414082427889700,5.1158896484375,-0.2660256624221802,-0.6847636103630066,-0.3826303780078888
1761414082437902300,5.12590234375,-0.3152710497379303,-0.6591007709503174,-0.28419575095176697
1761414082447915500,5.13591552734375,-0.35403576493263245,-0.5858827829360962,0.00014384067617356777
1761414082457927400,5.145927490234375,-0.3773064911365509,-0.5254977345466614,0.40147989988327026
1761414082467940600,5.155940673828125,-0.4196230471134186,-0.42666298151016235,0.8044681549072266
1761414082477952500,5.165952392578125,-0.4638770520687103,-0.4059997797012329,1.1028006076812744
1761414082487965700,5.175965576171875,-0.4762847125530243,-0.5715083479881287,1.2066497802734375
1761414082497977600,5.1859775390625,-0.40938282012939453,-0.9697878956794739,1.1526548862457275
1761414082507990500,5.195990478515625,-0.2983900010585785,-1.4565777778625488,1.0298893451690674
1761414082518003500,5.20600341796875,-0.1954018920660019,-1.7675546407699585,0.9388709664344788
1761414082528015400,5.216015380859375,-0.14008057117462158,-1.851478099822998,0.9426886439323425
1761414082538028500,5.226028564453125,-0.15063461661338806,-1.6861017942428589,1.0811651945114136
1761414082548040400,5.23604052734375,-0.23000399768352509,-1.3015354871749878,1.3493843078613281
1761414082558053400,5.246053466796875,-0.24854153394699097,-1.039296269416809,1.540994644165039
1761414082568065300,5.256065185546875,-0.15247732400894165,-0.994314432144165,1.4956319332122803
1761414082578078500,5.266078369140625,-0.046749696135520935,-0.7525427341461182,1.4127120971679688
1761414082588090400,5.27609033203125,-0.048078082501888275,-0.3076329231262207,1.3395406007766724
1761414082598103600,5.286103515625,-0.11099033802747726,0.09758984297513962,1.2290335893630981
1761414082608116500,5.296116455078125,-0.1941765695810318,0.5826984643936157,1.089627981185913
1761414082618128600,5.306128662109375,-0.1249397024512291,0.9646321535110474,0.9286759495735168
1761414082628141300,5.316141357421875,0.009777897968888283,1.131251573562622,0.7562421560287476
1761414082638153500,5.326153564453125,0.12958605587482452,1.2102383375167847,0.606282114982605
1761414082648166400,5.33616650390625,0.2077873796224594,1.2155945301055908,0.45443376898765564
1761414082658178600,5.346178466796875,0.2673003077507019,1.1918210983276367,0.2699708938598633
1761414082668191500,5.35619140625,0.3159099221229553,1.234235405921936,0.09113883227109909
1761414082678204400,5.366204345703125,0.36723336577415466,1.3121330738067627,-0.052287954837083817
1761414082688216300,5.37621630859375,0.40061262249946594,1.3201602697372437,-0.16449704766273499
1761414082698229500,5.3862294921875,0.3981154263019562,1.3407617807388306,-0.29970166087150574
1761414082708241400,5.396241455078125,0.3824717402458191,1.366091012954712,-0.48516660928726196
1761414082718254600,5.406254638671875,0.4004822373390198,1.3987818956375122,-0.6785510182380676
1761414082728266500,5.4162666015625,0.4540344178676605,1.439615249633789,-0.8447126150131226
1761414082738279700,5.42627978515625,0.5016255378723145,1.50504732131958,-0.921717643737793
1761414082748291600,5.43629150390625,0.5839206576347351,1.6002106666564941,-0.7970074415206909
1761414082758304500,5.446304443359375,0.7631456255912781,1.4671005010604858,-0.6585396528244019
1761414082768317400,5.4563173828125,0.9922256469726562,1.131019949913025,-0.8944762945175171
1761414082778329300,5.466329345703125,1.105016827583313,0.5952288508415222,-1.6369675397872925
1761414082788342500,5.476342529296875,0.9750692248344421,0.03491625934839249,-2.548516035079956
1761414082798354400,5.4863544921875,0.7315224409103394,-0.17944787442684174,-3.018051862716675
1761414082808367600,5.49636767578125,0.6056979298591614,0.10223706811666489,-2.9554264545440674
1761414082818379500,5.506379638671875,0.4755057692527771,0.6249316334724426,-2.4803028106689453
1761414082828392400,5.516392333984375,0.4999285638332367,1.075547695159912,-2.016432285308838
1761414082838405600,5.526405517578125,0.6391368508338928,1.3225810527801514,-1.795615792274475
1761414082848417500,5.53641748046875,0.8272135853767395,1.4971203804016113,-1.5304338932037354
1761414082858430500,5.546430419921875,0.9968786835670471,1.5337443351745605,-1.0445096492767334
1761414082868442600,5.556442626953125,1.0806026458740234,1.4336891174316406,-0.3005486726760864
1761414082878455300,5.566455322265625,1.0897413492202759,1.2700939178466797,0.6801082491874695
1761414082888467500,5.576467529296875,1.0525659322738647,1.0118671655654907,1.6784223318099976
1761414082898480400,5.58648046875,0.9625953435897827,0.5764120817184448,2.4159302711486816
1761414082908493600,5.59649365234375,0.7597849369049072,-0.03775731846690178,2.7492611408233643
1761414082918505500,5.60650537109375,0.4962676167488098,-0.6594222784042358,2.5878868103027344
1761414082928518700,5.6165185546875,0.24532273411750793,-0.9914518594741821,1.9329670667648315
1761414082938530600,5.626530517578125,0.06800619512796402,-0.8780998587608337,1.0064589977264404
1761414082948543500,5.63654345703125,-0.07481806725263596,-0.40828898549079895,0.07744571566581726
1761414082958555400,5.646555419921875,-0.22300629317760468,0.1785205602645874,-0.6509300470352173
1761414082968568600,5.656568603515625,-0.4003957211971283,0.6354633569717407,-1.1331671476364136
1761414082978580500,5.66658056640625,-0.6061070561408997,0.8635276556015015,-1.3701682090759277
1761414082988593700,5.67659375,-0.8074194192886353,0.9280526041984558,-1.3937698602676392
1761414082998606300,5.6866064453125,-0.950937032699585,0.8957623839378357,-1.2457586526870728
1761414083008618500,5.696618408203125,-1.0221792459487915,0.774695873260498,-1.0017971992492676
1761414083018631400,5.70663134765625,-1.0105029344558716,0.6162951588630676,-0.7630167603492737
1761414083028643600,5.7166435546875,-0.9333139061927795,0.4767167270183563,-0.5707042813301086
1761414083038656500,5.726656494140625,-0.8257195949554443,0.39518851041793823,-0.4346049129962921
1761414083048668400,5.73666845703125,-0.7151528596878052,0.35962653160095215,-0.356350839138031
1761414083058681600,5.746681640625,-0.6172775030136108,0.3162204623222351,-0.30056095123291016
1761414083068694500,5.756694580078125,-0.5128999948501587,0.2448275089263916,-0.27496424317359924
1761414083078706400,5.76670654296875,-0.4111373722553253,0.16256698966026306,-0.290750652551651
1761414083088719600,5.7767197265625,-0.35528770089149475,0.10812318325042725,-0.3230004906654358
1761414083098731500,5.7867314453125,-0.3343659043312073,0.08654704689979553,-0.356720894575119
1761414083108744400,5.796744384765625,-0.31444650888442993,0.05381999537348747,-0.4039163589477539
1761414083118756600,5.806756591796875,-0.2836098372936249,-0.007394355721771717,-0.46800652146339417
1761414083128769300,5.816769287109375,-0.2442357987165451,-0.07441866397857666,-0.5488606095314026
1761414083138781200,5.82678125,-0.2029433399438858,-0.10570405423641205,-0.6391223073005676
1761414083148794000,5.836794189453125,-0.1690887063741684,-0.1361604928970337,-0.7270471453666687
1761414083158807000,5.84680712890625,-0.14136192202568054,-0.15085075795650482,-0.7915440797805786
1761414083168819200,5.856819091796875,-0.11592713743448257,-0.17374275624752045,-0.8372185826301575
1761414083178832100,5.86683203125,-0.10034281015396118,-0.22405174374580383,-0.8707711100578308
1761414083188844300,5.87684423828125,-0.10220595449209213,-0.27586859464645386,-0.8879807591438293
1761414083198857000,5.88685693359375,-0.08752455562353134,-0.2897103726863861,-0.8816101551055908
1761414083208869000,5.896869140625,-0.04399652034044266,-0.22641876339912415,-0.8563381433486938
1761414083218882000,5.906882080078125,0.040102675557136536,-0.11007031798362732,-0.8397275805473328
1761414083228895200,5.916895263671875,0.17079970240592957,-0.023691749200224876,-0.8095406293869019
1761414083238907100,5.9269072265625,0.2808651328086853,-0.04499482363462448,-0.737473726272583
1761414083248920300,5.93692041015625,0.3395918309688568,-0.17012450098991394,-0.6658312082290649
1761414083258932200,5.94693212890625,0.35782507061958313,-0.3677639961242676,-0.5717758536338806
1761414083268945200,5.956945068359375,0.37945792078971863,-0.5451467633247375,-0.3961859345436096
1761414083278957000,5.96695703125,0.3661377429962158,-0.7140230536460876,-0.14682888984680176
1761414083288970200,5.97697021484375,0.42573580145835876,-1.1019954681396484,-0.03402244299650192
1761414083298982100,5.986982177734375,0.6535777449607849,-2.207275867462158,-0.5220373272895813
1761414083308995300,5.996995361328125,0.8943799734115601,-3.5265657901763916,-1.7559014558792114
1761414083319008000,6.007008056640625,1.121824860572815,-3.9685769081115723,-3.065174102783203
1761414083329020200,6.017020263671875,1.4058223962783813,-2.9332311153411865,-3.534360647201538
1761414083339033000,6.027033203125,1.5504484176635742,-0.5580875277519226,-2.6460812091827393
1761414083349045200,6.037045166015625,1.1588746309280396,1.0756102800369263,-1.2924736738204956
1761414083359058200,6.04705810546875,0.47008949518203735,1.4246971607208252,-0.3742814362049103
1761414083369070000,6.057070068359375,0.20147696137428284,1.0812780857086182,-0.017587773501873016
1761414083379083300,6.067083251953125,0.3245388865470886,0.839962363243103,0.47820308804512024
1761414083389096200,6.07709619140625,0.671944260597229,0.9083459377288818,1.37556791305542
1761414083399108000,6.087108154296875,0.9026929140090942,0.8838111758232117,2.513559579849243
1761414083409121300,6.097121337890625,0.8792070150375366,0.40848541259765625,3.5460901260375977
1761414083419133200,6.10713330078125,0.6682056188583374,-0.035362083464860916,4.366918087005615
1761414083429146000,6.11714599609375,0.41854384541511536,-0.06070924922823906,4.91141414642334
1761414083439158300,6.127158203125,0.15421922504901886,0.17468543350696564,5.114555358886719
1761414083449171000,6.1371708984375,-0.07821694016456604,0.3585362136363983,4.951291561126709
1761414083459183000,6.14718310546875,-0.29728785157203674,0.44903185963630676,4.461913585662842
1761414083469196000,6.157196044921875,-0.49093082547187805,0.600280225276947,3.786508798599243
1761414083479209200,6.167209228515625,-0.616605281829834,0.8210729956626892,3.0582191944122314
1761414083489221000,6.17722119140625,-0.6812183856964111,1.136020302772522,2.404052495956421
1761414083499234300,6.187234375,-0.6992483139038086,1.450246810913086,1.8912497758865356
1761414083509246200,6.19724609375,-0.7095686197280884,1.5545310974121094,1.514127492904663
1761414083519259100,6.207259033203125,-0.7683172225952148,1.4385044574737549,1.2223517894744873
1761414083529271000,6.21727099609375,-0.8663718700408936,1.2387592792510986,1.011975646018982
1761414083539284200,6.2272841796875,-0.960594892501831,1.046923279762268,0.8854265809059143
1761414083549297200,6.237297119140625,-0.9996535778045654,0.864600419998169,0.7889900803565979
1761414083559309300,6.247309326171875,-0.9743526577949524,0.668795108795166,0.6695032119750977
1761414083569322000,6.257322021484375,-0.9467050433158875,0.4787388741970062,0.46816742420196533
1761414083579334100,6.267334228515625,-0.9081198573112488,0.24609878659248352,0.17324288189411163
1761414083589347000,6.27734716796875,-0.8426932096481323,0.028299367055296898,-0.21809080243110657
1761414083599359200,6.287359130859375,-0.7413753867149353,-0.1596526950597763,-0.6594405770301819
1761414083609372200,6.2973720703125,-0.5998457074165344,-0.18523448705673218,-1.0637869834899902
1761414083619384000,6.307384033203125,-0.4323920011520386,-0.09506296366453171,-1.3526005744934082
1761414083629397200,6.317397216796875,-0.26952266693115234,-0.012711898423731327,-1.5283221006393433
1761414083639410200,6.32741015625,-0.1491435468196869,-0.017305582761764526,-1.5888479948043823
1761414083649422000,6.337422119140625,-0.04201550409197807,-0.1329224556684494,-1.520877718925476
1761414083659435300,6.347435302734375,0.05325441434979439,-0.30604514479637146,-1.3380284309387207
1761414083669447200,6.357447265625,0.1605300009250641,-0.4919750690460205,-1.0803066492080688
1761414083679460000,6.367460205078125,0.27325868606567383,-0.6971196532249451,-0.8025258183479309
1761414083689472300,6.37747216796875,0.3472813069820404,-0.9136112928390503,-0.5978761315345764
1761414083699485200,6.387485107421875,0.38084322214126587,-1.1207596063613892,-0.4866637587547302
1761414083709497000,6.3974970703125,0.39259231090545654,-1.278404951095581,-0.4642367660999298
1761414083719510000,6.407510009765625,0.38749274611473083,-1.3684861660003662,-0.4936639666557312
1761414083729523200,6.417523193359375,0.36488011479377747,-1.347776174545288,-0.5283838510513306
1761414083739535000,6.42753515625,0.363017737865448,-1.1984537839889526,-0.5473830699920654
1761414083749548300,6.43754833984375,0.38790178298950195,-0.9984250664710999,-0.6012390851974487
1761414083759560200,6.447560302734375,0.4659520089626312,-0.7859615087509155,-0.6924318075180054
1761414083769573000,6.457572998046875,0.5874702334403992,-0.5352714657783508,-0.7649968266487122
1761414083779585000,6.4675849609375,0.7496182918548584,-0.2948223352432251,-0.7864195108413696
1761414083789598200,6.47759814453125,0.92644202709198,-0.06010887771844864,-0.7284387946128845
1761414083799611100,6.487611083984375,1.0783209800720215,0.19234991073608398,-0.5863454341888428
1761414083809623300,6.497623291015625,1.0565835237503052,0.3851337432861328,-0.4653465747833252
1761414083819636200,6.50763623046875,0.8783528804779053,0.2438105195760727,-0.4535773992538452
1761414083829648400,6.5176484375,0.657123327255249,-0.5106238722801208,-0.8152495622634888
1761414083839661000,6.5276611328125,0.46813908219337463,-1.3126994371414185,-1.4395136833190918
1761414083849673200,6.537673095703125,0.5257299542427063,-1.53847336769104,-1.9125635623931885
1761414083859686100,6.54768603515625,0.8423306941986084,-1.0793485641479492,-1.9086024761199951
1761414083869699300,6.55769921875,1.2205924987792969,-0.09916973859071732,-1.148800253868103
1761414083879711200,6.567711181640625,1.3579633235931396,0.500047504901886,-0.010917678475379944
1761414083889724200,6.57772412109375,1.1023443937301636,0.1915050595998764,0.8077095150947571
1761414083899736000,6.587736083984375,0.6539319753646851,-0.6718302369117737,1.0644375085830688
1761414083909749200,6.597749267578125,0.323703408241272,-1.2953516244888306,1.0220240354537964
1761414083919761200,6.60776123046875,0.27704259753227234,-1.3997528553009033,1.0009468793869019
1761414083929774000,6.617774169921875,0.385819673538208,-1.2229583263397217,1.1208504438400269
1761414083939786200,6.6277861328125,0.4346146285533905,-0.9533658623695374,1.3021947145462036
1761414083949799200,6.637799072265625,0.3695288300514221,-0.5453346967697144,1.4478328227996826
1761414083959812000,6.64781201171875,0.225384920835495,-0.034094322472810745,1.503659963607788
1761414083969824000,6.657823974609375,-0.027216443791985512,0.3985220789909363,1.5208579301834106
1761414083979837200,6.667837158203125,-0.3524239659309387,0.4964624047279358,1.4889601469039917
1761414083989849000,6.67784912109375,-0.6617757081985474,0.30249160528182983,1.353921890258789
1761414083999862300,6.6878623046875,-0.8876168727874756,-0.0273081474006176,1.0937553644180298
1761414084009874200,6.697874267578125,-1.0080654621124268,-0.2954740822315216,0.7370928525924683
1761414084019887000,6.70788720703125,-1.0473096370697021,-0.3358592391014099,0.3597887456417084
1761414084029900000,6.717900146484375,-1.0199393033981323,-0.1845482736825943,0.05788985639810562
1761414084039912200,6.727912109375,-0.9527040123939514,0.03850015997886658,-0.11925002187490463
1761414084049925000,6.737925048828125,-0.9262313842773438,0.15110474824905396,-0.22963963449001312
1761414084059937300,6.747937255859375,-0.9426133632659912,0.07740698009729385,-0.33316904306411743
1761414084069950200,6.7579501953125,-0.9695768356323242,-0.07755143940448761,-0.4399396777153015
1761414084079962400,6.76796240234375,-0.9776765704154968,-0.16200800240039825,-0.5061966180801392
1761414084089975000,6.77797509765625,-0.9538639187812805,0.01019386574625969,-0.4298594892024994
1761414084099987200,6.7879873046875,-0.8975642919540405,0.3137628734111786,-0.20693619549274445
1761414084110000000,6.798000244140625,-0.8140321373939514,0.5539256930351257,-0.013924399390816689
1761414084120013300,6.808013427734375,-0.7266896367073059,0.7233489155769348,0.12613841891288757
1761414084130025500,6.818025390625,-0.6246138215065002,0.8476042747497559,0.19746160507202148
1761414084140038400,6.828038330078125,-0.5425226092338562,0.877043604850769,0.18382656574249268
1761414084150050300,6.83805029296875,-0.498602032661438,0.8504778146743774,0.08904759585857391
1761414084160063500,6.8480634765625,-0.4695936441421509,0.8248054385185242,-0.023566607385873795
1761414084170075400,6.858075439453125,-0.42328792810440063,0.8319193124771118,-0.13842129707336426
1761414084180088600,6.868088623046875,-0.3555787205696106,0.8839006423950195,-0.2449418306350708
1761414084190100500,6.8781005859375,-0.28533172607421875,0.9285605549812317,-0.34910765290260315
1761414084200113400,6.888113525390625,-0.21974846720695496,0.9586824774742126,-0.4522653818130493
1761414084210126300,6.898126220703125,-0.14251573383808136,0.9820783138275146,-0.5380175709724426
1761414084220138200,6.90813818359375,-0.042967792600393295,1.0137395858764648,-0.5834484696388245
1761414084230151400,6.9181513671875,0.0595250241458416,1.029808521270752,-0.615466833114624
1761414084240163300,6.928163330078125,0.18261569738388062,0.9997017979621887,-0.5956264138221741
1761414084250176500,6.938176513671875,0.3080101013183594,0.8837110996246338,-0.5482516884803772
1761414084260188400,6.9481884765625,0.4182274639606476,0.7017130255699158,-0.5303958058357239
1761414084270201300,6.958201416015625,0.5210545063018799,0.5704125165939331,-0.501010000705719
1761414084280214300,6.96821435546875,0.5935207605361938,0.5362515449523926,-0.42294877767562866
1761414084290226400,6.978226318359375,0.6031715273857117,0.5675758719444275,-0.31998324394226074
1761414084300239400,6.9882392578125,0.5900677442550659,0.5928143262863159,-0.22969238460063934
1761414084310251500,6.99825146484375,0.6201473474502563,0.6540483832359314,-0.14187784492969513
1761414084320264400,7.008264404296875,0.769041895866394,0.8252357840538025,-0.039117682725191116
1761414084330276600,7.018276611328125,1.0472767353057861,1.041054606437683,0.09422066062688828
1761414084340289300,7.028289306640625,1.3039151430130005,1.078038215637207,0.18286025524139404
1761414084350301400,7.038301513671875,1.3704692125320435,1.1753554344177246,0.30172646045684814
1761414084360314400,7.048314453125,1.1792722940444946,1.3767224550247192,0.5012863874435425
1761414084370327600,7.05832763671875,0.8310276865959167,1.1134942770004272,0.735874354839325
1761414084380339500,7.06833935546875,0.5625426173210144,0.31344136595726013,0.707513689994812
1761414084390352400,7.078352294921875,0.45442497730255127,-0.7013651728630066,0.17489932477474213
1761414084400364300,7.0883642578125,0.5112823247909546,-1.047476053237915,-0.5476707220077515
1761414084410377500,7.09837744140625,0.6836418509483337,-0.5044550895690918,-1.058850884437561
1761414084420389400,7.108389404296875,0.928443431854248,0.45807912945747375,-1.070009469985962
1761414084430402600,7.118402587890625,1.0782420635223389,0.8639174699783325,-0.8490030169487
1761414084440414500,7.12841455078125,0.8900157809257507,0.571242094039917,-0.5514729619026184
1761414084450427400,7.138427490234375,0.6860312223434448,0.07638788968324661,-0.2246980220079422
1761414084460440300,7.1484404296875,0.6843280792236328,-0.43571367859840393,-0.10975977778434753
1761414084470452200,7.1584521484375,0.7289663553237915,-1.1341971158981323,-0.07362014800310135
1761414084480465400,7.16846533203125,0.8526815176010132,-1.786670446395874,0.008711151778697968
1761414084490477300,7.178477294921875,1.064369797706604,-1.8741768598556519,0.24865370988845825
1761414084500490500,7.188490478515625,1.2515454292297363,-1.6858071088790894,0.6299842596054077
1761414084510502400,7.19850244140625,1.318227767944336,-1.4839740991592407,1.0293304920196533
1761414084520515300,7.208515380859375,1.228821873664856,-1.3104523420333862,1.4051800966262817
1761414084530528300,7.2185283203125,1.0407789945602417,-1.1702080965042114,1.7244433164596558
1761414084540540400,7.22854052734375,0.8242263197898865,-1.125368356704712,1.9163011312484741
1761414084550553300,7.23855322265625,0.5740473866462708,-1.1775223016738892,1.929755687713623
1761414084560565500,7.2485654296875,0.3296050429344177,-1.1545106172561646,1.7728065252304077
1761414084570578400,7.258578369140625,0.13994909822940826,-1.093860387802124,1.4693100452423096
1761414084580590600,7.268590576171875,0.01005050353705883,-1.0358127355575562,1.1137725114822388
1761414084590603300,7.278603271484375,-0.05288611724972725,-0.9942392110824585,0.8145699501037598
1761414084600615400,7.288615478515625,-0.03772556781768799,-0.9184315204620361,0.5768373012542725
1761414084610628400,7.29862841796875,0.003454624442383647,-0.7965591549873352,0.38581573963165283
1761414084620641500,7.3086416015625,0.04777804762125015,-0.6627624034881592,0.23857882618904114
1761414084630653400,7.3186533203125,0.06679434329271317,-0.487470418214798,0.13779814541339874
1761414084640666400,7.328666259765625,0.06443391740322113,-0.27512264251708984,0.0793466717004776
1761414084650678300,7.33867822265625,0.032160669565200806,-0.060959767550230026,0.07769417762756348
1761414084660691500,7.34869140625,-0.028373487293720245,0.1573997288942337,0.11762765794992447
1761414084670703400,7.358703369140625,-0.09532002359628677,0.3408963084220886,0.1855292022228241
1761414084680716500,7.368716552734375,-0.15790894627571106,0.4820300042629242,0.2686814069747925
1761414084690728400,7.378728515625,-0.2329443097114563,0.5710933208465576,0.3662383258342743
1761414084700741400,7.388741455078125,-0.309531569480896,0.5305798053741455,0.462638795375824
1761414084710754300,7.39875439453125,-0.4073076546192169,0.4141192138195038,0.5517529845237732
1761414084720766200,7.40876611328125,-0.4912964105606079,0.21680012345314026,0.645292341709137
1761414084730779400,7.418779296875,-0.5503120422363281,-0.020255032926797867,0.719935953617096
1761414084740791300,7.428791259765625,-0.579599916934967,-0.23355373740196228,0.7832592725753784
1761414084750804500,7.438804443359375,-0.5818292498588562,-0.3988087475299835,0.8353528380393982
1761414084760816400,7.44881640625,-0.5804725885391235,-0.49034103751182556,0.850219190120697
1761414084770829300,7.458829345703125,-0.5517389178276062,-0.5224489569664001,0.837665319442749
1761414084780841500,7.468841552734375,-0.5002882480621338,-0.4987877905368805,0.8167633414268494
1761414084790854400,7.4788544921875,-0.4879351556301117,-0.44644495844841003,0.7893085479736328
1761414084800867300,7.488867431640625,-0.5159295201301575,-0.3924435079097748,0.7454293966293335
1761414084810879500,7.49887939453125,-0.5464232563972473,-0.3073752224445343,0.6661420464515686
1761414084820892400,7.508892333984375,-0.5609934329986572,-0.22402042150497437,0.5483192205429077
1761414084830904600,7.518904541015625,-0.554133951663971,-0.18809756636619568,0.3971104919910431
1761414084840917200,7.528917236328125,-0.49885860085487366,-0.14348384737968445,0.23101186752319336
1761414084850929400,7.538929443359375,-0.3931819498538971,-0.09212265908718109,0.04875843599438667
1761414084860942300,7.5489423828125,-0.26206451654434204,-0.0939154103398323,-0.13152942061424255
1761414084870955500,7.55895556640625,-0.10975806415081024,-0.21544130146503448,-0.2974443733692169
1761414084880967400,7.568967529296875,0.031545937061309814,-0.3370171785354614,-0.43412119150161743
1761414084890980600,7.578980712890625,0.1113603413105011,-0.24300892651081085,-0.5581715106964111
1761414084900992500,7.588992431640625,0.09805872291326523,0.16926570236682892,-0.7223414778709412
1761414084911005400,7.59900537109375,0.012849821709096432,0.768325924873352,-0.8933196067810059
1761414084921017300,7.609017333984375,0.01315401867032051,1.1743062734603882,-1.091380000114441
1761414084931030500,7.619030517578125,0.2509694993495941,1.253053069114685,-1.413030743598938
1761414084941042400,7.62904248046875,0.6262608170509338,1.1189994812011719,-1.8348419666290283
1761414084951055600,7.6390556640625,0.9686240553855896,0.7727562785148621,-2.2602603435516357
1761414084961068300,7.649068359375,1.1760246753692627,0.24094966053962708,-2.6154356002807617
1761414084971080200,7.659080078125,1.200448989868164,-0.21355871856212616,-2.6989316940307617
1761414084981093400,7.66909326171875,1.0531376600265503,-0.3931969106197357,-2.3400282859802246
1761414084991105300,7.679105224609375,0.7756234407424927,-0.39586886763572693,-1.768952488899231
1761414085001118500,7.689118408203125,0.4750601053237915,-0.34013718366622925,-1.3673772811889648
1761414085011130400,7.69913037109375,0.3330851197242737,-0.3874010741710663,-1.38905930519104
1761414085021143600,7.7091435546875,0.383823961019516,-0.41035112738609314,-1.6559244394302368
1761414085031155500,7.719155517578125,0.5621625185012817,-0.1674538105726242,-1.7550294399261475
1761414085041168400,7.72916845703125,0.743094801902771,0.11891856789588928,-1.6064062118530273
1761414085051181300,7.739181396484375,0.8054599165916443,0.2270149439573288,-1.3345898389816284
1761414085061193500,7.749193359375,0.8045615553855896,0.1700287163257599,-0.9876729846000671
1761414085071206400,7.759206298828125,0.7657384872436523,-0.07064461708068848,-0.5867066383361816
1761414085081218600,7.769218505859375,0.6716523170471191,-0.4292542636394501,-0.1344345360994339
1761414085091231200,7.779231201171875,0.5306070446968079,-0.8682383298873901,0.29238203167915344
1761414085101243400,7.789243408203125,0.4016335606575012,-1.2262693643569946,0.6055713295936584
1761414085111256300,7.79925634765625,0.27944132685661316,-1.4454504251480103,0.6823329329490662
1761414085121268500,7.8092685546875,0.1290314644575119,-1.5095456838607788,0.535021185874939
1761414085131281700,7.81928173828125,-0.015155545435845852,-1.4657832384109497,0.30205824971199036
1761414085141294600,7.829294677734375,-0.08681473135948181,-1.3464566469192505,0.06268171966075897
1761414085151306800,7.839306640625,-0.08704962581396103,-1.18233060836792,-0.13610541820526123
1761414085161319700,7.849319580078125,-0.045944422483444214,-1.0180546045303345,-0.2652548849582672
1761414085171331600,7.85933154296875,-0.012809369713068008,-0.8913604021072388,-0.36044877767562866
1761414085181344500,7.869344482421875,-0.016387341544032097,-0.6987259387969971,-0.4104338586330414
1761414085191356700,7.879356689453125,-0.06772509217262268,-0.3947373032569885,-0.37973904609680176
1761414085201369600,7.88936962890625,-0.19458793103694916,-0.10875968635082245,-0.28845736384391785
1761414085211381800,7.8993818359375,-0.34373053908348083,0.0735294297337532,-0.2082219123840332
1761414085221394400,7.90939453125,-0.4367702007293701,0.1363680362701416,-0.1510351002216339
1761414085231407600,7.91940771484375,-0.4599524736404419,0.10755237191915512,-0.10339993983507156
1761414085241419500,7.92941943359375,-0.44209715723991394,0.03858652710914612,-0.07492368668317795
1761414085251432700,7.9394326171875,-0.39369022846221924,-0.049705784767866135,-0.06796484440565109
1761414085261444600,7.949444580078125,-0.3354247212409973,-0.14700685441493988,-0.06042497232556343
1761414085271457800,7.959457763671875,-0.26905155181884766,-0.21836838126182556,-0.03322930634021759
1761414085281469700,7.9694697265625,-0.20912350714206696,-0.21061432361602783,0.027479050680994987
1761414085291482600,7.979482666015625,-0.15992134809494019,-0.13859711587429047,0.11311538517475128
1761414085301494500,7.98949462890625,-0.13827964663505554,-0.025217922404408455,0.20367614924907684
1761414085311507700,7.9995078125,-0.1460600644350052,0.1084839478135109,0.2939669191837311
1761414085321520600,8.009520751953126,-0.17497320473194122,0.269297331571579,0.36236056685447693
1761414085331532800,8.01953271484375,-0.21436375379562378,0.438495397567749,0.41644883155822754
1761414085341545500,8.02954541015625,-0.2625318169593811,0.5855197906494141,0.45280683040618896
1761414085351557600,8.0395576171875,-0.3345061242580414,0.7235476970672607,0.4866311252117157
1761414085361570600,8.049570556640624,-0.3953359127044678,0.857816219329834,0.5192983746528625
1761414085371582500,8.05958251953125,-0.44174280762672424,0.9657349586486816,0.5348624587059021
1761414085381595600,8.069595703125,-0.4809277057647705,1.068068504333496,0.5277152061462402
1761414085391607600,8.079607666015624,-0.5061051845550537,1.1283435821533203,0.4821344316005707
1761414085401620700,8.089620849609375,-0.5127257704734802,1.0806195735931396,0.38045534491539
1761414085411633700,8.099633544921875,-0.4799465239048004,0.8943485617637634,0.23036864399909973
1761414085421645600,8.1096455078125,-0.3867475390434265,0.6433196663856506,0.04378454387187958
1761414085431658500,8.119658447265625,-0.2444910705089569,0.43387535214424133,-0.125013530254364
1761414085441670700,8.129670654296875,-0.14296984672546387,0.37440013885498047,-0.21804849803447723
1761414085451683600,8.13968359375,-0.10312681645154953,0.45206964015960693,-0.247038334608078
1761414085461695700,8.14969580078125,-0.11870092898607254,0.5447614789009094,-0.231103777885437
1761414085471708400,8.15970849609375,-0.15033316612243652,0.566088855266571,-0.13824467360973358
1761414085481720600,8.169720458984376,-0.18373601138591766,0.6309840679168701,0.06688996404409409
1761414085491733500,8.1797333984375,-0.20169450342655182,0.5276475548744202,0.21205168962478638
1761414085501746700,8.18974658203125,-0.27171629667282104,-0.21804621815681458,0.01876205764710903
1761414085511758600,8.199758544921876,-0.4977704882621765,-1.2054600715637207,-0.46092545986175537
1761414085521771800,8.209771728515625,-0.797821044921875,-1.785467267036438,-0.8652476072311401
1761414085531783700,8.21978369140625,-1.15373957157135,-1.4155815839767456,-0.9012868404388428
1761414085541796600,8.229796630859376,-1.517802357673645,-0.030927564948797226,-0.5404784083366394
1761414085551808500,8.23980859375,-1.6147136688232422,1.4602535963058472,-0.0019007346127182245
1761414085561821700,8.24982177734375,-1.3505523204803467,2.19405198097229,0.5233270525932312
1761414085571833600,8.25983349609375,-0.8451237082481384,1.8288393020629883,0.8260341882705688
1761414085581846800,8.2698466796875,-0.26156777143478394,0.6989614367485046,0.7340965867042542
1761414085591859500,8.279859375,0.11485298722982407,-0.4561505913734436,0.3513369560241699
1761414085601871600,8.28987158203125,0.16243426501750946,-1.3291834592819214,-0.0853477418422699
1761414085611884500,8.299884521484374,0.05488329380750656,-1.9347878694534302,-0.35488706827163696
1761414085621896400,8.309896484375,-0.07868337631225586,-2.2624526023864746,-0.41047561168670654
1761414085631909600,8.31990966796875,-0.21854433417320251,-2.2255263328552246,-0.3492591083049774
1761414085641921500,8.329921630859374,-0.35667884349823,-1.919119954109192,-0.14436279237270355
1761414085651934700,8.339934814453125,-0.5056768655776978,-1.367004156112671,0.1942829042673111
1761414085661946600,8.349946533203125,-0.5849223136901855,-0.8054431676864624,0.60696941614151
1761414085671959600,8.35995947265625,-0.5528320670127869,-0.6572044491767883,0.9652910828590393
1761414085681972500,8.369972412109375,-0.4289039075374603,-0.6649655103683472,0.9704251885414124
1761414085691984600,8.379984619140625,-0.29212474822998047,-0.6566833853721619,0.8191395401954651
1761414085701997600,8.38999755859375,-0.11913307756185532,-0.6089248061180115,0.6118802428245544
1761414085712009700,8.400009765625,0.09191951155662537,-0.6385937333106995,0.35651910305023193
1761414085722022700,8.410022705078125,0.31565937399864197,-0.7524318695068359,0.10939701646566391
1761414085732034600,8.42003466796875,0.4743001461029053,-0.7893315553665161,-0.08453091233968735
1761414085742047500,8.430047607421875,0.5658751726150513,-0.7048993706703186,-0.20048044621944427
1761414085752059600,8.4400595703125,0.6331666111946106,-0.4764139652252197,-0.26657477021217346
1761414085762072600,8.450072509765626,0.6796324849128723,-0.19785991311073303,-0.2819022536277771
1761414085772085800,8.460085693359375,0.7067086100578308,0.053504668176174164,-0.27007725834846497
1761414085782097700,8.47009765625,0.6823432445526123,0.24291355907917023,-0.25069892406463623
1761414085792110600,8.480110595703126,0.6233747005462646,0.3987843990325928,-0.2107299417257309
1761414085802122500,8.49012255859375,0.5648645758628845,0.5630975961685181,-0.14882904291152954
1761414085812135700,8.5001357421875,0.5227168798446655,0.7199117541313171,-0.06185765936970711
1761414085822147600,8.510147705078126,0.4919990599155426,0.8118904829025269,0.016947034746408463
1761414085832160800,8.520160888671874,0.4678090512752533,0.8383880853652954,0.06109851971268654
1761414085842173700,8.530173583984375,0.4233529269695282,0.9194294810295105,0.057218246161937714
1761414085852185600,8.540185546875,0.3753526508808136,1.1106334924697876,0.045789554715156555
1761414085862198500,8.550198486328124,0.33631348609924316,1.3380358219146729,0.05581745505332947
1761414085872210400,8.56021044921875,0.29897117614746094,1.537590742111206,0.0841367170214653
1761414085882223600,8.5702236328125,0.2584458291530609,1.664374828338623,0.12814845144748688
1761414085892235500,8.580235595703124,0.21263490617275238,1.7023944854736328,0.16202625632286072
1761414085902248700,8.590248779296875,0.1777961552143097,1.6664788722991943,0.19386796653270721
1761414085912260600,8.600260498046875,0.16273358464241028,1.575713038444519,0.22642244398593903
1761414085922273500,8.6102734375,0.17355982959270477,1.4251809120178223,0.24977940320968628
1761414085932285400,8.620285400390625,0.2068040668964386,1.2579602003097534,0.24836501479148865
1761414085942298600,8.630298583984375,0.26789817214012146,1.159627079963684,0.23793727159500122
1761414085952311600,8.6403115234375,0.3631836771965027,1.1480870246887207,0.2304748296737671
1761414085962323700,8.65032373046875,0.46686851978302,1.13065505027771,0.22589653730392456
1761414085972336600,8.660336669921875,0.5658641457557678,1.0142240524291992,0.2090296596288681
1761414085982348800,8.670348876953126,0.6628527045249939,0.7700681090354919,0.1726185828447342
1761414085992361500,8.680361572265625,0.7554543018341064,0.47811374068260193,0.1563597172498703
1761414086002373600,8.69037353515625,0.8394556641578674,0.13178855180740356,0.16105584800243378
1761414086012386600,8.700386474609376,0.8670550584793091,-0.28879833221435547,0.13835212588310242
1761414086022398700,8.710398681640624,0.8681100010871887,-0.7480617761611938,0.10939362645149231
1761414086032411600,8.72041162109375,0.8756800293922424,-1.1661174297332764,0.12121646106243134
1761414086042424600,8.730424560546876,0.9233620166778564,-1.4493495225906372,0.19391006231307983
1761414086052436500,8.7404365234375,1.0255638360977173,-1.4099528789520264,0.3452841341495514
1761414086062449700,8.75044970703125,1.0794687271118164,-1.089215874671936,0.5242232084274292
1761414086072461600,8.760461669921876,0.9907582998275757,-0.6215949654579163,0.611584484577179
1761414086082474800,8.770474853515625,0.8496871590614319,-0.16154807806015015,0.6394690275192261
1761414086092486700,8.780486572265625,0.7076810002326965,-0.04477299004793167,0.5654922723770142
1761414086102499800,8.790499755859376,0.45598945021629333,-0.26099830865859985,0.35835856199264526
1761414086112511700,8.80051171875,0.0832614153623581,-0.2971360683441162,0.11209232360124588
1761414086122524400,8.8105244140625,-0.1823808252811432,0.14474935829639435,0.00761049147695303
1761414086132537600,8.82053759765625,-0.19036631286144257,0.6361851096153259,0.0004804101772606373
1761414086142549500,8.830549560546874,-0.000997746828943491,0.7325401306152344,-0.010407565161585808
1761414086152562700,8.840562744140625,0.21910452842712402,0.5473596453666687,-0.003195725614205003
1761414086162574600,8.85057470703125,0.23131990432739258,0.11953295767307281,-0.07674877345561981
1761414086172587500,8.86058740234375,0.06583694368600845,-0.48678651452064514,-0.09563564509153366
1761414086182599400,8.870599365234375,-0.2360619604587555,-0.9284773468971252,-0.022874530404806137
1761414086192612600,8.880612548828125,-0.5736852884292603,-1.2049437761306763,0.05408097058534622
1761414086202624500,8.89062451171875,-0.8775839805603027,-1.2712875604629517,0.07818356156349182
1761414086212637400,8.900637451171875,-1.1714540719985962,-1.0774576663970947,-0.04744147136807442
1761414086222650600,8.910650634765625,-1.404675841331482,-0.6991675496101379,-0.2911653220653534
1761414086232662500,8.92066259765625,-1.5260919332504272,-0.2553320825099945,-0.5870110988616943
1761414086242675500,8.930675537109375,-1.5285745859146118,0.1858205497264862,-0.8659180998802185
1761414086252687400,8.940687255859375,-1.4510585069656372,0.5254915952682495,-1.0876531600952148
1761414086262700500,8.950700439453126,-1.3048131465911865,0.6470448970794678,-1.2256215810775757
1761414086272712400,8.96071240234375,-1.133611798286438,0.5573770403862,-1.2580047845840454
1761414086282725600,8.9707255859375,-0.9679322242736816,0.3531034588813782,-1.165730595588684
1761414086292737500,8.980737548828126,-0.8203379511833191,0.10902021825313568,-0.9531877636909485
1761414086302750500,8.99075048828125,-0.7032161355018616,-0.136055588722229,-0.6602979898452759
1761414086312763400,9.000763427734375,-0.6383111476898193,-0.3016214072704315,-0.3264041543006897
1761414086322775600,9.010775634765626,-0.6246440410614014,-0.34716737270355225,0.0029667371418327093
1761414086332788500,9.02078857421875,-0.6471493244171143,-0.26831597089767456,0.2552144229412079
1761414086342800600,9.030800537109375,-0.6871708035469055,-0.15612313151359558,0.4432535469532013
1761414086352813600,9.0408134765625,-0.7227253317832947,-0.09956637024879456,0.6037758588790894
1761414086362825700,9.05082568359375,-0.7385275363922119,-0.11018066108226776,0.7338725924491882
1761414086372838400,9.06083837890625,-0.7490307688713074,-0.13993056118488312,0.8414027690887451
1761414086382850600,9.0708505859375,-0.7511749863624573,-0.1836131513118744,0.9063146114349365
1761414086392863500,9.080863525390624,-0.7346439361572266,-0.24913330376148224,0.9404752254486084
1761414086402876700,9.090876708984375,-0.696967363357544,-0.3223590850830078,0.9528265595436096
1761414086412888600,9.100888671875,-0.6245775818824768,-0.35598841309547424,0.9575278162956238
1761414086422901500,9.110901611328124,-0.5123103857040405,-0.3514741361141205,0.9702044725418091
1761414086432913700,9.12091357421875,-0.38185515999794006,-0.2969355285167694,0.9887776374816895
1761414086442926600,9.130926513671875,-0.25453174114227295,-0.2207348644733429,1.0064067840576172
1761414086452938500,9.1409384765625,-0.13630016148090363,-0.17092709243297577,1.0250874757766724
1761414086462951400,9.150951416015625,-0.03699055314064026,-0.15341264009475708,1.0372729301452637
1761414086472963600,9.160963623046875,0.0371401347219944,-0.18778766691684723,1.0271738767623901
1761414086482976500,9.1709765625,0.09855416417121887,-0.26311826705932617,0.9866237044334412
1761414086492989400,9.180989501953125,0.15672184526920319,-0.40045005083084106,0.9332212209701538
1761414086503001300,9.19100146484375,0.21735236048698425,-0.6153106093406677,0.8432819247245789
1761414086513014500,9.2010146484375,0.2677183151245117,-0.8226848244667053,0.712660551071167
1761414086523026400,9.2110263671875,0.31553083658218384,-0.8371580839157104,0.5794886350631714
1761414086533039600,9.22103955078125,0.3880055546760559,-0.6716500520706177,0.4864237308502197
1761414086543051500,9.231051513671876,0.48369377851486206,-0.38202810287475586,0.45408156514167786
1761414086553064700,9.241064697265625,0.5588431358337402,-0.06784457713365555,0.45222029089927673
1761414086563076600,9.25107666015625,0.5603380799293518,0.13595925271511078,0.4360917806625366
1761414086573089500,9.261089599609376,0.48726707696914673,0.1770550161600113,0.3696861267089844
1761414086583101400,9.271101318359374,0.35762596130371094,0.07719250023365021,0.2642451524734497
1761414086593114600,9.281114501953125,0.23072870075702667,0.022272255271673203,0.16426101326942444
1761414086603127600,9.29112744140625,0.1741122603416443,0.0916331559419632,0.1546347439289093
1761414086613139700,9.3011396484375,0.17943404614925385,-0.09531249850988388,0.07136967778205872
1761414086623152400,9.31115234375,0.10351506620645523,-0.7678090929985046,-0.2985084056854248
1761414086633164500,9.32116455078125,-0.13242262601852417,-1.2616819143295288,-0.8086832761764526
1761414086643177500,9.331177490234374,-0.37380990386009216,-0.9767650365829468,-1.1409863233566284
1761414086653189400,9.341189453125,-0.38808178901672363,-0.026221852749586105,-1.095272421836853
1761414086663202600,9.35120263671875,-0.19251611828804016,0.9806057214736938,-0.7848748564720154
1761414086673214500,9.36121435546875,-0.09154371172189713,1.6211905479431152,-0.5607932806015015
1761414086683227600,9.3712275390625,-0.14659783244132996,2.003406047821045,-0.5671420097351074
1761414086693240600,9.381240478515625,-0.24408231675624847,1.9242826700210571,-0.7802183628082275
1761414086703252500,9.39125244140625,-0.34185516834259033,1.269481897354126,-1.1082110404968262
1761414086713265400,9.401265380859375,-0.44560420513153076,0.47046008706092834,-1.4032951593399048
1761414086723277600,9.411277587890625,-0.5324124693870544,-0.09199563413858414,-1.52162766456604
1761414086733290500,9.42129052734375,-0.5792571902275085,-0.4329164922237396,-1.5177572965621948
1761414086743302700,9.431302734375,-0.6198924779891968,-0.42587411403656006,-1.4320615530014038
1761414086753315300,9.4413154296875,-0.6572781801223755,-0.10668012499809265,-1.2795037031173706
1761414086763327500,9.451327392578126,-0.6465892791748047,0.36639606952667236,-1.0807445049285889
1761414086773340400,9.46134033203125,-0.5786991715431213,0.8889977335929871,-0.8785021901130676
1761414086783352600,9.4713525390625,-0.44816887378692627,1.2887063026428223,-0.7555952668190002
1761414086793365500,9.481365478515626,-0.30688127875328064,1.464829683303833,-0.7174646854400635
1761414086803378700,9.491378662109375,-0.19141249358654022,1.3625272512435913,-0.7657379508018494
1761414086813390600,9.501390625,-0.1280742734670639,1.014458179473877,-0.8803489804267883
1761414086823403500,9.511403564453126,-0.08869721740484238,0.5400423407554626,-1.0013355016708374
1761414086833415400,9.52141552734375,-0.05240686237812042,0.1279674619436264,-1.05398690700531
1761414086843428600,9.5314287109375,-0.015136076137423515,-0.15551628172397614,-1.0165504217147827
1761414086853440500,9.5414404296875,0.0036629121750593185,-0.323659211397171,-0.8885306119918823
1761414086863453700,9.55145361328125,-0.028531523421406746,-0.3998812735080719,-0.6895354390144348
1761414086873465600,9.561465576171875,-0.09667675197124481,-0.4408065974712372,-0.4509314000606537
1761414086883478500,9.571478515625,-0.17769092321395874,-0.4938223361968994,-0.194622203707695
1761414086893491500,9.581491455078124,-0.25631996989250183,-0.5856543183326721,0.032066069543361664
1761414086903503400,9.59150341796875,-0.30683794617652893,-0.7110913395881653,0.20257572829723358
1761414086913516500,9.6015166015625,-0.35459667444229126,-0.8527707457542419,0.29943570494651794
1761414086923528400,9.611528564453126,-0.3743738532066345,-0.9873285293579102,0.3495952785015106
1761414086933541600,9.621541748046875,-0.36224207282066345,-1.0795048475265503,0.354202538728714
1761414086943553500,9.631553466796875,-0.32954642176628113,-1.1203128099441528,0.33629167079925537
1761414086953566500,9.64156640625,-0.2740786373615265,-1.0531816482543945,0.3179168999195099
1761414086963578400,9.651578369140625,-0.20230142772197723,-0.8808841109275818,0.31206947565078735
1761414086973591600,9.661591552734375,-0.12468892335891724,-0.6359564065933228,0.307608962059021
1761414086983604500,9.6716044921875,-0.0580429770052433,-0.3741174042224884,0.28699490427970886
1761414086993616600,9.68161669921875,-0.014065933413803577,-0.1477026641368866,0.2410188764333725
1761414087003629600,9.691629638671875,-0.0016901118215173483,0.03813769295811653,0.18584111332893372
1761414087013641500,9.701641357421876,-0.022935746237635612,0.1761259287595749,0.13342905044555664
1761414087023654400,9.711654296875,-0.07803680002689362,0.2646224796772003,0.09015023708343506
1761414087033666600,9.72166650390625,-0.14703743159770966,0.3359917402267456,0.0577068105340004
1761414087043679500,9.731679443359376,-0.2025446891784668,0.4016543924808502,0.041306138038635254
1761414087053691600,9.741691650390624,-0.23022398352622986,0.4628477096557617,0.03900010511279106
1761414087063704600,9.75170458984375,-0.22248196601867676,0.4948302209377289,0.04951411485671997
1761414087073717500,9.761717529296876,-0.17501752078533173,0.4952787160873413,0.09694527834653854
1761414087083729400,9.7717294921875,-0.09487849473953247,0.4764903783798218,0.17139320075511932
1761414087093742600,9.78174267578125,-0.0008097828831523657,0.45831137895584106,0.2596665918827057
1761414087103754500,9.79175439453125,0.10698101669549942,0.3565308451652527,0.3709767460823059
1761414087113767700,9.801767578125,0.19330258667469025,0.19853109121322632,0.45089101791381836
1761414087123779600,9.811779541015625,0.22983142733573914,-0.056260090321302414,0.4808732867240906
1761414087133792500,9.82179248046875,0.22910384833812714,-0.4183836579322815,0.43984994292259216
1761414087143804700,9.8318046875,0.18519870936870575,-0.7880277633666992,0.3025328516960144
1761414087153817300,9.8418173828125,0.1391041874885559,-0.8900590538978577,0.14789000153541565
1761414087163830500,9.85183056640625,0.14369700849056244,-0.5907002687454224,0.034175287932157516
1761414087173842400,9.861842529296876,0.2215886116027832,-0.062264714390039444,0.0301150344312191
1761414087183855600,9.871855712890625,0.3184317946434021,0.3426748514175415,0.14614707231521606
1761414087193867500,9.881867431640625,0.28702834248542786,0.05475892126560211,0.0624186247587204
1761414087203880400,9.89188037109375,0.07239662110805511,-0.9220197200775146,-0.34854260087013245
1761414087213892400,9.901892333984375,-0.23350019752979279,-1.820172905921936,-0.8487218022346497
1761414087223905500,9.911905517578125,-0.4091607928276062,-2.0653390884399414,-1.1172548532485962
1761414087233917400,9.92191748046875,-0.3405633568763733,-1.665030598640442,-1.0394819974899292
1761414087243930600,9.9319306640625,-0.17988912761211395,-0.7764739990234375,-0.6648622751235962
1761414087253942500,9.941942626953125,-0.12388072162866592,0.13986191153526306,-0.29447096586227417
1761414087263955700,9.951955810546876,-0.2404143214225769,0.7140371203422546,-0.1242235079407692
1761414087273968400,9.961968505859375,-0.4051736891269684,0.7913433909416199,-0.17944574356079102
1761414087283980500,9.97198046875,-0.5632249712944031,0.47724759578704834,-0.3760365843772888
1761414087293993500,9.981993408203126,-0.6791387796401978,0.020109595730900764,-0.566324770450592
1761414087304005400,9.99200537109375,-0.7173140048980713,-0.42921724915504456,-0.7150363326072693
1761414087314018600,10.0020185546875,-0.7158830761909485,-0.7502469420433044,-0.834595263004303
1761414087324030500,10.012030517578125,-0.7006233930587769,-0.8823456168174744,-0.9254151582717896
1761414087334043400,10.02204345703125,-0.6542726755142212,-0.7943534255027771,-0.9534878134727478
1761414087344055300,10.03205517578125,-0.5529832243919373,-0.4958025813102722,-0.8879439830780029
1761414087354068500,10.042068359375,-0.4094577729701996,-0.11509091407060623,-0.7773998975753784
1761414087364081400,10.052081298828124,-0.2539828419685364,0.23668433725833893,-0.6586829423904419
1761414087374093600,10.062093505859375,-0.11267363280057907,0.44994282722473145,-0.5553022027015686
1761414087384106500,10.0721064453125,-0.011760786175727844,0.5207995772361755,-0.44544216990470886
1761414087394118700,10.08211865234375,0.05284057557582855,0.5154274702072144,-0.30593380331993103
1761414087404131300,10.09213134765625,0.08045782148838043,0.46987250447273254,-0.13636259734630585
1761414087414143500,10.1021435546875,0.07136685401201248,0.3953511416912079,0.04881071671843529
1761414087424156400,10.112156494140624,0.034841377288103104,0.31940576434135437,0.21315930783748627
1761414087434168600,10.12216845703125,-0.014630565419793129,0.29010432958602905,0.35103219747543335
1761414087444181500,10.132181396484375,-0.07027782499790192,0.3322564959526062,0.4648703932762146
1761414087454193700,10.142193603515626,-0.13859322667121887,0.4194135069847107,0.5444387197494507
1761414087464206300,10.152206298828125,-0.21789568662643433,0.4995711147785187,0.5844541192054749
1761414087474219500,10.162219482421875,-0.2722600996494293,0.5640935897827148,0.5971611142158508
1761414087484231400,10.1722314453125,-0.3019271492958069,0.6057380437850952,0.5955228805541992
1761414087494244600,10.18224462890625,-0.2947337031364441,0.6227066516876221,0.572379469871521
1761414087504256500,10.192256591796875,-0.2557730972766876,0.6143664121627808,0.5467112064361572
1761414087514269700,10.202269775390626,-0.1956937611103058,0.5779828429222107,0.5247324109077454
1761414087524281600,10.212281494140624,-0.14000163972377777,0.5235520601272583,0.5054905414581299
1761414087534294500,10.22229443359375,-0.09652873873710632,0.44001615047454834,0.4832059442996979
1761414087544306400,10.232306396484375,-0.05917155742645264,0.3504282236099243,0.4528740346431732
1761414087554319400,10.2423193359375,-0.031062690541148186,0.26619938015937805,0.4347546696662903
1761414087564332500,10.25233251953125,-0.005307974759489298,0.18899743258953094,0.41701066493988037
1761414087574344400,10.262344482421875,0.016090523451566696,0.10238344222307205,0.40960416197776794
1761414087584357400,10.272357421875,0.038382429629564285,0.0045020487159490585,0.4003848731517792
1761414087594369500,10.28236962890625,0.05936680734157562,-0.0637262761592865,0.38231000304222107
1761414087604382500,10.292382568359375,0.09370386600494385,-0.0658218190073967,0.3731623888015747
1761414087614394400,10.302394287109376,0.1442173719406128,0.0074052573181688786,0.36673590540885925
1761414087624407600,10.312407470703125,0.21959148347377777,0.13505668938159943,0.38131406903266907
1761414087634419500,10.32241943359375,0.2902904450893402,0.2993191182613373,0.4141918420791626
1761414087644432600,10.3324326171875,0.341874361038208,0.432029664516449,0.4582374095916748
1761414087654444500,10.342444580078125,0.3683203458786011,0.4854036867618561,0.4938545227050781
1761414087664457500,10.35245751953125,0.38992413878440857,0.514959990978241,0.5157318711280823
1761414087674470400,10.362470458984374,0.41865673661231995,0.7019833922386169,0.5919363498687744
1761414087684482600,10.372482666015625,0.4445735812187195,0.7751284837722778,0.60908442735672
1761414087694495500,10.38249560546875,0.5047934651374817,0.5714637637138367,0.4151967167854309
1761414087704507600,10.392507568359376,0.639389157295227,0.37744253873825073,0.0651177242398262
1761414087714520600,10.4025205078125,0.7180166244506836,0.3733806908130646,-0.14289112389087677
1761414087724532500,10.412532470703125,0.6521673202514648,0.605334997177124,-0.14993299543857574
1761414087734545400,10.42254541015625,0.6210456490516663,1.1036721467971802,0.07385322451591492
