time,seconds_elapsed,z,y,x
1761414095909781000,0.074781005859375,0.9905293583869934,-0.7074683904647827,0.8390396237373352
1761414095919793000,0.08479296875,0.8137380480766296,-0.4187990725040436,0.7612849473953247
1761414095929806000,0.09480615234375,0.5506744980812073,-0.2491767555475235,0.6383720636367798
1761414095939818000,0.10481787109375,0.23156200349330902,-0.07244059443473816,0.5255123376846313
1761414095949831000,0.114830810546875,-0.114702008664608,0.16574542224407196,0.4379626214504242
1761414095959842800,0.1248427734375,-0.4189852178096771,0.327966570854187,0.36374884843826294
1761414095969856000,0.13485595703125,-0.5709916949272156,0.3601084351539612,0.2791445553302765
1761414095979868000,0.144867919921875,-0.5961422920227051,0.3075442910194397,0.12372036278247833
1761414095989881000,0.154881103515625,-0.5831204652786255,0.18620018661022186,-0.015857761725783348
1761414095999893000,0.16489306640625,-0.5278241634368896,0.02490556426346302,-0.2252482771873474
1761414096009906200,0.17490625,-0.4137543737888336,0.0031170030124485493,-0.4492316246032715
1761414096019918000,0.18491796875,-0.25752004981040955,0.11471942812204361,-0.6318075656890869
1761414096029931000,0.194930908203125,-0.09934618324041367,0.13562825322151184,-0.7740964293479919
1761414096039943000,0.20494287109375,0.08264971524477005,0.12912188470363617,-0.9128527641296387
1761414096049955800,0.214955810546875,0.3171151876449585,0.2662304937839508,-1.0069940090179443
1761414096059969000,0.224968994140625,0.5109999775886536,0.39249467849731445,-1.0714433193206787
1761414096069981000,0.23498095703125,0.617056667804718,0.42095667123794556,-1.133768916130066
1761414096079993900,0.244993896484375,0.6327344179153442,0.4527457654476166,-1.1834235191345215
1761414096090005800,0.255005859375,0.5792596936225891,0.40510421991348267,-1.2067108154296875
1761414096100019000,0.26501904296875,0.4893503189086914,0.2734988033771515,-1.2203867435455322
1761414096110030800,0.27503076171875,0.39082837104797363,0.22154735028743744,-1.1990269422531128
1761414096120044000,0.2850439453125,0.28940320014953613,0.3029090464115143,-1.1642130613327026
1761414096130056000,0.295055908203125,0.19567666947841644,0.49464499950408936,-1.1213483810424805
1761414096140069000,0.305069091796875,0.13362208008766174,0.8100197315216064,-1.1394275426864624
1761414096150080500,0.31508056640625,0.12008300423622131,0.9109773635864258,-1.3220194578170776
1761414096160093200,0.32509326171875,0.14898549020290375,0.809503436088562,-1.639746069908142
1761414096170105300,0.335105224609375,0.1967560052871704,0.7214664220809937,-1.979931116104126
1761414096180118300,0.3451181640625,0.21511371433734894,0.597702145576477,-2.3011715412139893
1761414096190130400,0.35513037109375,0.23293888568878174,0.4456736445426941,-2.5402376651763916
1761414096200143400,0.365143310546875,0.26120221614837646,0.23480109870433807,-2.5996663570404053
1761414096210156500,0.375156494140625,0.3097377419471741,0.07307585328817368,-2.436307668685913
1761414096220168400,0.38516845703125,0.2797231078147888,-0.0382850207388401,-2.067439079284668
1761414096230181400,0.395181396484375,0.1301073282957077,-0.2610539495944977,-1.601763367652893
1761414096240193300,0.405193359375,-0.0964706763625145,-0.5522285103797913,-1.1270751953125
1761414096250206500,0.41520654296875,-0.3430390954017639,-0.8152178525924683,-0.6868204474449158
1761414096260218400,0.42521826171875,-0.5220571160316467,-0.9842675924301147,-0.2903122007846832
1761414096270231600,0.4352314453125,-0.5945554971694946,-1.0883424282073975,0.016351886093616486
1761414096280243500,0.445243408203125,-0.5702016949653625,-0.8601225018501282,0.11867639422416687
1761414096290256400,0.45525634765625,-0.4858923852443695,-0.36502009630203247,-0.0028769366908818483
1761414096300268300,0.465268310546875,-0.321510374546051,-0.09206126630306244,-0.05636386573314667
1761414096310281500,0.475281494140625,-0.08867068588733673,0.09584703296422958,-0.17454893887043
1761414096320293400,0.48529345703125,0.10369103401899338,0.3198108971118927,-0.30254656076431274
1761414096330306600,0.495306640625,0.21954144537448883,0.5497387051582336,-0.36051538586616516
1761414096340318500,0.505318359375,0.2544296383857727,0.7990436553955078,-0.2825832962989807
1761414096350331400,0.515331298828125,0.2293853908777237,1.2432756423950195,0.03295508399605751
1761414096360344300,0.52534423828125,0.19470570981502533,1.583025574684143,0.46098950505256653
1761414096370356200,0.535356201171875,0.28762367367744446,1.3442456722259521,0.6902804970741272
1761414096380369400,0.545369384765625,0.38888266682624817,0.6265896558761597,0.5936943292617798
1761414096390381300,0.55538134765625,0.30575063824653625,-0.8580228686332703,0.035942092537879944
1761414096400394500,0.56539453125,0.07710257172584534,-2.7389090061187744,-0.5789706110954285
1761414096410406400,0.575406494140625,0.1610831767320633,-3.6457061767578125,-0.4046558737754822
1761414096420419300,0.58541943359375,0.382999062538147,-3.2671639919281006,0.4390164911746979
1761414096430431500,0.595431396484375,0.10272813588380814,-1.677419662475586,1.5387212038040161
1761414096440444400,0.6054443359375,-0.25572216510772705,-0.3102521002292633,2.2178456783294678
1761414096450456300,0.615456298828125,-0.09893261641263962,0.5935966372489929,2.2284061908721924
1761414096460469500,0.625469482421875,-0.16434304416179657,1.5438228845596313,1.8204665184020996
1761414096470481400,0.6354814453125,-0.35016804933547974,2.235391855239868,1.0722167491912842
1761414096480494600,0.64549462890625,-0.6105391383171082,2.6880221366882324,0.18090702593326569
1761414096490506500,0.655506591796875,-0.9035537242889404,2.8542659282684326,-0.6457687616348267
1761414096500519400,0.66551953125,-1.1709078550338745,2.7427563667297363,-1.2662813663482666
1761414096510532400,0.675532470703125,-1.4390232563018799,2.450615644454956,-1.5900743007659912
1761414096520544500,0.68554443359375,-1.7079132795333862,2.0752439498901367,-1.621630072593689
1761414096530557400,0.695557373046875,-1.968567132949829,1.6818082332611084,-1.4756298065185547
1761414096540569300,0.7055693359375,-2.213005542755127,1.2840940952301025,-1.2591686248779297
1761414096550582500,0.71558251953125,-2.404240846633911,0.9406557679176331,-1.0423378944396973
1761414096560594400,0.725594482421875,-2.541407585144043,0.7014996409416199,-0.8094287514686584
1761414096570607400,0.735607421875,-2.617565631866455,0.5925816893577576,-0.5656081438064575
1761414096580619300,0.745619384765625,-2.6082255840301514,0.5351333022117615,-0.334213525056839
1761414096590632400,0.755632568359375,-2.548553943634033,0.45621657371520996,-0.14768953621387482
1761414096600644400,0.765644287109375,-2.4274470806121826,0.39206475019454956,0.0244755782186985
1761414096610657500,0.775657470703125,-2.237523317337036,0.32214707136154175,0.1658448725938797
1761414096620669400,0.78566943359375,-2.01090145111084,0.2522500157356262,0.2817603051662445
1761414096630682400,0.795682373046875,-1.804761528968811,0.210331529378891,0.416926771402359
1761414096640694300,0.8056943359375,-1.6374439001083374,0.16318584978580475,0.5579746961593628
1761414096650707500,0.81570751953125,-1.5146899223327637,0.08840704709291458,0.6865365505218506
1761414096660719400,0.82571923828125,-1.4265507459640503,-0.017892232164740562,0.8242172002792358
1761414096670732500,0.835732666015625,-1.3449492454528809,-0.20624439418315887,0.9811022877693176
1761414096680745500,0.845745361328125,-1.2673280239105225,-0.43598702549934387,1.1590609550476074
1761414096690757600,0.855757568359375,-1.1896401643753052,-0.6861233711242676,1.3390014171600342
1761414096700770300,0.865770263671875,-1.1112744808197021,-0.8983757495880127,1.4941308498382568
1761414096710782500,0.875782470703125,-1.0243433713912964,-1.0348334312438965,1.5966957807540894
1761414096720795400,0.88579541015625,-0.9323537945747375,-1.0657825469970703,1.6175105571746826
1761414096730807300,0.895807373046875,-0.8499552011489868,-1.0071738958358765,1.5757900476455688
1761414096740820500,0.905820556640625,-0.7953417301177979,-0.8925207853317261,1.4782930612564087
1761414096750832400,0.915832275390625,-0.7537842392921448,-0.7489547729492188,1.3715345859527588
1761414096760845300,0.92584521484375,-0.7135555744171143,-0.6244991421699524,1.255333662033081
1761414096770857200,0.935857177734375,-0.6781030297279358,-0.5505668520927429,1.1165293455123901
1761414096780870400,0.945870361328125,-0.6451205611228943,-0.5455537438392639,0.9773061871528625
1761414096790882300,0.95588232421875,-0.6357811689376831,-0.5835938453674316,0.8438324928283691
1761414096800895500,0.9658955078125,-0.6338370442390442,-0.6705310940742493,0.7248179316520691
1761414096810907400,0.975907470703125,-0.6231437921524048,-0.7247012257575989,0.6762714385986328
1761414096820920600,0.985920654296875,-0.5982451438903809,-0.7039206027984619,0.6817421317100525
1761414096830933200,0.995933349609375,-0.561082124710083,-0.6437357068061829,0.6941258311271667
1761414096840945400,1.0059453125,-0.5115497708320618,-0.5735265612602234,0.6549355387687683
1761414096850958300,1.015958251953125,-0.4529540538787842,-0.5135148763656616,0.5440812110900879
1761414096860970500,1.025970458984375,-0.38393929600715637,-0.43475958704948425,0.40068408846855164
1761414096870983400,1.0359833984375,-0.3195643126964569,-0.34204378724098206,0.24515685439109802
1761414096880995600,1.04599560546875,-0.27854418754577637,-0.22831426560878754,0.07875322550535202
1761414096891008300,1.05600830078125,-0.2777707278728485,-0.16219046711921692,-0.09162922948598862
1761414096901020400,1.0660205078125,-0.2769472897052765,-0.05850135162472725,-0.17363834381103516
1761414096911033300,1.076033447265625,-0.2799815535545349,0.07079687714576721,-0.1450539231300354
1761414096921045200,1.086045166015625,-0.20901283621788025,0.24094997346401215,0.000806078314781189
1761414096931058400,1.096058349609375,0.016140975058078766,0.5427196025848389,0.24576754868030548
1761414096941070300,1.1060703125,0.3033117651939392,0.961584210395813,0.46819448471069336
1761414096951083500,1.11608349609375,0.5320005416870117,1.109115481376648,0.43521377444267273
1761414096961095400,1.126095458984375,0.6301225423812866,0.6621360778808594,-0.02495516464114189
1761414096971108400,1.1361083984375,0.5511684417724609,-0.3974763751029968,-0.7118509411811829
1761414096981121300,1.146121337890625,0.3152109980583191,-1.6480361223220825,-1.1880276203155518
1761414096991133400,1.156133544921875,0.20101849734783173,-2.56079363822937,-1.1833397150039673
1761414097001146400,1.166146484375,0.36000123620033264,-2.849529981613159,-0.7596225142478943
1761414097011158500,1.176158447265625,0.7434124946594238,-2.485250949859619,-0.06514938175678253
1761414097021171500,1.18617138671875,1.1300933361053467,-1.5889878273010254,0.6785455942153931
1761414097031183400,1.196183349609375,1.4272915124893188,-0.5584206581115723,1.1678626537322998
1761414097041196300,1.2061962890625,1.5800321102142334,0.22075054049491882,1.326551914215088
1761414097051208400,1.21620849609375,1.5372916460037231,0.6571107506752014,1.2367300987243652
1761414097061221400,1.226221435546875,1.3536651134490967,0.8349206447601318,1.019843578338623
1761414097071233500,1.236233642578125,1.105068564414978,0.7820568680763245,0.7585347890853882
1761414097081246500,1.24624658203125,0.8566803336143494,0.5591332912445068,0.5207949280738831
1761414097091258600,1.256258544921875,0.6509801149368286,0.2996823489665985,0.3439268469810486
1761414097101271300,1.266271240234375,0.48910996317863464,0.06560726463794708,0.25491973757743835
1761414097111283200,1.276283203125,0.39948081970214844,-0.1750725358724594,0.2710501253604889
1761414097121296400,1.28629638671875,0.35039955377578735,-0.43493980169296265,0.3782583475112915
1761414097131308300,1.296308349609375,0.2707670032978058,-0.5769311785697937,0.5748876333236694
1761414097141321500,1.306321533203125,0.16372576355934143,-0.6160194873809814,0.7584452033042908
1761414097151333600,1.316333740234375,0.07021638751029968,-0.527111291885376,0.8530245423316956
1761414097161346600,1.3263466796875,0.05329706147313118,-0.25670722126960754,0.8864227533340454
1761414097171359700,1.33635986328125,0.10430234670639038,0.10857658088207245,0.8368674516677856
1761414097181371600,1.34637158203125,0.1845276653766632,0.45694148540496826,0.7208878397941589
1761414097191384600,1.356384521484375,0.2612614929676056,0.7222004532814026,0.6016292572021484
1761414097201396700,1.366396728515625,0.345625638961792,0.8586307168006897,0.5156403183937073
1761414097211409700,1.37640966796875,0.4188530743122101,0.8528078198432922,0.47717535495758057
1761414097221421800,1.386421875,0.46700969338417053,0.7413055300712585,0.5091620683670044
1761414097231434500,1.3964345703125,0.469757616519928,0.621643602848053,0.6083938479423523
1761414097241446700,1.40644677734375,0.4421944320201874,0.5211114287376404,0.750377893447876
1761414097251459600,1.41645947265625,0.4019258916378021,0.5134616494178772,0.9176149368286133
1761414097261471700,1.4264716796875,0.3665415346622467,0.5705499649047852,1.0678848028182983
1761414097271484700,1.436484619140625,0.34952932596206665,0.6339117884635925,1.1049845218658447
1761414097281496800,1.446496826171875,0.35617443919181824,0.700892448425293,1.0278146266937256
1761414097291509500,1.456509521484375,0.3776654303073883,0.7963404059410095,0.872377872467041
1761414097301521700,1.466521728515625,0.3900054693222046,0.9088344573974609,0.6887060403823853
1761414097311534600,1.47653466796875,0.3766094148159027,0.9707883596420288,0.5129542946815491
1761414097321546500,1.48654638671875,0.3252096176147461,0.9773544073104858,0.3623378276824951
1761414097331559700,1.4965595703125,0.24387530982494354,0.93826824426651,0.22318191826343536
1761414097341572900,1.50657275390625,0.13206543028354645,0.8611095547676086,0.11165112257003784
1761414097351584800,1.516584716796875,0.028241930529475212,0.825242280960083,0.05602223053574562
1761414097361597700,1.52659765625,-0.03987054526805878,0.8689436912536621,0.07419005036354065
1761414097371609600,1.536609619140625,-0.06660996377468109,0.9595574140548706,0.1105918139219284
1761414097381622500,1.54662255859375,-0.055551983416080475,1.0675649642944336,0.12313662469387054
1761414097391634700,1.556634765625,-0.022029435262084007,1.1727280616760254,0.07326596975326538
1761414097401647600,1.566647705078125,0.00022926554083824158,1.2777791023254395,-0.02813202515244484
1761414097411659800,1.57665966796875,0.001910580089315772,1.3390679359436035,-0.1910397857427597
1761414097421672700,1.586672607421875,-0.029824979603290558,1.3432800769805908,-0.39375242590904236
1761414097431684600,1.5966845703125,-0.10288027673959732,1.3030774593353271,-0.6315785646438599
1761414097441697500,1.606697509765625,-0.18533360958099365,1.193540096282959,-0.8540169596672058
1761414097451709700,1.616709716796875,-0.2508687973022461,1.0518405437469482,-0.9223294258117676
1761414097461722600,1.62672265625,-0.2529812157154083,0.8518203496932983,-0.7492980360984802
1761414097471734800,1.63673486328125,-0.12537026405334473,0.5556502342224121,-0.27511200308799744
1761414097481747700,1.646747802734375,0.13936445116996765,0.3140983283519745,0.4635434150695801
1761414097491759900,1.656759765625,0.34236371517181396,0.02298622950911522,1.2230077981948853
1761414097501772500,1.6667724609375,0.3931398093700409,-0.5138982534408569,1.4560374021530151
1761414097511785700,1.67678564453125,0.31948205828666687,-1.184950351715088,0.9407711029052734
1761414097521797600,1.686797607421875,0.14405377209186554,-1.697218656539917,0.011787297204136848
1761414097531810800,1.696810791015625,-0.029667332768440247,-1.847593069076538,-0.7958471179008484
1761414097541822700,1.70682275390625,0.012901700101792812,-1.4789750576019287,-1.1200745105743408
1761414097551835600,1.716835693359375,0.26662585139274597,-0.959742546081543,-1.0905253887176514
1761414097561847800,1.726847900390625,0.5858358144760132,-0.7125250697135925,-1.000527262687683
1761414097571860500,1.736860595703125,0.8060811758041382,-0.5965533256530762,-0.8092877864837646
1761414097581872600,1.74687255859375,1.002416968345642,-0.4712078869342804,-0.41672852635383606
1761414097591885600,1.756885498046875,1.0982515811920166,-0.3015272319316864,0.10202068090438843
1761414097601897700,1.766897705078125,0.9827336668968201,0.24067877233028412,0.8886127471923828
1761414097611910700,1.77691064453125,0.8203245401382446,0.74952632188797,1.6682109832763672
1761414097621922800,1.7869228515625,0.8264111876487732,1.1375041007995605,2.105081081390381
1761414097631935500,1.796935546875,0.8224948644638062,1.394270896911621,2.160846471786499
1761414097641947600,1.80694775390625,0.7702337503433228,1.4131494760513306,1.8646596670150757
1761414097651960600,1.816960693359375,0.6791048049926758,1.2746069431304932,1.3695509433746338
1761414097661972700,1.82697265625,0.5560718178749084,1.057554841041565,0.8986897468566895
1761414097671985700,1.836985595703125,0.43512091040611267,0.8060678839683533,0.5944347381591797
1761414097681997800,1.846997802734375,0.3432069718837738,0.5730029344558716,0.48967987298965454
1761414097692010800,1.8570107421875,0.2626083493232727,0.3732849359512329,0.5033401846885681
1761414097702022700,1.867022705078125,0.16938278079032898,0.11258784681558609,0.5521524548530579
1761414097712035600,1.87703564453125,0.05390844866633415,-0.2355954498052597,0.6160113215446472
1761414097722048800,1.887048828125,-0.08098892122507095,-0.635109543800354,0.6934768557548523
1761414097732060700,1.897060791015625,-0.21403473615646362,-0.9420573711395264,0.7440454959869385
1761414097742073900,1.907073974609375,-0.3290635943412781,-1.0928596258163452,0.7008458375930786
1761414097752085800,1.917085693359375,-0.401345431804657,-1.1079792976379395,0.5686562061309814
1761414097762098400,1.927098388671875,-0.39360707998275757,-1.0433130264282227,0.3709801733493805
1761414097772110600,1.937110595703125,-0.3344114124774933,-0.942362368106842,0.15432117879390717
1761414097782123500,1.94712353515625,-0.267404168844223,-0.8058444857597351,-0.04273596778512001
1761414097792135700,1.9571357421875,-0.20710861682891846,-0.6564435362815857,-0.17595838010311127
1761414097802148600,1.967148681640625,-0.1726105660200119,-0.5222769379615784,-0.2327907681465149
1761414097812160800,1.977160888671875,-0.17635107040405273,-0.4181229770183563,-0.23626811802387238
1761414097822173700,1.987173583984375,-0.1961793750524521,-0.3312051296234131,-0.21663714945316315
1761414097832185900,1.997185791015625,-0.2348080426454544,-0.20640426874160767,-0.20742951333522797
1761414097842198500,2.007198486328125,-0.28479984402656555,-0.0295389536768198,-0.21579396724700928
1761414097852210700,2.017210693359375,-0.3370895981788635,0.17585299909114838,-0.275386244058609
1761414097862223600,2.0272236328125,-0.3900100886821747,0.3519958257675171,-0.41034457087516785
1761414097872235800,2.03723583984375,-0.43360522389411926,0.459492951631546,-0.6135532259941101
1761414097882248700,2.047248779296875,-0.456897497177124,0.5100927352905273,-0.814939558506012
1761414097892260600,2.057260498046875,-0.46293407678604126,0.49114009737968445,-0.9739981889724731
1761414097902273500,2.0672734375,-0.48267263174057007,0.39353230595588684,-1.0599149465560913
1761414097912286700,2.07728662109375,-0.4787909686565399,0.28212228417396545,-1.0371246337890625
1761414097922298600,2.087298583984375,-0.47641807794570923,0.14675939083099365,-0.9625903964042664
1761414097932311800,2.097311767578125,-0.4936221241950989,0.01631970889866352,-0.9202341437339783
1761414097942323700,2.10732373046875,-0.5237472653388977,-0.0817733034491539,-0.9536557793617249
1761414097952336600,2.117336669921875,-0.5685202479362488,-0.15985967218875885,-1.0760419368743896
1761414097962348800,2.127348876953125,-0.6155785322189331,-0.23310725390911102,-1.248093605041504
1761414097972361500,2.137361572265625,-0.6624647974967957,-0.28280484676361084,-1.4289240837097168
1761414097982373600,2.14737353515625,-0.7155165672302246,-0.297700971364975,-1.5743731260299683
1761414097992386600,2.157386474609375,-0.7637818455696106,-0.2864096164703369,-1.6580705642700195
1761414098002398700,2.167398681640625,-0.8063138127326965,-0.3028527796268463,-1.7233225107192993
1761414098012411600,2.17741162109375,-0.8496519923210144,-0.3722400963306427,-1.7765870094299316
1761414098022423800,2.187423828125,-0.8921206593513489,-0.47074776887893677,-1.7837765216827393
1761414098032436700,2.197436767578125,-0.9097563028335571,-0.5390151143074036,-1.7408628463745117
1761414098042448600,2.20744873046875,-0.9156224727630615,-0.6077983975410461,-1.6688098907470703
1761414098052461600,2.217461669921875,-0.9052218198776245,-0.6798427104949951,-1.5273171663284302
1761414098062473700,2.2274736328125,-0.823144257068634,-0.8534358143806458,-1.3296304941177368
1761414098072486700,2.237486572265625,-0.7404882311820984,-1.2817320823669434,-1.1933804750442505
1761414098082498600,2.24749853515625,-0.6849567890167236,-1.9930509328842163,-1.187811017036438
1761414098092511700,2.25751171875,-0.6039468050003052,-2.682887315750122,-1.193030834197998
1761414098102524700,2.267524658203125,-0.5411295294761658,-3.324580669403076,-1.1341956853866577
1761414098112536600,2.27753662109375,-0.4397784173488617,-3.758774757385254,-0.9131407141685486
1761414098122549800,2.2875498046875,-0.2399902045726776,-3.7107276916503906,-0.6035043001174927
1761414098132561700,2.297561767578125,-0.06389567255973816,-3.4712140560150146,-0.3906707763671875
1761414098142574600,2.30757470703125,0.22726133465766907,-2.719818592071533,-0.24728617072105408
1761414098152587800,2.317587890625,0.11323551088571548,-1.0952918529510498,0.1645348221063614
1761414098162600400,2.327600341796875,-0.31294670701026917,0.5774049758911133,0.7421651482582092
1761414098172612400,2.3376123046875,-0.5533435344696045,1.718467116355896,1.2443532943725586
1761414098182625500,2.34762548828125,-0.5067885518074036,1.929177165031433,1.4516316652297974
1761414098192637400,2.357637451171875,-0.4696287512779236,1.6344921588897705,1.629300594329834
1761414098202650600,2.367650634765625,-0.43247365951538086,1.1154251098632812,1.8572684526443481
1761414098212662500,2.37766259765625,-0.4871975779533386,0.5232788920402527,1.9859200716018677
1761414098222675500,2.387675537109375,-0.6513380408287048,-0.0016680064145475626,1.9067305326461792
1761414098232687400,2.397687255859375,-0.8322277665138245,-0.2711278796195984,1.597745418548584
1761414098242700500,2.407700439453125,-1.0062978267669678,-0.22165460884571075,1.188007116317749
1761414098252712400,2.41771240234375,-1.1428675651550293,0.0742049366235733,0.7833003401756287
1761414098262725600,2.4277255859375,-1.2231725454330444,0.416942834854126,0.4415498971939087
1761414098272737500,2.437737548828125,-1.2433547973632812,0.7184648513793945,0.20914335548877716
1761414098282750700,2.447750732421875,-1.216243028640747,0.935545802116394,0.0931301936507225
1761414098292763400,2.457763427734375,-1.1870496273040771,1.0213911533355713,0.07476245611906052
1761414098302775600,2.467775634765625,-1.1874778270721436,0.9895512461662292,0.11509735882282257
1761414098312788500,2.47778857421875,-1.2094327211380005,0.9379255771636963,0.208624467253685
1761414098322800600,2.487800537109375,-1.2025336027145386,0.9280543327331543,0.3368428945541382
1761414098332813600,2.4978134765625,-1.1627330780029297,0.9661193490028381,0.4570615291595459
1761414098342825700,2.50782568359375,-1.085584044456482,1.0381324291229248,0.5019280314445496
1761414098352838400,2.51783837890625,-0.9901347756385803,1.1309040784835815,0.44338181614875793
1761414098362850300,2.527850341796875,-0.9106375575065613,1.1837379932403564,0.295470654964447
1761414098372863500,2.537863525390625,-0.8440760374069214,1.192126750946045,0.1175583004951477
1761414098382875400,2.54787548828125,-0.7884974479675293,1.1470271348953247,-0.04434884712100029
1761414098392888600,2.557888671875,-0.7454697489738464,1.0392358303070068,-0.1520220786333084
1761414098402900500,2.567900390625,-0.7001584768295288,0.8863661885261536,-0.2012452781200409
1761414098412913700,2.57791357421875,-0.6371704936027527,0.7346874475479126,-0.16955356299877167
1761414098422925600,2.587925537109375,-0.553908109664917,0.6465956568717957,-0.0864618793129921
1761414098432938500,2.5979384765625,-0.4858587086200714,0.6300832033157349,-0.026346480473876
1761414098442950400,2.607950439453125,-0.4527934193611145,0.6732985973358154,-0.026387225836515427
1761414098452963600,2.617963623046875,-0.42404595017433167,0.7610133290290833,-0.1081693097949028
1761414098462975500,2.6279755859375,-0.3802239000797272,0.8269941806793213,-0.2487730234861374
1761414098472988700,2.63798876953125,-0.3193545639514923,0.8693966269493103,-0.38362857699394226
1761414098483000600,2.64800048828125,-0.2500476539134979,0.8638636469841003,-0.5046354532241821
1761414098493013500,2.658013427734375,-0.19123569130897522,0.8097692131996155,-0.6052282452583313
1761414098503025400,2.668025390625,-0.13454711437225342,0.7355493307113647,-0.6915263533592224
1761414098513038600,2.67803857421875,-0.095313660800457,0.6459157466888428,-0.772993803024292
1761414098523051500,2.688051513671875,-0.058753516525030136,0.5307894349098206,-0.8209165930747986
1761414098533063700,2.698063720703125,-0.00029983167769387364,0.385965496301651,-0.8192747235298157
1761414098543076600,2.70807666015625,0.07968315482139587,0.20269685983657837,-0.7872155904769897
1761414098553088500,2.718088623046875,0.15662948787212372,-0.01760026626288891,-0.7635433077812195
1761414098563101400,2.728101318359375,0.2038353532552719,-0.2783871293067932,-0.7847269177436829
1761414098573113300,2.73811328125,0.227298766374588,-0.5253997445106506,-0.8580591678619385
1761414098583126500,2.74812646484375,0.24890871345996857,-0.7646017074584961,-0.9538866281509399
1761414098593138400,2.758138427734375,0.2645474374294281,-1.0370137691497803,-1.0297406911849976
1761414098603151600,2.768151611328125,0.287380576133728,-1.2279549837112427,-0.9893684983253479
1761414098613163500,2.77816357421875,0.3367772400379181,-1.2701023817062378,-0.8127554059028625
1761414098623176400,2.788176513671875,0.4344998002052307,-1.1260777711868286,-0.5667259097099304
1761414098633188600,2.798188720703125,0.6055450439453125,-0.6635732054710388,-0.27724868059158325
1761414098643201500,2.808201416015625,0.8063050508499146,-0.026760488748550415,-0.0008623669855296612
1761414098653213400,2.81821337890625,0.9894362092018127,0.46004006266593933,0.14710304141044617
1761414098663226600,2.8282265625,1.175031304359436,0.514940619468689,0.18648986518383026
1761414098673238500,2.838238525390625,1.2321429252624512,0.01599459908902645,0.16806244850158691
1761414098683251700,2.848251708984375,1.1570072174072266,-1.001202940940857,0.17577096819877625
1761414098693263600,2.858263671875,1.0019522905349731,-2.15549898147583,0.21848434209823608
1761414098703276500,2.868276611328125,0.872012734413147,-2.9971983432769775,0.23267605900764465
1761414098713289500,2.87828955078125,0.7302525043487549,-3.4339733123779297,0.12087717652320862
1761414098723301600,2.888301513671875,0.5703576803207397,-3.261303186416626,-0.09858807176351547
1761414098733314600,2.898314453125,0.5771909356117249,-2.222350835800171,-0.22608651220798492
1761414098743326500,2.908326416015625,0.7079330086708069,-0.4330127239227295,-0.07130890339612961
1761414098753339600,2.918339599609375,0.8666117191314697,1.1881446838378906,0.2833974361419678
1761414098763351600,2.9283515625,0.9900974035263062,1.9464696645736694,0.4992319941520691
1761414098773364500,2.938364501953125,1.0122822523117065,1.954337239265442,0.6020857691764832
1761414098783376400,2.94837646484375,0.924677848815918,1.5591329336166382,0.7088526487350464
1761414098793389600,2.9583896484375,0.750299334526062,1.0643324851989746,0.8276237845420837
1761414098803401500,2.9684013671875,0.5232188105583191,0.6650304198265076,0.9198243021965027
1761414098813414700,2.97841455078125,0.29042762517929077,0.4407999813556671,0.9096152782440186
1761414098823426600,2.988426513671875,0.06296836584806442,0.39413660764694214,0.7559165358543396
1761414098833439500,2.998439453125,-0.144570454955101,0.5220192074775696,0.48191142082214355
1761414098843451400,3.008451416015625,-0.28853854537010193,0.7343495488166809,0.16209958493709564
1761414098853464600,3.018464599609375,-0.35025662183761597,0.9495288729667664,-0.11954158544540405
1761414098863476500,3.0284765625,-0.3671852648258209,1.109818935394287,-0.3361106514930725
1761414098873489700,3.03848974609375,-0.37838882207870483,1.170964241027832,-0.4800148904323578
1761414098883501600,3.04850146484375,-0.39200636744499207,1.0598539113998413,-0.5535127520561218
1761414098893514800,3.0585146484375,-0.42369911074638367,0.7915990352630615,-0.5517192482948303
1761414098903526700,3.068526611328125,-0.4854695200920105,0.5094531178474426,-0.4658379554748535
1761414098913539600,3.07853955078125,-0.5378822684288025,0.28427526354789734,-0.3456103503704071
1761414098923551500,3.088551513671875,-0.5692641735076904,0.1343320906162262,-0.27654018998146057
1761414098933564400,3.098564453125,-0.5676599740982056,0.05665602535009384,-0.2875533699989319
1761414098943577600,3.10857763671875,-0.5558379292488098,0.01945912092924118,-0.38068172335624695
1761414098953589500,3.118589599609375,-0.5486303567886353,-0.01703116111457348,-0.5493739247322083
1761414098963602400,3.1286025390625,-0.550361692905426,-0.04394373670220375,-0.7523952126502991
1761414098973614300,3.1386142578125,-0.6022585034370422,0.005367101635783911,-0.9394693374633789
1761414098983627500,3.14862744140625,-0.6804915070533752,0.09670234471559525,-1.0701059103012085
1761414098993639400,3.158639404296875,-0.7051764726638794,0.21347679197788239,-1.1314172744750977
1761414099003652600,3.168652587890625,-0.6713407635688782,0.2905218005180359,-1.0874907970428467
1761414099013664500,3.17866455078125,-0.6311793327331543,0.327368825674057,-0.9851410984992981
1761414099023677700,3.188677734375,-0.570671796798706,0.27776721119880676,-0.859031081199646
1761414099033689600,3.198689697265625,-0.46659061312675476,0.1721254289150238,-0.7694438099861145
1761414099043702500,3.20870263671875,-0.3857564926147461,0.07797364145517349,-0.7480594515800476
1761414099053714400,3.21871435546875,-0.3621419668197632,-0.024246739223599434,-0.7962157726287842
1761414099063727600,3.2287275390625,-0.4113570749759674,-0.13549618422985077,-0.9485498070716858
1761414099073739500,3.238739501953125,-0.4897404611110687,-0.23845702409744263,-1.1357812881469727
1761414099083752700,3.248752685546875,-0.5400803089141846,-0.2582038342952728,-1.3002320528030396
1761414099093764600,3.2587646484375,-0.5413193106651306,-0.1995483934879303,-1.443286418914795
1761414099103777500,3.268777587890625,-0.49263331294059753,-0.07282135635614395,-1.5232540369033813
1761414099113789400,3.27878955078125,-0.39629602432250977,0.1155911460518837,-1.5174914598464966
1761414099123802400,3.28880224609375,-0.2715841829776764,0.32226017117500305,-1.4726364612579346
1761414099133814500,3.298814453125,-0.15629667043685913,0.5077276825904846,-1.3818680047988892
1761414099143827500,3.308827392578125,-0.07893583178520203,0.5811976790428162,-1.2719100713729858
1761414099153839600,3.318839599609375,-0.0879463404417038,0.49226874113082886,-1.16078782081604
1761414099163851800,3.328851806640625,-0.15738986432552338,0.26209521293640137,-1.0479936599731445
1761414099173864700,3.33886474609375,-0.22447459399700165,-0.07909275591373444,-0.9449192881584167
1761414099183876900,3.348876953125,-0.2618480622768402,-0.3992561101913452,-0.834480881690979
1761414099193889500,3.3588896484375,-0.19514527916908264,-0.621731698513031,-0.6722732186317444
1761414099203901700,3.368901611328125,-0.04652651026844978,-0.7811536192893982,-0.44946038722991943
1761414099213914600,3.37891455078125,0.2089836746454239,-0.7283749580383301,-0.16309456527233124
1761414099223926800,3.3889267578125,0.46417707204818726,-0.6101415157318115,0.08063847571611404
1761414099233939700,3.398939697265625,0.6215646862983704,-0.5865463018417358,0.20188333094120026
1761414099243951600,3.40895166015625,0.6658040881156921,-0.7751545310020447,0.17563068866729736
1761414099253964500,3.418964599609375,0.6375212073326111,-1.3090686798095703,0.048545558005571365
1761414099263976400,3.4289765625,0.6070623993873596,-1.8727877140045166,-0.014779618009924889
1761414099273989600,3.43898974609375,0.6857751607894897,-2.056926727294922,0.2451080083847046
1761414099284001500,3.44900146484375,0.8827279210090637,-1.8170385360717773,0.8088768124580383
1761414099294014700,3.4590146484375,1.0838872194290161,-1.3486876487731934,1.3834507465362549
1761414099304026600,3.469026611328125,1.2214778661727905,-0.7747114896774292,1.743518352508545
1761414099314039800,3.479039794921875,1.2561511993408203,-0.12842151522636414,1.9299156665802002
1761414099324051700,3.4890517578125,1.2175239324569702,0.5585064888000488,2.014127492904663
1761414099334064600,3.499064697265625,1.178583025932312,1.2093486785888672,1.9720065593719482
1761414099344076500,3.50907666015625,1.1641753911972046,1.732771396636963,1.8350553512573242
1761414099354089700,3.51908984375,1.106137752532959,2.034045696258545,1.6204111576080322
1761414099364102700,3.5291025390625,0.9981812238693237,2.0788064002990723,1.353605031967163
1761414099374114800,3.53911474609375,0.8676823377609253,1.9202862977981567,1.122918963432312
1761414099384127700,3.549127685546875,0.7307279706001282,1.632378101348877,0.9661176204681396
1761414099394139600,3.5591396484375,0.5812072157859802,1.2842961549758911,0.846411943435669
1761414099404152600,3.569152587890625,0.41607680916786194,0.9090532660484314,0.7386447191238403
1761414099414164700,3.579164794921875,0.24202404916286469,0.5457012057304382,0.5749884843826294
1761414099424177700,3.589177734375,0.07631604373455048,0.29306361079216003,0.3737916946411133
1761414099434189600,3.599189453125,-0.04656832292675972,0.24494852125644684,0.19896367192268372
1761414099444202800,3.60920263671875,-0.1377570927143097,0.3890599012374878,0.06595634669065475
1761414099454214700,3.619214599609375,-0.20774051547050476,0.6589385867118835,-0.04765740782022476
1761414099464227600,3.6292275390625,-0.26028281450271606,0.9322295188903809,-0.13758890330791473
1761414099474239500,3.639239501953125,-0.2751309275627136,1.1102644205093384,-0.20108169317245483
1761414099484252700,3.649252685546875,-0.2323043793439865,1.167659044265747,-0.23766474425792694
1761414099494264600,3.6592646484375,-0.14737552404403687,1.115384817123413,-0.22250603139400482
1761414099504277800,3.66927783203125,-0.04917386174201965,0.9643172025680542,-0.15373867750167847
1761414099514289700,3.67928955078125,0.03825982287526131,0.7496445775032043,-0.02536037005484104
1761414099524302800,3.689302734375,0.08135057240724564,0.49726322293281555,0.13266521692276
1761414099534314800,3.699314697265625,0.07686322927474976,0.2568145990371704,0.3064973056316376
1761414099544327700,3.70932763671875,0.033411890268325806,0.1394088715314865,0.517583966255188
1761414099554339600,3.719339599609375,-0.01996421441435814,0.1190844178199768,0.7425804734230042
1761414099564352800,3.729352783203125,-0.054294757544994354,0.13334831595420837,0.8918344378471375
1761414099574364700,3.73936474609375,-0.05598517134785652,0.15241795778274536,0.9487109780311584
1761414099584377900,3.7493779296875,-0.04080861806869507,0.15071992576122284,0.9069440960884094
1761414099594390500,3.759390625,-0.02132420614361763,0.10378233343362808,0.7896530032157898
1761414099604402700,3.769402587890625,-0.016120389103889465,0.02152741141617298,0.6262182593345642
1761414099614415600,3.77941552734375,-0.0380655862390995,-0.10361140966415405,0.4655390977859497
1761414099624427500,3.789427490234375,-0.11772898584604263,-0.27227020263671875,0.31612563133239746
1761414099634440700,3.799440673828125,-0.2231767326593399,-0.4190685451030731,0.19679786264896393
1761414099644452600,3.80945263671875,-0.31577935814857483,-0.5202094912528992,0.11152958124876022
1761414099654465800,3.8194658203125,-0.38697540760040283,-0.585987389087677,0.03732552006840706
1761414099664477700,3.829477783203125,-0.445614755153656,-0.647339403629303,-0.0303571205586195
1761414099674490600,3.83949072265625,-0.49790722131729126,-0.713987410068512,-0.1110253855586052
1761414099684502500,3.84950244140625,-0.5309397578239441,-0.8112425804138184,-0.1857571303844452
1761414099694515700,3.859515625,-0.5261385440826416,-0.8912387490272522,-0.19043594598770142
1761414099704527600,3.869527587890625,-0.49129369854927063,-0.9463533759117126,-0.13111776113510132
1761414099714540800,3.879540771484375,-0.44742539525032043,-1.060970425605774,-0.04465128853917122
1761414099724552700,3.889552734375,-0.4072055220603943,-1.2259562015533447,0.0027492495719343424
1761414099734565600,3.899565673828125,-0.3956013023853302,-1.3249192237854004,-0.020322605967521667
1761414099744577500,3.90957763671875,-0.3894667327404022,-1.3241384029388428,-0.0982256606221199
1761414099754590700,3.9195908203125,-0.3736462891101837,-1.2824673652648926,-0.2323872596025467
1761414099764602600,3.9296025390625,-0.33067992329597473,-1.2765614986419678,-0.30593523383140564
1761414099774615800,3.93961572265625,-0.18193644285202026,-1.1684691905975342,-0.21688084304332733
1761414099784627700,3.949627685546875,0.0196525938808918,-0.9994633793830872,-0.08154432475566864
1761414099794641000,3.959640869140625,0.1489247977733612,-1.1857751607894897,-0.13796165585517883
1761414099804652800,3.96965283203125,0.12335871905088425,-1.8281605243682861,-0.5666011571884155
1761414099814665500,3.97966552734375,-0.03274868428707123,-2.5439295768737793,-1.1606221199035645
1761414099824678700,3.9896787109375,-0.10575365275144577,-2.803515911102295,-1.427464485168457
1761414099834690600,3.999690673828125,0.10095080733299255,-2.4400224685668945,-1.2014333009719849
1761414099844703700,4.009703857421875,0.49446961283683777,-1.9494847059249878,-0.8414210677146912
1761414099854715600,4.019715576171875,0.5209762454032898,-0.9584305882453918,-0.38418087363243103
1761414099864728600,4.029728515625,0.5609798431396484,-0.026083961129188538,-0.11433181911706924
1761414099874740500,4.039740478515625,0.7322707176208496,0.7363643050193787,-0.08607175946235657
1761414099884753700,4.049753662109375,0.8938790559768677,1.180967926979065,-0.10313915461301804
1761414099894765600,4.059765625,0.8136143684387207,1.7182999849319458,0.10410015285015106
1761414099904778800,4.06977880859375,0.7047286629676819,1.87431001663208,0.4762484133243561
1761414099914790700,4.079790771484375,0.6396464705467224,1.896147608757019,0.8669638633728027
1761414099924803800,4.089803955078125,0.5104048252105713,1.6673763990402222,1.200085163116455
1761414099934815700,4.099815673828125,0.3167881965637207,1.1979933977127075,1.3326735496520996
1761414099944828700,4.10982861328125,0.1155909076333046,0.7152248024940491,1.2430731058120728
1761414099954840600,4.119840576171875,-0.06063342094421387,0.38772547245025635,1.0053967237472534
1761414099964853800,4.129853759765625,-0.17949987947940826,0.18575482070446014,0.705158531665802
1761414099974865700,4.13986572265625,-0.33562567830085754,0.2954590916633606,0.46791332960128784
1761414099984878800,4.14987890625,-0.48382100462913513,0.41158434748649597,0.2592008411884308
1761414099994890800,4.159890869140625,-0.6519842147827148,0.512410581111908,0.1082916408777237
1761414100004903700,4.169903564453125,-0.8048225045204163,0.5459640026092529,-0.013455566018819809
1761414100014915600,4.17991552734375,-0.9100178480148315,0.5073496699333191,-0.09216763079166412
1761414100024928500,4.189928466796875,-0.9636155366897583,0.3965313136577606,-0.10618890821933746
1761414100034940700,4.199940673828125,-1.0246120691299438,0.29275670647621155,-0.06365493685007095
1761414100044953600,4.20995361328125,-1.0751769542694092,0.16225622594356537,-0.05311760678887367
1761414100054965800,4.2199658203125,-1.122983455657959,0.14597782492637634,-0.07951018959283829
1761414100064978700,4.229978759765625,-1.1204771995544434,0.1458262950181961,-0.1462828367948532
1761414100074991600,4.23999169921875,-1.0822213888168335,0.17464807629585266,-0.19565068185329437
1761414100085003500,4.25000341796875,-1.0215414762496948,0.1776885986328125,-0.23179884254932404
1761414100095016700,4.2600166015625,-0.9492478966712952,0.15298376977443695,-0.242742657661438
1761414100105028600,4.270028564453125,-0.9014691710472107,0.12209803611040115,-0.23196378350257874
1761414100115041800,4.280041748046875,-0.853111982345581,0.07572300732135773,-0.21950341761112213
1761414100125053700,4.2900537109375,-0.7985702157020569,0.049589674919843674,-0.20344321429729462
1761414100135066600,4.300066650390625,-0.7601660490036011,0.02334262616932392,-0.21315623819828033
1761414100145078800,4.310078857421875,-0.7579393982887268,-0.006748164538294077,-0.23595476150512695
1761414100155092000,4.320092041015625,-0.7788590788841248,-0.02792774885892868,-0.2661914825439453
1761414100165104000,4.330104248046875,-0.7902717590332031,-0.0705559030175209,-0.3031572103500366
1761414100175117000,4.340116943359375,-0.7952803373336792,-0.15634138882160187,-0.3551573157310486
1761414100185129200,4.350129150390625,-0.7985230088233948,-0.2508106231689453,-0.43140867352485657
1761414100195142100,4.36014208984375,-0.7725514769554138,-0.30459439754486084,-0.5515909790992737
1761414100205154300,4.370154296875,-0.7180464267730713,-0.295918345451355,-0.6992899179458618
1761414100215167000,4.3801669921875,-0.6304201483726501,-0.2036275863647461,-0.8448328375816345
1761414100225179100,4.39017919921875,-0.4841502904891968,-0.07662036269903183,-0.9586518406867981
1761414100235192000,4.400192138671875,-0.2961075007915497,0.02956501767039299,-1.0307908058166504
1761414100245204000,4.410203857421875,-0.07578258961439133,0.09121133387088776,-1.0229430198669434
1761414100255217200,4.420217041015625,0.09671347588300705,0.09178400039672852,-0.9643902778625488
1761414100265229000,4.43022900390625,0.1677415817975998,-0.012850798666477203,-0.8939885497093201
1761414100275242000,4.440241943359375,0.1669520139694214,-0.23288710415363312,-0.8186704516410828
1761414100285254000,4.45025390625,0.1321468949317932,-0.5511723756790161,-0.6708464026451111
1761414100295267000,4.46026708984375,0.03654984384775162,-0.8308064341545105,-0.3949228525161743
1761414100305280000,4.470280029296875,-0.08684772253036499,-1.023374319076538,-0.08007195591926575
1761414100315292200,4.480292236328125,-0.13547681272029877,-1.109755039215088,0.09624702483415604
1761414100325304000,4.490303955078125,-0.09259192645549774,-0.9451298713684082,0.10050754994153976
1761414100335317200,4.500317138671875,0.04674193263053894,-0.5191419124603271,0.007115619257092476
1761414100345330000,4.510329833984375,0.22717003524303436,-0.01868498884141445,-0.16519516706466675
1761414100355342000,4.520342041015625,0.34787794947624207,0.2747129797935486,-0.354373961687088
1761414100365355000,4.53035498046875,0.3196124732494354,0.13087403774261475,-0.4751778841018677
1761414100375367200,4.5403671875,0.19586986303329468,-0.5515764951705933,-0.4791262149810791
1761414100385380000,4.550380126953125,-0.0013699785340577364,-1.1636759042739868,-0.39295563101768494
1761414100395392300,4.560392333984375,-0.11846780776977539,-1.652595043182373,-0.22566191852092743
1761414100405405000,4.570405029296875,-0.15538428723812103,-1.7962288856506348,0.09681199491024017
1761414100415417000,4.5804169921875,-0.12446992099285126,-1.461363673210144,0.3666820526123047
1761414100425430000,4.590429931640625,-0.042199019342660904,-0.8621273636817932,0.3744156062602997
1761414100435442000,4.60044189453125,0.04479042813181877,-0.15931488573551178,0.1716746687889099
1761414100445455000,4.610455078125,0.08633814007043839,0.5897625088691711,-0.009275143034756184
1761414100455467000,4.620467041015625,0.0375073216855526,1.1865589618682861,-0.018306441605091095
1761414100465480200,4.630480224609375,-0.03992115706205368,1.4097270965576172,0.12800389528274536
1761414100475492000,4.6404921875,-0.06678631901741028,1.2681300640106201,0.36052632331848145
1761414100485505000,4.650505126953125,-0.06323046237230301,0.9869582653045654,0.5822363495826721
1761414100495517000,4.660516845703125,-0.03159985691308975,0.7229692339897156,0.7650302052497864
1761414100505530000,4.670530029296875,-0.0007668414618819952,0.5190975666046143,0.8523845076560974
1761414100515542000,4.6805419921875,0.0008404491818509996,0.3899259567260742,0.8457353711128235
1761414100525555200,4.69055517578125,-0.03167647868394852,0.2761450707912445,0.7593935132026672
1761414100535567000,4.700567138671875,-0.11405875533819199,0.22380337119102478,0.6112597584724426
1761414100545580000,4.710580078125,-0.19103050231933594,0.15201520919799805,0.424556165933609
1761414100555593000,4.720593017578125,-0.2744084596633911,0.08822289854288101,0.2524874210357666
1761414100565605000,4.730605224609375,-0.34962198138237,-0.002852944890037179,0.12181808799505234
1761414100575618000,4.7406181640625,-0.41492387652397156,-0.07229644805192947,0.07857000082731247
1761414100585630200,4.750630126953125,-0.46048176288604736,-0.06970998644828796,0.11638528853654861
1761414100595643100,4.76064306640625,-0.4582517445087433,0.0005036159418523312,0.19705700874328613
1761414100605655300,4.7706552734375,-0.38429921865463257,0.05260436609387398,0.26114755868911743
1761414100615668000,4.78066796875,-0.3174149990081787,0.049038127064704895,0.2655572295188904
1761414100625680000,4.790679931640625,-0.28504347801208496,-0.00860359612852335,0.20013269782066345
1761414100635693000,4.800693115234375,-0.26227322220802307,-0.10784647613763809,0.08459268510341644
1761414100645705000,4.810705078125,-0.25378119945526123,-0.16027478873729706,-0.03548552095890045
1761414100655718100,4.82071826171875,-0.23674066364765167,-0.15550461411476135,-0.13774190843105316
1761414100665730000,4.83072998046875,-0.2114906907081604,-0.11389006674289703,-0.20881396532058716
1761414100675743000,4.840742919921875,-0.17345602810382843,-0.04570826515555382,-0.2229078710079193
1761414100685755100,4.850755126953125,-0.11644094437360764,0.004949850495904684,-0.20528361201286316
1761414100695768000,4.86076806640625,-0.06518840789794922,-0.003156012622639537,-0.19000186026096344
1761414100705780000,4.870780029296875,-0.0273403599858284,-0.054355282336473465,-0.19584216177463531
1761414100715793200,4.880793212890625,0.02595178224146366,-0.1459207832813263,-0.2223915010690689
1761414100725805000,4.89080517578125,0.10467428714036942,-0.28623583912849426,-0.2365475445985794
1761414100735818200,4.900818359375,0.1809985190629959,-0.4484102427959442,-0.24249544739723206
1761414100745830100,4.910830078125,0.24252845346927643,-0.5819725394248962,-0.2519419491291046
1761414100755843000,4.920843017578125,0.2879265248775482,-0.6550356149673462,-0.26839911937713623
1761414100765855000,4.93085498046875,0.343008428812027,-0.6426814794540405,-0.27796119451522827
1761414100775868200,4.9408681640625,0.42550787329673767,-0.554928719997406,-0.2974163293838501
1761414100785880000,4.950880126953125,0.5309658646583557,-0.4053887724876404,-0.3297577500343323
1761414100795893200,4.960893310546875,0.6240513920783997,-0.23035791516304016,-0.35928887128829956
1761414100805905200,4.9709052734375,0.677740752696991,-0.058867111802101135,-0.3782833218574524
1761414100815918000,4.98091796875,0.7283058762550354,0.09930866956710815,-0.3685404062271118
1761414100825930200,4.99093017578125,0.7717788219451904,0.2206079363822937,-0.3323286175727844
1761414100835943000,5.00094287109375,0.7810928821563721,0.25287166237831116,-0.2767576575279236
1761414100845956000,5.0109560546875,0.7647732496261597,0.19054439663887024,-0.24457786977291107
1761414100855968000,5.020968017578125,0.7534045577049255,0.0619635209441185,-0.24615547060966492
1761414100865981200,5.030981201171875,0.7857968211174011,-0.05467281490564346,-0.2529310882091522
1761414100875993000,5.0409931640625,0.8757423162460327,-0.08617358654737473,-0.23848813772201538
1761414100886006000,5.051006103515625,0.974491536617279,-0.07144364714622498,-0.19690340757369995
1761414100896018000,5.061017822265625,1.058797836303711,0.004182141739875078,-0.09232369810342789
1761414100906031000,5.071031005859375,1.1012479066848755,0.11520107090473175,0.040795739740133286
1761414100916043000,5.08104296875,1.0985316038131714,0.12093328684568405,0.06359560042619705
1761414100926056200,5.09105615234375,1.036457896232605,-0.24376505613327026,-0.17440710961818695
1761414100936068000,5.101068115234375,0.9718465209007263,-0.7752588391304016,-0.5524889826774597
1761414100946081300,5.111081298828125,1.0134611129760742,-1.193793535232544,-0.7759222984313965
1761414100956093200,5.12109326171875,1.2251425981521606,-1.466506838798523,-0.6935477256774902
1761414100966106000,5.131106201171875,1.4983335733413696,-1.2984358072280884,-0.38273873925209045
1761414100976118000,5.141117919921875,1.6612021923065186,-0.7323978543281555,0.08766471594572067
1761414100986131200,5.151131103515625,1.7427375316619873,-0.024276375770568848,0.4638197124004364
1761414100996143000,5.16114306640625,1.8564597368240356,0.5816375613212585,0.6233983039855957
1761414101006156000,5.171156005859375,1.9906105995178223,0.956308126449585,0.6679620742797852
1761414101016168200,5.181168212890625,2.1528518199920654,1.1361310482025146,0.7622905969619751
1761414101026180900,5.191180908203125,2.3025169372558594,1.151811122894287,0.9807409048080444
1761414101036193000,5.201193115234375,2.3550548553466797,0.9419063925743103,1.2537025213241577
1761414101046206000,5.2112060546875,2.305964469909668,0.5363370180130005,1.4803016185760498
1761414101056218000,5.221218017578125,2.176542043685913,0.04810931533575058,1.5968831777572632
1761414101066231000,5.23123095703125,1.9941074848175049,-0.3635876774787903,1.604225754737854
1761414101076243200,5.2412431640625,1.7567942142486572,-0.635597288608551,1.518636703491211
1761414101086256000,5.251256103515625,1.4648630619049072,-0.6740347146987915,1.3813420534133911
1761414101096268300,5.261268310546875,1.1179618835449219,-0.5297491550445557,1.1480501890182495
1761414101106281000,5.271281005859375,0.7708052396774292,-0.31412020325660706,0.8529834151268005
1761414101116294100,5.281294189453125,0.48328614234924316,-0.10753700137138367,0.5621676445007324
1761414101126306000,5.29130615234375,0.2770642638206482,0.10325592011213303,0.30399090051651
1761414101136319200,5.3013193359375,0.16308364272117615,0.30687135457992554,0.09019917249679565
1761414101146331100,5.3113310546875,0.10008843243122101,0.4514005780220032,-0.09266678243875504
1761414101156344000,5.321343994140625,0.044245295226573944,0.5191453695297241,-0.1969004124403
1761414101166356000,5.33135595703125,-0.013583916239440441,0.5966376066207886,-0.12502461671829224
1761414101176369000,5.341368896484375,-0.04513292759656906,0.6455567479133606,0.07465878129005432
1761414101186380800,5.351380859375,-0.05822635814547539,0.6308853626251221,0.29506412148475647
1761414101196394000,5.36139404296875,-0.07594966888427734,0.6180063486099243,0.46050333976745605
1761414101206406000,5.371406005859375,-0.04525914043188095,0.5769843459129333,0.557940661907196
1761414101216419000,5.381419189453125,0.014484125189483166,0.5219191312789917,0.626524806022644
1761414101226431000,5.391430908203125,-0.04810042306780815,0.6153343319892883,0.6593988537788391
1761414101236444000,5.40144384765625,-0.12464924901723862,0.6621415019035339,0.6272541880607605
1761414101246455800,5.411455810546875,-0.15522633492946625,0.5888813734054565,0.5579925775527954
1761414101256469000,5.421468994140625,-0.13610823452472687,0.47460639476776123,0.535102367401123
1761414101266481000,5.43148095703125,-0.07146533578634262,0.398703932762146,0.6260234713554382
1761414101276494000,5.441494140625,-0.02204279974102974,0.309002161026001,0.7972120046615601
1761414101286506000,5.451506103515625,0.03819683566689491,0.18849490582942963,1.0258134603500366
1761414101296519000,5.461518798828125,0.14554105699062347,0.08588259667158127,1.2673835754394531
1761414101306531000,5.471531005859375,0.3511325716972351,-0.025100376456975937,1.441027283668518
1761414101316543700,5.481543701171875,0.5658622980117798,-0.1478775143623352,1.4533823728561401
1761414101326556000,5.491555908203125,0.7638030648231506,-0.20631419122219086,1.3114004135131836
1761414101336568800,5.50156884765625,0.9600383639335632,-0.29838553071022034,1.0856239795684814
1761414101346581000,5.5115810546875,1.0903278589248657,-0.42812302708625793,0.8015832901000977
1761414101356594000,5.521593994140625,1.139155387878418,-0.47136157751083374,0.5445622801780701
1761414101366606000,5.531606201171875,1.1192671060562134,-0.4590580463409424,0.35880807042121887
1761414101376618800,5.54161865234375,1.045592188835144,-0.4650952219963074,0.252808541059494
1761414101386631000,5.551630859375,0.9586354494094849,-0.3759320378303528,0.22568294405937195
1761414101396643800,5.561643798828125,0.8764973878860474,-0.18858028948307037,0.1582391858100891
1761414101406657000,5.571656982421875,0.8046835064888,0.08347537368535995,-0.010628477670252323
1761414101416669000,5.5816689453125,0.7691120505332947,0.4191049635410309,-0.2708597779273987
1761414101426682000,5.59168212890625,0.746520459651947,0.631943941116333,-0.6479799151420593
1761414101436694000,5.601694091796875,0.728561520576477,0.6988019943237305,-1.0233291387557983
1761414101446707000,5.61170703125,0.7539228200912476,0.671562671661377,-1.2248119115829468
1761414101456718800,5.62171875,0.7697938680648804,0.4856889545917511,-1.3140697479248047
1761414101466732000,5.63173193359375,0.6960205435752869,0.12340130656957626,-1.3935760259628296
1761414101476744000,5.641743896484375,0.5111374258995056,-0.49169185757637024,-1.4296666383743286
1761414101486756900,5.6517568359375,0.29224103689193726,-1.1170071363449097,-1.2757912874221802
1761414101496769000,5.66176904296875,0.10154662281274796,-1.3801243305206299,-0.8848612904548645
1761414101506781700,5.67178173828125,0.038780707865953445,-1.2139428853988647,-0.35822972655296326
1761414101516793900,5.6817939453125,0.24267292022705078,-0.7004988193511963,0.1482626348733902
1761414101526806800,5.691806884765625,0.61229008436203,-0.05605083331465721,0.5918582081794739
1761414101536819000,5.70181884765625,0.9789291024208069,0.5476382374763489,0.8776585459709167
1761414101546832000,5.711831787109375,1.2152289152145386,1.05727219581604,0.9254156947135925
1761414101556844000,5.721843994140625,1.216077208518982,1.3872787952423096,0.8651495575904846
1761414101566857000,5.73185693359375,1.176699161529541,1.3721762895584106,0.7401040196418762
1761414101576869000,5.741869140625,1.0499953031539917,1.1954002380371094,0.6675317287445068
1761414101586881800,5.7518818359375,0.9070680141448975,0.9484255909919739,0.5984333753585815
1761414101596894000,5.76189404296875,0.8272429704666138,0.6237569451332092,0.4907386898994446
1761414101606907000,5.771906982421875,0.8125483989715576,0.3111606240272522,0.39506542682647705
1761414101616918800,5.781918701171875,0.8235438466072083,-0.05443809926509857,0.35498565435409546
1761414101626932000,5.791931884765625,0.816770076751709,-0.4878726303577423,0.38306960463523865
1761414101636944000,5.80194384765625,0.7981829047203064,-0.9399142265319824,0.4310750961303711
1761414101646956800,5.811956787109375,0.7356503009796143,-1.2877559661865234,0.36582469940185547
1761414101656969000,5.821968994140625,0.6276229023933411,-1.3867944478988647,0.12261735647916794
1761414101666982000,5.83198193359375,0.38664892315864563,-1.2068274021148682,-0.29095956683158875
1761414101676993800,5.841993896484375,0.11779463291168213,-0.8020908832550049,-0.7947538495063782
1761414101687007000,5.852007080078125,-0.12542761862277985,-0.21378587186336517,-1.2855334281921387
1761414101697020000,5.86202001953125,-0.33037248253822327,0.396809846162796,-1.6536213159561157
1761414101707032000,5.872031982421875,-0.42739757895469666,0.9015848636627197,-1.8244832754135132
1761414101717044700,5.882044677734375,-0.4263167679309845,1.2534325122833252,-1.8222956657409668
1761414101727057000,5.892056884765625,-0.42857804894447327,1.3380699157714844,-1.6529266834259033
1761414101737069800,5.90206982421875,-0.43596476316452026,1.1645928621292114,-1.375918984413147
1761414101747082000,5.91208203125,-0.3935411274433136,0.8330378532409668,-1.0517936944961548
1761414101757095000,5.922094970703125,-0.32594409584999084,0.4641219675540924,-0.7432296872138977
1761414101767107000,5.932107177734375,-0.3294357657432556,0.09521849453449249,-0.49229997396469116
1761414101777120000,5.9421201171875,-0.24797627329826355,-0.2230311930179596,-0.30645662546157837
1761414101787132000,5.9521318359375,-0.17099998891353607,-0.3580867350101471,-0.13311973214149475
1761414101797144800,5.962144775390625,-0.08730915933847427,-0.36927247047424316,0.011300627142190933
1761414101807156700,5.97215673828125,0.013734905049204826,-0.3616824746131897,0.09263836592435837
1761414101817170000,5.982169921875,0.15316656231880188,-0.33473634719848633,0.1182023137807846
1761414101827181800,5.992181884765625,0.3437000513076782,-0.2438165545463562,0.058250825852155685
1761414101837195000,6.002195068359375,0.4722776412963867,-0.09332949668169022,-0.012808852829039097
1761414101847207000,6.01220703125,0.5547370910644531,0.012080015614628792,-0.05015275999903679
1761414101857219800,6.0222197265625,0.6165128350257874,0.011657904833555222,-0.07246872037649155
1761414101867231700,6.032231689453125,0.6552075147628784,-0.08133595436811447,-0.07618942111730576
1761414101877245000,6.042244873046875,0.6720858216285706,-0.27042198181152344,-0.08051350712776184
1761414101887256800,6.0522568359375,0.6847283840179443,-0.47147494554519653,-0.09666477888822556
1761414101897270000,6.06227001953125,0.6789306998252869,-0.6322699785232544,-0.08351790904998779
1761414101907282000,6.072281982421875,0.678101658821106,-0.704026997089386,-0.010471662506461143
1761414101917295000,6.082295166015625,0.7422111630439758,-0.6189578771591187,0.1287149339914322
1761414101927307000,6.09230712890625,0.8575646281242371,-0.4077207148075104,0.3129849135875702
1761414101937320000,6.10231982421875,0.9947227835655212,-0.06315464526414871,0.525585949420929
1761414101947331800,6.112331787109375,1.212429404258728,0.2889445424079895,0.7376918196678162
1761414101957345000,6.122344970703125,1.4699681997299194,0.6254964470863342,0.9992460608482361
1761414101967357000,6.13235693359375,1.6614773273468018,0.8183436989784241,1.2138243913650513
1761414101977370000,6.1423701171875,1.7878109216690063,0.6510608196258545,1.3016083240509033
1761414101987382000,6.152382080078125,1.7575017213821411,0.16073696315288544,1.172134280204773
1761414101997394700,6.162394775390625,1.6028066873550415,0.02900422178208828,1.0544170141220093
1761414102007407900,6.172407958984375,1.583552598953247,0.27735891938209534,0.9207083582878113
1761414102017419800,6.182419677734375,1.6671594381332397,0.40283313393592834,0.37785446643829346
1761414102027433000,6.192432861328125,1.8041982650756836,0.45872384309768677,-0.4185335040092468
1761414102037444900,6.20244482421875,1.9798413515090942,0.5359129905700684,-1.0070147514343262
1761414102047458000,6.2124580078125,2.0780766010284424,0.5206943154335022,-1.0929291248321533
1761414102057470000,6.222469970703125,2.0766563415527344,0.23636604845523834,-0.8804714679718018
1761414102067483000,6.23248291015625,1.8884446620941162,-0.24767625331878662,-0.5960237383842468
1761414102077494800,6.242494873046875,1.6532766819000244,-0.5479627847671509,-0.32740604877471924
1761414102087508000,6.252508056640625,1.3741295337677002,-0.40435609221458435,-0.10604194551706314
1761414102097519900,6.262519775390625,1.1001068353652954,0.2148585319519043,0.08399282395839691
1761414102107533000,6.272532958984375,0.8969414234161377,0.9305111765861511,0.0363834947347641
1761414102117545000,6.282544921875,0.7254531979560852,1.6302249431610107,-0.17152899503707886
1761414102127558000,6.292557861328125,0.6422272324562073,2.2048206329345703,-0.3696324825286865
1761414102137569800,6.30256982421875,0.4377831220626831,2.277710437774658,-0.6433739066123962
1761414102147582700,6.312582763671875,0.35343867540359497,2.157423496246338,-0.6560239195823669
1761414102157594600,6.3225947265625,0.040288977324962616,1.5160146951675415,-0.7301183938980103
1761414102167607800,6.33260791015625,-0.041425060480833054,0.907393217086792,-0.5159469842910767
1761414102177619700,6.34261962890625,-0.10138015449047089,0.38390931487083435,-0.25972700119018555
1761414102187633000,6.3526328125,-0.15135064721107483,-0.19287195801734924,0.11330623924732208
1761414102197644800,6.362644775390625,-0.11939190328121185,-0.6593233346939087,0.5198180079460144
1761414102207657700,6.37265771484375,0.02756931073963642,-1.0203485488891602,0.9142667651176453
1761414102217669600,6.382669677734375,-0.06578022241592407,-1.3898167610168457,1.0532363653182983
1761414102227682800,6.392682861328125,-0.13837400078773499,-1.5510655641555786,1.0621808767318726
1761414102237694700,6.40269482421875,-0.09457787871360779,-1.4663196802139282,0.943812370300293
1761414102247708000,6.4127080078125,-0.11325222998857498,-1.183156967163086,0.7035108208656311
1761414102257719800,6.4227197265625,-0.22690986096858978,-0.8538011312484741,0.35775524377822876
1761414102267732700,6.432732666015625,-0.3352065086364746,-0.49925100803375244,0.056057438254356384
1761414102277745000,6.442744873046875,-0.37018343806266785,-0.023882340639829636,-0.05210511013865471
1761414102287757800,6.4527578125,-0.5322250723838806,0.35875290632247925,-0.06387574970722198
1761414102297769700,6.462769775390625,-0.571744978427887,0.6071677207946777,0.0370367206633091
1761414102307783000,6.472782958984375,-0.4909215271472931,0.7225552797317505,0.20692215859889984
1761414102317794800,6.482794921875,-0.48501747846603394,0.6438490152359009,0.32689252495765686
1761414102327808000,6.49280810546875,-0.440739244222641,0.4538029134273529,0.38795825839042664
1761414102337820000,6.50281982421875,-0.3915369510650635,0.261932373046875,0.38735437393188477
1761414102347832600,6.51283251953125,-0.3647271692752838,0.1239960789680481,0.3418899476528168
1761414102357845800,6.522845703125,-0.36416366696357727,-0.013748731464147568,0.258460134267807
1761414102367857700,6.532857666015625,-0.3711552619934082,-0.10812769830226898,0.1475011259317398
1761414102377870800,6.542870849609375,-0.35577526688575745,-0.1170571967959404,0.03334714472293854
1761414102387882800,6.5528828125,-0.2924889922142029,-0.039057210087776184,-0.06583350151777267
1761414102397896000,6.56289599609375,-0.23552154004573822,0.08046485483646393,-0.16586558520793915
1761414102407907800,6.572907958984375,-0.19851957261562347,0.2048398107290268,-0.24189376831054688
1761414102417920800,6.582920654296875,-0.17538131773471832,0.293262243270874,-0.28851377964019775
1761414102427932700,6.5929326171875,-0.19896121323108673,0.23890790343284607,-0.3109314739704132
1761414102437945900,6.60294580078125,-0.2572462856769562,-0.02708258479833603,-0.33277565240859985
1761414102447957800,6.612957763671875,-0.28319159150123596,-0.4165347218513489,-0.3225030303001404
1761414102457971000,6.622970947265625,-0.24165265262126923,-0.6522061824798584,-0.26601698994636536
1761414102467982800,6.63298291015625,-0.11727744340896606,-0.6413497924804688,-0.1954653263092041
1761414102477995800,6.642995849609375,-0.003961183596402407,-0.4235246181488037,-0.16975906491279602
1761414102488007700,6.653007568359375,0.057926684617996216,-0.053911954164505005,-0.26671919226646423
1761414102498020900,6.663020751953125,0.06992609798908234,0.11800627410411835,-0.5584799647331238
1761414102508032800,6.67303271484375,0.04799603670835495,-0.15128351747989655,-1.0025423765182495
1761414102518046000,6.6830458984375,-0.06465286761522293,-0.5620594620704651,-1.3597984313964844
1761414102528057900,6.693057861328125,-0.18592390418052673,-0.6333450675010681,-1.3181265592575073
1761414102538070800,6.70307080078125,-0.17938445508480072,-0.2708660066127777,-0.9032081961631775
1761414102548083000,6.7130830078125,-0.13314346969127655,0.020762894302606583,-0.4591870605945587
1761414102558095600,6.723095703125,-0.03648215904831886,0.08430218696594238,-0.2030877023935318
1761414102568107800,6.733107666015625,0.10157638043165207,0.20681984722614288,-0.037816453725099564
1761414102578120700,6.74312060546875,0.18437807261943817,0.41260889172554016,0.15505214035511017
1761414102588132900,6.7531328125,0.2438936084508896,0.3872081935405731,0.28937771916389465
1761414102598145800,6.763145751953125,0.291447252035141,0.05336557328701019,0.2924674451351166
1761414102608158000,6.773157958984375,0.2485479861497879,-0.3652268648147583,0.23024748265743256
1761414102618170600,6.783170654296875,0.16944581270217896,-0.5752116441726685,0.15520280599594116
1761414102628182800,6.793182861328125,0.11358200758695602,-0.529374897480011,0.06187393516302109
1761414102638195700,6.80319580078125,0.09970095753669739,-0.41630151867866516,-0.06157682090997696
1761414102648208000,6.813207763671875,0.06931509077548981,-0.45609793066978455,-0.2350175827741623
1761414102658220800,6.823220703125,0.012822721153497696,-0.5358725786209106,-0.429344117641449
1761414102668232700,6.833232666015625,-0.03868068382143974,-0.5851543545722961,-0.565622866153717
1761414102678246000,6.843245849609375,-0.018908385187387466,-0.679261326789856,-0.668325662612915
1761414102688258800,6.8532587890625,0.020631568506360054,-0.7101004719734192,-0.7206234931945801
1761414102698270700,6.863270751953125,0.07112167030572891,-0.6671115159988403,-0.6533187031745911
1761414102708284000,6.873283935546875,0.10040232539176941,-0.5866938829421997,-0.4181075096130371
1761414102718295800,6.8832958984375,0.08626801520586014,-0.5038641095161438,-0.09131146222352982
1761414102728308700,6.893308837890625,0.07377272844314575,-0.4580649733543396,0.18935295939445496
1761414102738321000,6.90332080078125,0.22331300377845764,-0.4550439417362213,0.3566383719444275
1761414102748333600,6.91333349609375,0.23280078172683716,-0.28164365887641907,0.4652479588985443
1761414102758345700,6.923345703125,0.2839237153530121,-0.06652131676673889,0.5274487733840942
1761414102768358700,6.933358642578125,0.38205453753471375,0.24031639099121094,0.5658081769943237
1761414102778370800,6.943370849609375,0.4946258068084717,0.44319307804107666,0.5450069904327393
1761414102788383700,6.9533837890625,0.40002262592315674,0.4263658821582794,0.5017223954200745
1761414102798396000,6.96339599609375,0.37135049700737,0.30076509714126587,0.44711801409721375
1761414102808408800,6.973408935546875,0.3600320518016815,0.22881633043289185,0.4436843991279602
1761414102818421000,6.9834208984375,0.3459089398384094,0.15921255946159363,0.4640311002731323
1761414102828433700,6.99343359375,0.33816662430763245,0.1285100281238556,0.5177425742149353
1761414102838445800,7.00344580078125,0.3456262946128845,0.12484510242938995,0.5865294933319092
1761414102848458800,7.013458740234375,0.341477632522583,0.1123649924993515,0.6460450291633606
1761414102858470700,7.023470703125,0.3295647203922272,0.12272289395332336,0.6730620861053467
1761414102868483800,7.03348388671875,0.2969375252723694,0.12231810390949249,0.6758860945701599
1761414102878495700,7.043495849609375,0.2766927182674408,0.10853757709264755,0.6538735032081604
1761414102888508700,7.0535087890625,0.2614794075489044,0.10548479855060577,0.6037488579750061
1761414102898520800,7.063520751953125,0.25196099281311035,0.07628296315670013,0.5618431568145752
1761414102908533800,7.07353369140625,0.23646247386932373,0.010290363803505898,0.5303763151168823
1761414102918545700,7.083545654296875,0.20900745689868927,-0.026171850040555,0.49813950061798096
1761414102928558800,7.093558837890625,0.21188926696777344,-0.002888631308451295,0.48357337713241577
1761414102938570800,7.10357080078125,0.26659101247787476,0.07875233143568039,0.49987339973449707
1761414102948584000,7.113583984375,0.3923127353191376,0.20539548993110657,0.5088426470756531
1761414102958595800,7.123595947265625,0.5242301225662231,0.24507009983062744,0.5407846570014954
1761414102968608800,7.13360888671875,0.4697439670562744,0.09135937690734863,0.5811662077903748
1761414102978620700,7.14362060546875,0.3121945858001709,-0.0688580572605133,0.6366131901741028
1761414102988633900,7.1536337890625,0.18233485519886017,-0.07492154836654663,0.7015697956085205
1761414102998645800,7.163645751953125,0.09306378662586212,0.05132194608449936,0.7716770172119141
1761414103008659000,7.173658935546875,0.02300906740128994,0.3607620894908905,0.9196057319641113
1761414103018670800,7.1836708984375,0.06603296846151352,0.7415035963058472,1.0595945119857788
1761414103028683800,7.193683837890625,0.04805636405944824,0.6438358426094055,0.8174753785133362
1761414103038696000,7.203696044921875,-0.21477416157722473,-0.4140966832637787,-0.17143461108207703
1761414103048708600,7.21370849609375,-0.39401766657829285,-1.2338224649429321,-1.4196866750717163
1761414103058720800,7.223720703125,-0.35578182339668274,-0.3688667118549347,-2.0706422328948975
1761414103068733700,7.233733642578125,-0.2519949674606323,0.9794853925704956,-1.8435152769088745
1761414103078747000,7.243746826171875,-0.1070784479379654,1.455544352531433,-1.2504633665084839
1761414103088758800,7.2537587890625,-0.14443673193454742,0.8406493663787842,-0.7024669647216797
1761414103098771700,7.263771728515625,-0.009233856573700905,-0.0695357546210289,-0.12803669273853302
1761414103108783600,7.27378369140625,0.055521171540021896,-0.9907460808753967,0.28531414270401
1761414103118796800,7.283796875,-0.005545452702790499,-1.4855997562408447,0.4774158000946045
1761414103128808700,7.29380859375,-0.09393922984600067,-1.6364699602127075,0.4520382583141327
1761414103138822000,7.30382177734375,-0.1791950911283493,-1.4952998161315918,0.31417036056518555
1761414103148834300,7.313834228515625,-0.23021487891674042,-1.2034735679626465,0.113402359187603
1761414103158847000,7.323846923828125,-0.22502931952476501,-0.8971718549728394,-0.034847598522901535
1761414103168859100,7.333859130859375,-0.19373078644275665,-0.7694681882858276,-0.14110639691352844
1761414103178872000,7.3438720703125,-0.1635892689228058,-0.9489307999610901,-0.17987602949142456
1761414103188884200,7.35388427734375,-0.11764467507600784,-1.4092265367507935,-0.18122544884681702
1761414103198897200,7.363897216796875,-0.05745523422956467,-1.9039454460144043,-0.1631871908903122
1761414103208909300,7.373909423828125,-0.03242338448762894,-2.2146201133728027,-0.16820326447486877
1761414103218922200,7.383922119140625,-0.023026974871754646,-2.3041446208953857,-0.279244989156723
1761414103228934400,7.393934326171875,-0.09296637773513794,-2.052973747253418,-0.4571678638458252
1761414103238947000,7.403947021484375,-0.24988646805286407,-1.4719561338424683,-0.6680253744125366
1761414103248959200,7.413959228515625,-0.4147545397281647,-0.6045370697975159,-0.8987292051315308
1761414103258972200,7.42397216796875,-0.532625138759613,0.3578142523765564,-1.1044087409973145
1761414103268984300,7.433984375,-0.6017522811889648,1.1142525672912598,-1.2605949640274048
1761414103278997200,7.443997314453125,-0.6556239724159241,1.5216469764709473,-1.3347944021224976
1761414103289009200,7.454009033203125,-0.6636448502540588,1.5488349199295044,-1.3282346725463867
1761414103299022000,7.46402197265625,-0.6218928098678589,1.2851890325546265,-1.2631053924560547
1761414103309034000,7.474033935546875,-0.5403803586959839,0.8586412072181702,-1.1670111417770386
1761414103319047200,7.484047119140625,-0.4494490921497345,0.4408349096775055,-1.0313466787338257
1761414103329059000,7.49405908203125,-0.3607458770275116,0.16714982688426971,-0.8721911907196045
1761414103339072300,7.504072265625,-0.2981400787830353,0.07363588362932205,-0.7039699554443359
1761414103349084200,7.514084228515625,-0.2701129913330078,0.10358872264623642,-0.5487321615219116
1761414103359097300,7.524097412109375,-0.2580556571483612,0.19916066527366638,-0.4014880061149597
1761414103369109200,7.534109130859375,-0.28805509209632874,0.34967800974845886,-0.247317373752594
1761414103379122200,7.5441220703125,-0.35332560539245605,0.5018458962440491,-0.08102997392416
1761414103389134000,7.554134033203125,-0.4439854919910431,0.4969233274459839,0.0629463791847229
1761414103399147300,7.564147216796875,-0.5206697583198547,0.22146733105182648,0.133798748254776
1761414103409159200,7.5741591796875,-0.5761955976486206,-0.12654151022434235,0.16998471319675446
1761414103419172400,7.58417236328125,-0.5998992323875427,-0.3236578106880188,0.232932910323143
1761414103429184300,7.594184326171875,-0.6029893159866333,-0.31019046902656555,0.317800372838974
1761414103439197200,7.604197265625,-0.5745865702629089,-0.1895374357700348,0.3942252993583679
1761414103449209000,7.614208984375,-0.5321725010871887,-0.006891464814543724,0.45079535245895386
1761414103459222300,7.62422216796875,-0.4837234318256378,0.18270741403102875,0.48252344131469727
1761414103469234200,7.634234130859375,-0.43147993087768555,0.3593474328517914,0.49621179699897766
1761414103479247000,7.6442470703125,-0.3375900983810425,0.6190510392189026,0.5354545712471008
1761414103489260300,7.65426025390625,-0.19113433361053467,0.8463435769081116,0.6222965121269226
1761414103499272200,7.664272216796875,-0.022179387509822845,0.9240522980690002,0.7861130833625793
1761414103509285000,7.67428515625,0.10678286105394363,0.8118661046028137,1.0430182218551636
1761414103519297000,7.684297119140625,0.09356565028429031,0.2263985276222229,1.1375716924667358
1761414103529310200,7.694310302734375,-0.038926344364881516,-0.7684535384178162,0.8366350531578064
1761414103539322000,7.704322021484375,-0.1213599368929863,-1.187542200088501,0.3574707508087158
1761414103549335300,7.714335205078125,0.06587786972522736,-0.3885014057159424,-0.34570497274398804
1761414103559347200,7.72434716796875,0.43942809104919434,0.665378987789154,-0.6527170538902283
1761414103569360400,7.7343603515625,0.6520519256591797,1.4347342252731323,-0.401049941778183
1761414103579372300,7.744372314453125,0.5971251130104065,1.3382824659347534,-0.04304370656609535
1761414103589385200,7.75438525390625,0.5254903435707092,0.6871587634086609,0.1349734365940094
1761414103599397000,7.764397216796875,0.5596791505813599,0.0617506317794323,0.07724802196025848
1761414103609410300,7.774410400390625,0.49579310417175293,-0.31837937235832214,-0.06515386700630188
1761414103619422200,7.784422119140625,0.2629321217536926,-0.4520988464355469,-0.17479270696640015
1761414103629435400,7.794435302734375,0.02126465179026127,-0.3159641623497009,-0.23585791885852814
1761414103639447300,7.804447265625,-0.08049692213535309,0.14317473769187927,-0.2609051465988159
1761414103649460200,7.814460205078125,-0.04332319274544716,0.753661036491394,-0.2440934032201767
1761414103659472100,7.82447216796875,0.03993332386016846,1.1468753814697266,-0.23882772028446198
1761414103669485000,7.834485107421875,0.03044048883020878,1.1634283065795898,-0.2795802056789398
1761414103679497200,7.844497314453125,-0.08336913585662842,0.7151921391487122,-0.3522670567035675
1761414103689510100,7.85451025390625,-0.23458369076251984,0.10272690653800964,-0.4166162312030792
1761414103699522300,7.864522216796875,-0.3114128112792969,-0.6275341510772705,-0.34143537282943726
1761414103709535200,7.87453515625,-0.33509764075279236,-1.3626177310943604,-0.13728435337543488
1761414103719547400,7.88454736328125,-0.30724865198135376,-1.8304667472839355,0.06181252747774124
1761414103729560000,7.89456005859375,-0.29997822642326355,-1.7704774141311646,0.23207534849643707
1761414103739572200,7.904572265625,-0.36348628997802734,-1.3229180574417114,0.38387784361839294
1761414103749585200,7.914585205078125,-0.3844624161720276,-0.9042140245437622,0.5159251093864441
1761414103759597300,7.924597412109375,-0.389428049325943,-0.6585041880607605,0.5786173939704895
1761414103769610200,7.9346103515625,-0.4270007312297821,-0.49490886926651,0.5787937045097351
1761414103779622400,7.944622314453125,-0.4720517694950104,-0.3748810887336731,0.5464377403259277
1761414103789635000,7.954635009765625,-0.5130453109741211,-0.303303599357605,0.4828108549118042
1761414103799647000,7.96464697265625,-0.4951416850090027,-0.21848103404045105,0.40870171785354614
1761414103809660200,7.97466015625,-0.42937996983528137,-0.14297616481781006,0.31814146041870117
1761414103819672000,7.984672119140625,-0.2926056683063507,-0.06257984042167664,0.274020791053772
1761414103829685200,7.994685302734375,-0.16300904750823975,0.05414384603500366,0.3043171763420105
1761414103839697200,8.004697265625,-0.1492357850074768,0.15859843790531158,0.3552968204021454
1761414103849710300,8.01471044921875,-0.17616167664527893,0.20120075345039368,0.40171143412590027
1761414103859722200,8.02472216796875,-0.21354739367961884,0.1781146079301834,0.43950381875038147
1761414103869735200,8.034735107421875,-0.3240611255168915,0.18884022533893585,0.45654192566871643
1761414103879747000,8.0447470703125,-0.5150911808013916,0.2625775635242462,0.469331294298172
1761414103889760300,8.05476025390625,-0.7540233731269836,0.38874348998069763,0.4398735463619232
1761414103899772200,8.064772216796875,-0.9169098734855652,0.6233434677124023,0.34653303027153015
1761414103909785300,8.074785400390626,-0.8719631433486938,0.8085420727729797,0.3020550608634949
1761414103919797200,8.08479736328125,-0.5868238210678101,0.8446399569511414,0.3350437581539154
1761414103929810200,8.09481005859375,-0.13094790279865265,0.7369025945663452,0.34279966354370117
1761414103939823000,8.104822998046876,0.34060513973236084,0.5586631894111633,0.28309959173202515
1761414103949835300,8.114835205078125,0.6614097952842712,0.44662347435951233,0.2075800597667694
1761414103959848200,8.12484814453125,0.7815362215042114,0.48289570212364197,0.1732010394334793
1761414103969860400,8.1348603515625,0.7624248266220093,0.6158654689788818,0.1939401477575302
1761414103979873300,8.144873291015625,0.686251699924469,0.7142179608345032,0.23829983174800873
1761414103989885200,8.15488525390625,0.6279750466346741,0.7408426403999329,0.30444103479385376
1761414103999898000,8.164898193359376,0.6380348801612854,0.7666733860969543,0.3828998804092407
1761414104009910000,8.174909912109374,0.7487664818763733,0.7790088653564453,0.43376997113227844
1761414104019923200,8.184923095703125,0.9393327832221985,0.7277793884277344,0.4272591471672058
1761414104029935000,8.19493505859375,1.086617112159729,0.692905843257904,0.4526297450065613
1761414104039948300,8.2049482421875,1.1437759399414062,0.6298489570617676,0.506247341632843
1761414104049960200,8.214960205078125,1.1673823595046997,0.4045391380786896,0.5346712470054626
1761414104059973000,8.22497314453125,1.1276607513427734,-0.03166791796684265,0.4691815674304962
1761414104069985000,8.234985107421876,0.9643322825431824,-0.6261219382286072,0.3854168951511383
1761414104079998200,8.244998291015625,0.8187764883041382,-0.9272171854972839,0.4510234296321869
1761414104090010000,8.255010009765625,0.8054606914520264,-0.5834888219833374,0.5908463001251221
1761414104100023300,8.265023193359376,0.8580544590950012,-0.13731196522712708,0.594176173210144
1761414104110035200,8.27503515625,0.890579879283905,-0.014580981805920601,0.5580989122390747
1761414104120048400,8.28504833984375,0.8182047009468079,0.12644386291503906,0.3515665829181671
1761414104130060300,8.295060302734376,0.7253029942512512,0.3415881097316742,-0.11894021928310394
1761414104140073200,8.3050732421875,0.6606510877609253,0.5500550270080566,-0.6255008578300476
1761414104150084900,8.3150849609375,0.5647226572036743,0.7100297808647156,-1.0364912748336792
1761414104160098000,8.32509814453125,0.394967645406723,0.8242102265357971,-1.2927391529083252
1761414104170110000,8.33510986328125,0.17984654009342194,0.8491187691688538,-1.3700400590896606
1761414104180123100,8.345123046875,-0.0432448536157608,0.7553699016571045,-1.3157615661621094
1761414104190135000,8.355135009765625,-0.20819568634033203,0.6064485311508179,-1.1863572597503662
1761414104200148200,8.365148193359374,-0.2912271022796631,0.43248996138572693,-1.0326008796691895
1761414104210160000,8.37516015625,-0.3369748890399933,0.2354924976825714,-0.9749391674995422
1761414104220173000,8.385173095703125,-0.3536498248577118,0.0022920924238860607,-1.0244625806808472
1761414104230185000,8.39518505859375,-0.37674394249916077,-0.19883568584918976,-1.0571556091308594
1761414104240198100,8.4051982421875,-0.4120522737503052,-0.3525383472442627,-0.9912822246551514
1761414104250210000,8.4152099609375,-0.4738176465034485,-0.5244928002357483,-0.8638518452644348
1761414104260223200,8.42522314453125,-0.5392984747886658,-0.7308897376060486,-0.7055382132530212
1761414104270235100,8.435235107421875,-0.5738961100578308,-0.9131489992141724,-0.5309664011001587
1761414104280247800,8.445247802734375,-0.5475373864173889,-1.0283536911010742,-0.3606550097465515
1761414104290260000,8.455260009765626,-0.46392643451690674,-1.070252776145935,-0.20497699081897736
1761414104300273000,8.46527294921875,-0.34004145860671997,-1.034586787223816,-0.05423475801944733
1761414104310285000,8.47528515625,-0.21561725437641144,-0.954902172088623,0.08599425107240677
1761414104320298000,8.485298095703126,-0.12046992778778076,-0.8341707587242126,0.1971045881509781
1761414104330310100,8.49531005859375,-0.06776783615350723,-0.6759582161903381,0.26321810483932495
1761414104340323000,8.505322998046875,-0.06067335605621338,-0.4600933790206909,0.26360517740249634
1761414104350335200,8.515335205078125,-0.10360830277204514,-0.21668018400669098,0.18289007246494293
1761414104360348000,8.525347900390624,-0.16923364996910095,0.027750585228204727,0.026532381772994995
1761414104370360000,8.535360107421875,-0.22414137423038483,0.22806663811206818,-0.17283451557159424
1761414104380373000,8.545373046875,-0.2639784812927246,0.38060957193374634,-0.3608647584915161
1761414104390385200,8.55538525390625,-0.2813654839992523,0.4725290834903717,-0.5217976570129395
1761414104400398000,8.565398193359375,-0.27990207076072693,0.4956546425819397,-0.6296676993370056
1761414104410411000,8.575410888671875,-0.26211002469062805,0.46394625306129456,-0.6715525388717651
1761414104420423000,8.5854228515625,-0.23052223026752472,0.39556074142456055,-0.6510995030403137
1761414104430436000,8.59543603515625,-0.18568764626979828,0.2999900281429291,-0.5719548463821411
1761414104440448000,8.605447998046875,-0.1299041360616684,0.17108091711997986,-0.4461895823478699
1761414104450461200,8.615461181640624,-0.08647037297487259,0.02301076613366604,-0.2877722382545471
1761414104460473000,8.62547314453125,-0.08404924720525742,-0.14476792514324188,-0.13583175837993622
1761414104470486000,8.635486083984375,-0.11470036208629608,-0.30259162187576294,0.037124037742614746
1761414104480498200,8.645498291015626,-0.15157131850719452,-0.3824664354324341,0.2229316532611847
1761414104490510800,8.6555107421875,-0.16024070978164673,-0.37898167967796326,0.4012822210788727
1761414104500523000,8.66552294921875,-0.13838793337345123,-0.3410537540912628,0.5323389768600464
1761414104510536000,8.675535888671876,-0.04776214808225632,-0.26018738746643066,0.491945743560791
1761414104520548000,8.685548095703124,0.0658712163567543,-0.19639801979064941,0.3402802646160126
1761414104530561000,8.69556103515625,0.1128070279955864,-0.16538551449775696,0.3368951082229614
1761414104540573200,8.7055732421875,0.08635027706623077,-0.08372063934803009,0.4611598551273346
1761414104550586000,8.715586181640624,0.08608076721429825,-0.010742034763097763,0.6091777682304382
1761414104560598000,8.725597900390625,0.15182270109653473,0.03917687013745308,0.6694656610488892
1761414104570611000,8.73561083984375,0.18722009658813477,0.04893682152032852,0.48972445726394653
1761414104580623000,8.745623046875,0.10108554363250732,-0.12097852677106857,0.005535591393709183
1761414104590636000,8.755635986328125,-0.13690757751464844,-0.3579423427581787,-0.4970899820327759
1761414104600648000,8.76564794921875,-0.40232139825820923,-0.42600661516189575,-0.6637008786201477
1761414104610661000,8.7756611328125,-0.5764673352241516,-0.6099290251731873,-0.501317024230957
1761414104620673000,8.785673095703125,-0.7026547193527222,-0.8275884985923767,-0.11197908222675323
1761414104630686000,8.79568603515625,-0.8876791596412659,-0.9100591540336609,0.28024300932884216
1761414104640697900,8.80569775390625,-0.8224923610687256,-1.0657033920288086,0.2940535247325897
1761414104650711000,8.8157109375,-0.41667085886001587,-1.257110595703125,-0.1675599068403244
1761414104660723000,8.825722900390625,-0.1525752991437912,-1.156177282333374,-0.8843480944633484
1761414104670736100,8.835736083984376,-0.1919512003660202,-0.8147934079170227,-1.5290876626968384
1761414104680748000,8.845748046875,-0.30447840690612793,-0.22978465259075165,-1.8640406131744385
1761414104690761200,8.85576123046875,-0.4161497950553894,0.5116646885871887,-1.8465944528579712
1761414104700773000,8.865773193359376,-0.6624208092689514,1.0864076614379883,-1.6453992128372192
1761414104710786000,8.8757861328125,-0.8437786102294922,1.2292124032974243,-1.3595600128173828
1761414104720798000,8.8857978515625,-0.9265636205673218,1.1544837951660156,-1.034088134765625
1761414104730811100,8.89581103515625,-0.9277710914611816,0.9556204080581665,-0.7405214309692383
1761414104740823000,8.905822998046874,-0.865658700466156,0.6706580519676208,-0.5190192461013794
1761414104750836200,8.915836181640625,-0.7769360542297363,0.3992769122123718,-0.37633827328681946
1761414104760848100,8.92584814453125,-0.6970881223678589,0.22193175554275513,-0.2548525035381317
1761414104770861000,8.935861083984374,-0.6543577313423157,0.2074604332447052,-0.09387347847223282
1761414104780873000,8.945873046875,-0.6174135804176331,0.3299608528614044,0.08731133490800858
1761414104790886000,8.955885986328125,-0.5510124564170837,0.519944429397583,0.267672598361969
1761414104800898000,8.96589794921875,-0.45490598678588867,0.6696082353591919,0.42707380652427673
1761414104810911000,8.975910888671875,-0.36391589045524597,0.7564334273338318,0.5516594052314758
1761414104820923100,8.985923095703125,-0.2934079170227051,0.8078979253768921,0.6359715461730957
1761414104830936000,8.99593603515625,-0.26343056559562683,0.841234028339386,0.6704787015914917
1761414104840948200,9.0059482421875,-0.2886447012424469,0.871083676815033,0.6864902377128601
1761414104850961000,9.0159609375,-0.3530700206756592,0.9002870917320251,0.7064122557640076
1761414104860973000,9.02597314453125,-0.4391603171825409,0.891671359539032,0.7145047783851624
1761414104870986000,9.035986083984374,-0.5138518810272217,0.817466139793396,0.7141207456588745
1761414104880998100,9.045998046875,-0.5492002367973328,0.7279208302497864,0.7051802277565002
1761414104891011000,9.056010986328126,-0.5252736210823059,0.6700031757354736,0.6928921937942505
1761414104901023200,9.066023193359374,-0.44274023175239563,0.6455402374267578,0.6921830773353577
1761414104911036000,9.076035888671875,-0.3044699728488922,0.6366511583328247,0.684612512588501
1761414104921049000,9.086049072265626,-0.11229204386472702,0.5817000865936279,0.6708787679672241
1761414104931061000,9.09606103515625,0.09771179407835007,0.5173397660255432,0.6396079063415527
1761414104941074200,9.10607421875,0.2773040235042572,0.5376656651496887,0.5959067940711975
1761414104951086000,9.116086181640625,0.3920985162258148,0.6385923027992249,0.5750688910484314
1761414104961099300,9.126099365234374,0.4761790633201599,0.7426376938819885,0.5937919616699219
1761414104971111200,9.136111083984375,0.5432483553886414,0.8040613532066345,0.6452404856681824
1761414104981123800,9.146123779296875,0.5949007272720337,0.7948440909385681,0.7090601325035095
1761414104991136000,9.156135986328126,0.6290869116783142,0.675222635269165,0.7583978772163391
1761414105001149000,9.16614892578125,0.6219555139541626,0.5276784896850586,0.8011868000030518
1761414105011161000,9.1761611328125,0.5843008160591125,0.35102325677871704,0.8959415555000305
1761414105021174000,9.186174072265626,0.5563837885856628,0.24345269799232483,1.1479713916778564
1761414105031186200,9.196186279296874,0.5339732766151428,0.046184901148080826,1.4636342525482178
1761414105041198800,9.20619873046875,0.4256524443626404,-0.36203163862228394,1.6635419130325317
1761414105051211000,9.2162109375,0.16048923134803772,-0.7904998660087585,1.7104436159133911
1761414105061224000,9.226223876953124,-0.1612558662891388,-0.9221662282943726,1.6279782056808472
1761414105071236000,9.236236083984375,-0.36742714047431946,-0.722481369972229,1.4676891565322876
1761414105081249000,9.2462490234375,-0.35365229845046997,-0.4136051535606384,1.212447166442871
1761414105091261200,9.25626123046875,-0.3129328191280365,-0.08519292622804642,0.786319375038147
1761414105101274000,9.266274169921875,-0.23497585952281952,0.01015852577984333,0.2363826334476471
1761414105111286000,9.2762861328125,-0.151949942111969,-0.12844116985797882,-0.41224995255470276
1761414105121299000,9.286298828125,-0.051912132650613785,-0.29556241631507874,-1.0143685340881348
1761414105131310800,9.296310791015625,0.06195824593305588,-0.26231178641319275,-1.4307186603546143
1761414105141324000,9.306323974609375,0.17262686789035797,-0.11009659618139267,-1.656685471534729
1761414105151335700,9.316335693359376,0.26820263266563416,0.16563832759857178,-1.6378366947174072
1761414105161348600,9.3263486328125,0.3470306694507599,0.4526969790458679,-1.4023407697677612
1761414105171360800,9.33636083984375,0.3728124499320984,0.5386454463005066,-1.0860211849212646
1761414105181373700,9.346373779296876,0.32562267780303955,0.4645538032054901,-0.7612768411636353
1761414105191385900,9.3563857421875,0.21483251452445984,0.2878735661506653,-0.47811809182167053
1761414105201398500,9.3663984375,0.08533384650945663,0.01648150570690632,-0.3072965443134308
1761414105211410700,9.37641064453125,0.010046279057860374,-0.2541657090187073,-0.2825605869293213
1761414105221423600,9.386423583984374,0.0002650541136972606,-0.41478416323661804,-0.3686141073703766
1761414105231435800,9.396435791015625,0.026819167658686638,-0.4142312705516815,-0.4579399824142456
1761414105241448700,9.40644873046875,0.054179638624191284,-0.2761085331439972,-0.4911758005619049
1761414105251460600,9.416460693359374,0.046845827251672745,-0.05510905385017395,-0.4270104169845581
1761414105261473500,9.4264736328125,-0.006398089695721865,0.2096404731273651,-0.27324649691581726
1761414105271485400,9.4364853515625,-0.05288916081190109,0.41268548369407654,-0.0731607973575592
1761414105281498600,9.44649853515625,-0.08657310903072357,0.5054196715354919,0.13201908767223358
1761414105291510500,9.456510498046875,-0.1271516978740692,0.4651001989841461,0.3074992895126343
1761414105301523700,9.466523681640625,-0.18205159902572632,0.3420090675354004,0.44032421708106995
1761414105311535600,9.47653564453125,-0.28198137879371643,0.1768432855606079,0.5084947347640991
1761414105321548800,9.486548828125,-0.35798773169517517,-0.016031088307499886,0.5387500524520874
1761414105331560700,9.496560791015625,-0.42474305629730225,-0.15181873738765717,0.5352514386177063
1761414105341573600,9.50657373046875,-0.4874309301376343,-0.2424892634153366,0.5027441382408142
1761414105351585500,9.51658544921875,-0.5197036266326904,-0.3088938593864441,0.4620206654071808
1761414105361598700,9.5265986328125,-0.504149854183197,-0.2901488244533539,0.46122249960899353
1761414105371610600,9.536610595703126,-0.4489419758319855,-0.16447719931602478,0.49337804317474365
1761414105381623800,9.546623779296874,-0.3643811047077179,0.05025198310613632,0.5613722205162048
1761414105391635700,9.5566357421875,-0.2609311640262604,0.2527483403682709,0.6453163623809814
1761414105401648600,9.566648681640626,-0.18013596534729004,0.3622238039970398,0.697246253490448
1761414105411660500,9.57666064453125,-0.19531013071537018,0.37898334860801697,0.6678617000579834
1761414105421673700,9.586673828125,-0.21545404195785522,0.21929308772087097,0.5674756765365601
1761414105431685600,9.596685546875,-0.2424960434436798,-0.03762286528944969,0.3853553831577301
1761414105441698600,9.606698486328124,-0.24555045366287231,-0.2289203703403473,0.18432359397411346
1761414105451710700,9.616710693359375,-0.19827455282211304,-0.2900737524032593,0.03582387790083885
1761414105461723600,9.6267236328125,-0.20658943057060242,-0.15706169605255127,-0.014099452644586563
1761414105471735800,9.63673583984375,-0.1890714168548584,0.11379988491535187,0.058872491121292114
1761414105481748500,9.64674853515625,0.0068815601989626884,0.7140796184539795,0.30850693583488464
1761414105491760600,9.6567607421875,0.2530103623867035,1.6967711448669434,0.6931118965148926
1761414105501773600,9.666773681640626,0.5489190220832825,2.056513547897339,0.8883348107337952
1761414105511785700,9.67678564453125,0.8631882667541504,0.9823792576789856,0.5460227131843567
1761414105521798700,9.686798583984375,0.8380160331726074,-1.0255064964294434,-0.41293492913246155
1761414105531810800,9.696810791015626,0.3764108121395111,-2.7263574600219727,-1.5494143962860107
1761414105541823700,9.70682373046875,-0.0821019634604454,-3.08099627494812,-2.2659695148468018
