time,seconds_elapsed,z,y,x
1761414042352586000,0.0695859375,-0.2606187164783478,0.26720353960990906,-0.5521619915962219
1761414042362599200,0.07959912109375,-0.4202798008918762,0.3075280487537384,-0.36555126309394836
1761414042372612000,0.089612060546875,-0.5161903500556946,0.37974366545677185,-0.14253923296928406
1761414042382624300,0.099624267578125,-0.4175059497356415,0.45100393891334534,0.10139051824808121
1761414042392637000,0.109636962890625,-0.19425848126411438,0.4612523317337036,0.34938645362854004
1761414042402650000,0.119650146484375,-0.1961955577135086,0.5747612714767456,0.585329532623291
1761414042412662000,0.129662109375,-0.3162282109260559,0.7582234740257263,0.7864069938659668
1761414042422675200,0.13967529296875,-0.35090234875679016,0.9614050984382629,0.9924678206443787
1761414042432687900,0.14968798828125,-0.23030561208724976,1.2701895236968994,1.200567364692688
1761414042442700000,0.159699951171875,0.009453529492020607,1.44132661819458,1.2397006750106812
1761414042452713000,0.169712890625,0.28663933277130127,1.310196042060852,1.0466907024383545
1761414042462726100,0.17972607421875,0.5321435332298279,1.137164831161499,0.797778308391571
1761414042472738000,0.189738037109375,0.6372135281562805,0.801293134689331,0.4366867244243622
1761414042482751200,0.199751220703125,0.8698169589042664,0.7576578259468079,0.08953449130058289
1761414042492764000,0.209763916015625,1.3717039823532104,0.32068365812301636,-0.2757214903831482
1761414042502776000,0.219776123046875,1.7724453210830688,-0.2048802673816681,-0.633485734462738
1761414042512789000,0.2297890625,2.065769910812378,-0.6386197209358215,-0.8499429225921631
1761414042522802200,0.23980224609375,2.2410714626312256,-0.7476926445960999,-0.8273645639419556
1761414042532814000,0.24981396484375,2.0748753547668457,-0.318950355052948,-0.5238193273544312
1761414042542827000,0.259826904296875,1.1965550184249878,0.4540303647518158,-0.0893174260854721
1761414042552840000,0.26983984375,-0.3355918824672699,0.7845187783241272,0.2661866247653961
1761414042562852000,0.27985205078125,-0.8620498180389404,-0.09220648556947708,0.45397117733955383
1761414042572865000,0.289864990234375,-0.5653424859046936,-1.0253750085830688,0.5807347297668457
1761414042582877200,0.299877197265625,-0.27560514211654663,-1.8629001379013062,0.3370557725429535
1761414042592890000,0.30989013671875,-0.10495616495609283,-2.1480605602264404,-0.26720908284187317
1761414042602903000,0.319903076171875,-0.06138892471790314,-2.4255523681640625,-0.5626451373100281
1761414042612915000,0.3299150390625,0.0029128340538591146,-2.2842609882354736,-0.4080946743488312
1761414042622928100,0.33992822265625,0.11659268289804459,-1.31570303440094,-0.01434154249727726
1761414042632941000,0.349941162109375,0.23900967836380005,-0.2767801582813263,0.43948185443878174
1761414042642953200,0.359953125,0.27775734663009644,0.22546501457691193,0.6089925765991211
1761414042652966100,0.369966064453125,0.20378537476062775,0.2644960284233093,0.4841225743293762
1761414042662979000,0.37997900390625,0.05068770796060562,0.185316264629364,0.3218958377838135
1761414042672991000,0.389990966796875,-0.18633903563022614,0.07243145257234573,0.18637707829475403
1761414042683004200,0.400004150390625,-0.40230774879455566,-0.07299827039241791,0.06314046680927277
1761414042693017000,0.41001708984375,-0.5740818977355957,-0.21116626262664795,-0.10048122704029083
1761414042703029200,0.420029296875,-0.703386664390564,-0.3194655776023865,-0.30774620175361633
1761414042713042000,0.4300419921875,-0.8341014981269836,-0.32096680998802185,-0.5475385785102844
1761414042723055000,0.44005517578125,-1.0005607604980469,-0.21734948456287384,-0.797732412815094
1761414042733067000,0.45006689453125,-1.194349765777588,-0.0038260179571807384,-0.9669057130813599
1761414042743080200,0.460080078125,-1.380214810371399,0.3123815357685089,-1.017429232597351
1761414042753093000,0.470093017578125,-1.5445960760116577,0.5796971321105957,-1.0266746282577515
1761414042763105300,0.480105224609375,-1.6655359268188477,0.6975612640380859,-1.0428712368011475
1761414042773118000,0.490117919921875,-1.712647795677185,0.7176620364189148,-1.0422451496124268
1761414042783131100,0.500131103515625,-1.663074254989624,0.683099627494812,-0.9991129636764526
1761414042793143000,0.51014306640625,-1.5635114908218384,0.5656875371932983,-0.9166783094406128
1761414042803156200,0.52015625,-1.461699366569519,0.4128289520740509,-0.7784667611122131
1761414042813168000,0.530168212890625,-1.3682572841644287,0.2967492341995239,-0.594662606716156
1761414042823181000,0.54018115234375,-1.273701786994934,0.21825848519802094,-0.4200488328933716
1761414042833194000,0.550194091796875,-1.194980263710022,0.15753094851970673,-0.3163573145866394
1761414042843206100,0.5602060546875,-1.157413125038147,0.10937054455280304,-0.3088066875934601
1761414042853219000,0.570218994140625,-1.1497105360031128,0.0805673897266388,-0.3819466829299927
1761414042863232300,0.580232177734375,-1.154322862625122,0.10658961534500122,-0.46949502825737
1761414042873244200,0.590244140625,-1.1643486022949219,0.1968958079814911,-0.5119436383247375
1761414042883257000,0.600257080078125,-1.1556435823440552,0.296497642993927,-0.5279172658920288
1761414042893270000,0.61027001953125,-1.1093088388442993,0.3641166388988495,-0.5213072896003723
1761414042903282200,0.6202822265625,-1.0348104238510132,0.3611893951892853,-0.5259549617767334
1761414042913295000,0.630295166015625,-0.9455273747444153,0.2644902765750885,-0.546301007270813
1761414042923308000,0.64030810546875,-0.8392539620399475,0.13073861598968506,-0.5491897463798523
1761414042933320000,0.65031982421875,-0.7313732504844666,0.0003619566559791565,-0.5154618620872498
1761414042943333000,0.6603330078125,-0.6442569494247437,-0.12199093401432037,-0.4636204242706299
1761414042953346000,0.670345947265625,-0.569441020488739,-0.2117394655942917,-0.3996683657169342
1761414042963358200,0.680358154296875,-0.4945143163204193,-0.26964443922042847,-0.32741037011146545
1761414042973371100,0.69037109375,-0.41935646533966064,-0.29766517877578735,-0.25492551922798157
1761414042983384000,0.700384033203125,-0.3326002359390259,-0.2928920090198517,-0.17856785655021667
1761414042993396000,0.71039599609375,-0.2419997751712799,-0.25088730454444885,-0.10775279998779297
1761414043003409200,0.7204091796875,-0.14208683371543884,-0.2001049518585205,-0.05957718566060066
1761414043013422000,0.730422119140625,-0.05301128327846527,-0.18200157582759857,-0.0680265948176384
1761414043023434200,0.740434326171875,0.02057240903377533,-0.2089695781469345,-0.11428675055503845
1761414043033447000,0.750447021484375,0.09380561113357544,-0.26876765489578247,-0.19268594682216644
1761414043043459000,0.760458984375,0.16464287042617798,-0.3311946392059326,-0.2722267806529999
1761414043053472000,0.770471923828125,0.22349686920642853,-0.3274576961994171,-0.3141625225543976
1761414043063485200,0.780485107421875,0.236168771982193,-0.2432767003774643,-0.2918674945831299
1761414043073497000,0.7904970703125,0.23252663016319275,-0.10120213031768799,-0.2536149322986603
1761414043083510300,0.80051025390625,0.24309960007667542,0.1143764853477478,-0.21357285976409912
1761414043093523700,0.810523681640625,0.2959476411342621,0.3647836744785309,-0.1570161134004593
1761414043103535900,0.820535888671875,0.4391075074672699,0.5772136449813843,-0.022120118141174316
1761414043113548800,0.830548828125,0.6610732078552246,0.6940252184867859,0.1661352813243866
1761414043123562000,0.84056201171875,0.8396017551422119,0.48521944880485535,0.23734746873378754
1761414043133574000,0.850573974609375,0.8764129877090454,-0.04349205270409584,0.12279506027698517
1761414043143586800,0.8605869140625,0.8244028091430664,-0.7075040340423584,-0.03679240122437477
1761414043153599700,0.870599853515625,0.7506422996520996,-1.2621328830718994,-0.0407131090760231
1761414043163612000,0.88061181640625,0.7593021988868713,-1.4744457006454468,0.2751119136810303
1761414043173624800,0.890624755859375,0.8281124234199524,-1.4669369459152222,0.8049624562263489
1761414043183637800,0.9006376953125,0.92116379737854,-1.3135707378387451,1.1446070671081543
1761414043193649700,0.910649658203125,1.0199817419052124,-0.8886203169822693,0.9677340388298035
1761414043203662800,0.920662841796875,1.047652006149292,-0.08387267589569092,0.42276647686958313
1761414043213675800,0.93067578125,1.0096311569213867,0.9051896333694458,-0.09721571207046509
1761414043223688000,0.94068798828125,0.943473756313324,1.6680374145507812,-0.4006718397140503
1761414043233700900,0.950700927734375,0.8920976519584656,1.986035943031311,-0.43348783254623413
1761414043243713800,0.9607138671875,0.8449068069458008,1.974314570426941,-0.16615423560142517
1761414043253725700,0.9707255859375,0.8563131093978882,1.8321446180343628,0.36037054657936096
1761414043263739000,0.98073876953125,0.9173898696899414,1.6588729619979858,1.0016834735870361
1761414043273750800,0.990750732421875,0.9381082057952881,1.3757067918777466,1.5484694242477417
1761414043283764000,1.000763916015625,0.8803672194480896,1.001339077949524,1.9486061334609985
1761414043293776600,1.010776611328125,0.7111158967018127,0.6768608093261719,2.1035945415496826
1761414043303788800,1.020788818359375,0.45935511589050293,0.5231941938400269,1.9835560321807861
1761414043313801700,1.0308017578125,0.23610259592533112,0.5251622796058655,1.7262225151062012
1761414043323815000,1.04081494140625,0.06536414474248886,0.4818035364151001,1.499165415763855
1761414043333826800,1.050826904296875,-0.059122394770383835,0.35004284977912903,1.4073542356491089
1761414043343840000,1.060840087890625,-0.13165509700775146,0.05719000846147537,1.3987102508544922
1761414043353852700,1.070852783203125,-0.16465166211128235,-0.26601865887641907,1.3826652765274048
1761414043363864800,1.08086474609375,-0.15258464217185974,-0.4349363446235657,1.278048038482666
1761414043373877800,1.090877685546875,-0.09188240766525269,-0.49007976055145264,1.0088043212890625
1761414043383891000,1.100890869140625,0.0000074283452704548836,-0.48600730299949646,0.605290949344635
1761414043393902800,1.11090283203125,0.06075839698314667,-0.5415326356887817,0.1514400839805603
1761414043403915800,1.120915771484375,-0.0003506297362037003,-0.6344407796859741,-0.28557777404785156
1761414043413928700,1.1309287109375,-0.17034046351909637,-0.7061924934387207,-0.6577326655387878
1761414043423940900,1.14094091796875,-0.35080528259277344,-0.7221132516860962,-0.921397864818573
1761414043433953800,1.150953857421875,-0.510792076587677,-0.6999520063400269,-1.0824503898620605
1761414043443967000,1.160967041015625,-0.6067177653312683,-0.6593063473701477,-1.1701922416687012
1761414043453979000,1.170978759765625,-0.6135940551757812,-0.5582417845726013,-1.1870604753494263
1761414043463991800,1.18099169921875,-0.5602614879608154,-0.42020463943481445,-1.13736891746521
1761414043474004700,1.191004638671875,-0.474137544631958,-0.2772655785083771,-1.017580509185791
1761414043484017000,1.201016845703125,-0.38338038325309753,-0.10930274426937103,-0.8772621750831604
1761414043494029800,1.21102978515625,-0.27577537298202515,0.06879907846450806,-0.7559376358985901
1761414043504042000,1.2210419921875,-0.15897895395755768,0.18612250685691833,-0.6857333183288574
1761414043514054700,1.2310546875,-0.09673554450273514,0.21548865735530853,-0.6850046515464783
1761414043524067800,1.24106787109375,-0.10411545634269714,0.18895238637924194,-0.6957784295082092
1761414043534079700,1.251079833984375,-0.12259166687726974,0.16420789062976837,-0.6641661524772644
1761414043544093000,1.261093017578125,-0.10125504434108734,0.1296658217906952,-0.6171231269836426
1761414043554105900,1.27110595703125,-0.03846409544348717,0.05580678582191467,-0.5620539784431458
1761414043564118000,1.281117919921875,0.08956564962863922,-0.006257954519242048,-0.48838621377944946
1761414043574130700,1.291130615234375,0.2841825485229492,-0.07200714200735092,-0.3793385624885559
1761414043584144000,1.301143798828125,0.5101130604743958,-0.14837825298309326,-0.287855863571167
1761414043594155800,1.31115576171875,0.7272499203681946,-0.2529565989971161,-0.23044024407863617
1761414043604169000,1.3211689453125,0.8961923122406006,-0.4277324080467224,-0.17379164695739746
1761414043614181600,1.331181640625,0.9596126079559326,-0.5781357288360596,-0.12531599402427673
1761414043624193800,1.34119384765625,0.9436693787574768,-0.689856767654419,-0.09810690581798553
1761414043634206700,1.351206787109375,0.9107058048248291,-0.7091857194900513,-0.06245623901486397
1761414043644220000,1.361219970703125,0.8950561881065369,-0.654678225517273,-0.060411207377910614
1761414043654231800,1.371231689453125,0.9184733629226685,-0.5699273943901062,-0.1335916817188263
1761414043664245000,1.381244873046875,0.9505791664123535,-0.5252460241317749,-0.27103540301322937
1761414043674257000,1.3912568359375,0.9868647456169128,-0.40662455558776855,-0.3531843423843384
1761414043684269800,1.401269775390625,1.0721243619918823,-0.2708374857902527,-0.34884727001190186
1761414043694282800,1.41128271484375,1.1535828113555908,-0.22749212384223938,-0.33537647128105164
1761414043704295000,1.421294921875,1.198575735092163,-0.2725157141685486,-0.3585137724876404
1761414043714307800,1.431307861328125,1.1856935024261475,-0.39034754037857056,-0.4653826951980591
1761414043724320800,1.44132080078125,1.1435329914093018,-0.4135914444923401,-0.5451165437698364
1761414043734332700,1.451332763671875,1.1464217901229858,-0.22988446056842804,-0.5232320427894592
1761414043744345900,1.461345947265625,1.2160840034484863,-0.018219877034425735,-0.4099598526954651
1761414043754358800,1.47135888671875,1.2964086532592773,0.03663910925388336,-0.17029054462909698
1761414043764371000,1.481370849609375,1.3400962352752686,-0.05824878811836243,0.10987373441457748
1761414043774383900,1.4913837890625,1.3107534646987915,-0.20003734529018402,0.22401973605155945
1761414043784396800,1.501396728515625,1.1744505167007446,-0.3058309555053711,0.1116059422492981
1761414043794408700,1.51140869140625,0.9913865327835083,-0.3727439343929291,0.018568141385912895
1761414043804422000,1.521421875,0.8266848921775818,-0.4322720170021057,0.22086116671562195
1761414043814434800,1.531434814453125,0.7347701191902161,-0.566516101360321,0.7767225503921509
1761414043824447000,1.541447021484375,0.7850576639175415,-0.6635749936103821,1.5389422178268433
1761414043834460000,1.5514599609375,1.0025854110717773,-0.42710545659065247,2.313706874847412
1761414043844472800,1.561472900390625,1.256564736366272,0.174030601978302,2.887766122817993
1761414043854484700,1.571484619140625,1.452998161315918,0.8901442289352417,3.1556644439697266
1761414043864498000,1.581497802734375,1.5125508308410645,1.2999744415283203,3.083705186843872
1761414043874509800,1.591509765625,1.3470669984817505,1.4548399448394775,2.849285125732422
1761414043884523000,1.60152294921875,1.0484448671340942,1.6086887121200562,2.627924680709839
1761414043894535700,1.61153564453125,0.7543640732765198,1.8571754693984985,2.4305849075317383
1761414043904547800,1.6215478515625,0.5209157466888428,2.1679844856262207,2.185040235519409
1761414043914560800,1.631560791015625,0.3451615273952484,2.3660969734191895,1.8305658102035522
1761414043924574000,1.641573974609375,0.19474521279335022,2.4098541736602783,1.3632524013519287
1761414043934585900,1.6515859375,0.05877885967493057,2.3320252895355225,0.8592835664749146
1761414043944599000,1.66159912109375,-0.07655701786279678,2.1688778400421143,0.39578303694725037
1761414043954611700,1.67161181640625,-0.22548498213291168,1.8989250659942627,-0.02660522051155567
1761414043964624000,1.681623779296875,-0.3676484525203705,1.5901967287063599,-0.38104864954948425
1761414043974636800,1.69163671875,-0.5205732583999634,1.2559210062026978,-0.6862136721611023
1761414043984650000,1.70164990234375,-0.6836767792701721,0.9059779047966003,-0.947794497013092
1761414043994662000,1.711661865234375,-0.8274648785591125,0.5964887738227844,-1.156411051750183
1761414044004674800,1.7216748046875,-0.928187906742096,0.3681665360927582,-1.2849020957946777
1761414044014687700,1.731687744140625,-0.9793592095375061,0.2044670730829239,-1.2985990047454834
1761414044024700000,1.741699951171875,-1.0011413097381592,0.05833020806312561,-1.222001075744629
1761414044034712800,1.751712890625,-0.9941939115524292,-0.09196289628744125,-1.099827527999878
1761414044044726000,1.76172607421875,-0.9662986993789673,-0.22324396669864655,-0.9454076290130615
1761414044054738000,1.771738037109375,-0.9078636169433594,-0.3010695278644562,-0.7674093842506409
1761414044064750800,1.781750732421875,-0.8339988589286804,-0.34073925018310547,-0.5929740071296692
1761414044074762800,1.7917626953125,-0.7536920309066772,-0.33565554022789,-0.4366762638092041
1761414044084776000,1.80177587890625,-0.6625066995620728,-0.31400004029273987,-0.3148859143257141
1761414044094788000,1.8117880859375,-0.5613827705383301,-0.26627859473228455,-0.23861883580684662
1761414044104800000,1.821800048828125,-0.45487096905708313,-0.23522870242595673,-0.1878991276025772
1761414044114813200,1.831813232421875,-0.3513789474964142,-0.23684337735176086,-0.1544594019651413
1761414044124826000,1.841826171875,-0.26014432311058044,-0.29567137360572815,-0.14510273933410645
1761414044134838000,1.851838134765625,-0.17935176193714142,-0.3801838457584381,-0.12934881448745728
1761414044144851200,1.861851318359375,-0.08957523852586746,-0.45683348178863525,-0.08425942808389664
1761414044154864000,1.871864013671875,-0.009204762987792492,-0.5323647260665894,-0.02165863662958145
1761414044164876000,1.8818759765625,0.0487494021654129,-0.583573043346405,0.028165824711322784
1761414044174889000,1.891888916015625,0.10096760094165802,-0.5734162926673889,0.059756241738796234
1761414044184902100,1.901902099609375,0.15039467811584473,-0.5277197957038879,0.07823483645915985
1761414044194914000,1.9119140625,0.1801871955394745,-0.4701840877532959,0.09547773748636246
1761414044204927200,1.92192724609375,0.21529287099838257,-0.41766980290412903,0.1016186848282814
1761414044214940200,1.931940185546875,0.25678545236587524,-0.3544442057609558,0.08750606328248978
1761414044224952000,1.9419521484375,0.3007558584213257,-0.30336394906044006,0.05419754236936569
1761414044234965000,1.951965087890625,0.3394569158554077,-0.2981713116168976,0.0010959731880575418
1761414044244977000,1.961976806640625,0.3767283260822296,-0.30956408381462097,-0.016428541392087936
1761414044254990000,1.971989990234375,0.41087856888771057,-0.32885098457336426,0.016366954892873764
1761414044265003300,1.982003173828125,0.43337246775627136,-0.37188711762428284,0.07067834585905075
1761414044275015200,1.99201513671875,0.45983362197875977,-0.40030092000961304,0.12567901611328125
1761414044285028000,2.002028076171875,0.4817888140678406,-0.41416341066360474,0.15509051084518433
1761414044295041000,2.012041015625,0.4883258044719696,-0.4425170421600342,0.10713417083024979
1761414044305053000,2.022052978515625,0.5106953382492065,-0.4972458481788635,-0.014765308238565922
1761414044315066000,2.032066162109375,0.48783978819847107,-0.6075922846794128,-0.103367879986763
1761414044325079300,2.042079345703125,0.48260602355003357,-0.7991716265678406,-0.1554090678691864
1761414044335091200,2.05209130859375,0.5219556093215942,-0.8481583595275879,-0.2322058528661728
1761414044345104100,2.062104248046875,0.5979620814323425,-0.7845767736434937,-0.3652821481227875
1761414044355117000,2.072116943359375,0.5838305354118347,-0.7607781887054443,-0.6402415633201599
1761414044365129000,2.08212890625,0.38872382044792175,-0.9513593912124634,-1.2637135982513428
1761414044375142100,2.09214208984375,0.18736301362514496,-1.1882233619689941,-2.2226898670196533
1761414044385155300,2.1021552734375,0.05512814223766327,-1.2726860046386719,-3.0816586017608643
1761414044395167200,2.112167236328125,-0.033586811274290085,-1.0401959419250488,-3.3665506839752197
1761414044405180200,2.12218017578125,-0.07714179158210754,-0.47297531366348267,-2.9892499446868896
1761414044415192000,2.132192138671875,-0.15611037611961365,0.017268691211938858,-2.1708078384399414
1761414044425205000,2.142205078125,-0.21811717748641968,0.15998953580856323,-1.3419684171676636
1761414044435218200,2.15221826171875,-0.1163034662604332,-0.037892118096351624,-0.7554517388343811
1761414044445230000,2.16222998046875,0.1481621414422989,-0.2387995719909668,-0.2771610915660858
1761414044455243000,2.172242919921875,0.44042569398880005,-0.41436395049095154,0.1988121122121811
1761414044465256200,2.182256103515625,0.6324296593666077,-0.6247467994689941,0.7098247408866882
1761414044475268000,2.19226806640625,0.6937792897224426,-0.6744973063468933,1.2521470785140991
1761414044485281000,2.202281005859375,0.6550902724266052,-0.582857608795166,1.7463942766189575
1761414044495294200,2.212294189453125,0.5421499013900757,-0.3971399664878845,2.1002309322357178
1761414044505306000,2.22230615234375,0.3841734528541565,-0.08132230490446091,2.2904512882232666
1761414044515319000,2.232319091796875,0.1966933161020279,0.26841092109680176,2.309032678604126
1761414044525332200,2.242332275390625,-0.018691986799240112,0.519886314868927,2.179952383041382
1761414044535344000,2.25234423828125,-0.25037872791290283,0.6535415649414062,1.9545032978057861
1761414044545357000,2.262357177734375,-0.4694567322731018,0.7301800847053528,1.6920853853225708
1761414044555370000,2.272369873046875,-0.6477814316749573,0.7527828216552734,1.4291019439697266
1761414044565382000,2.2823818359375,-0.7829431295394897,0.7239063382148743,1.205209493637085
1761414044575395000,2.29239501953125,-0.8772837519645691,0.6768192648887634,1.0342662334442139
1761414044585408300,2.302408203125,-0.9481304883956909,0.6114333271980286,0.9062577486038208
1761414044595420200,2.312420166015625,-1.0114418268203735,0.5373048186302185,0.8159283399581909
1761414044605433000,2.32243310546875,-1.1169674396514893,0.4577604830265045,0.7211452722549438
1761414044615445200,2.3324453125,-1.2729741334915161,0.40294861793518066,0.5733464956283569
1761414044625458000,2.3424580078125,-1.426931619644165,0.389794260263443,0.3780105710029602
1761414044635471000,2.35247119140625,-1.5172395706176758,0.4010967016220093,0.11576215922832489
1761414044645483000,2.36248291015625,-1.5572607517242432,0.41619110107421875,-0.2074851244688034
1761414044655496200,2.37249609375,-1.5608235597610474,0.441609650850296,-0.5446335673332214
1761414044665508900,2.3825087890625,-1.5511431694030762,0.44156786799430847,-0.8463475108146667
1761414044675521000,2.39252099609375,-1.4961904287338257,0.4488998353481293,-1.0024694204330444
1761414044685534000,2.402533935546875,-1.3449840545654297,0.5069541931152344,-0.9341621398925781
1761414044695547100,2.412547119140625,-1.1401523351669312,0.5596834421157837,-0.6798731684684753
1761414044705559000,2.42255908203125,-0.9417569041252136,0.5428106188774109,-0.3166017532348633
1761414044715572200,2.432572265625,-0.7825283408164978,0.4287487268447876,0.07700865715742111
1761414044725584100,2.442584228515625,-0.6708362698554993,0.21527722477912903,0.40345364809036255
1761414044735597000,2.45259716796875,-0.5863118171691895,-0.051915593445301056,0.6185536980628967
1761414044745610000,2.46260986328125,-0.5202032923698425,-0.30899327993392944,0.7006513476371765
1761414044755623200,2.472623046875,-0.4469682276248932,-0.5107733011245728,0.6593851447105408
1761414044765635000,2.482635009765625,-0.3547900915145874,-0.6402995586395264,0.5152702331542969
1761414044775648000,2.49264794921875,-0.2518700957298279,-0.664243221282959,0.34169769287109375
1761414044785660000,2.502659912109375,-0.14281803369522095,-0.5994762778282166,0.17972896993160248
1761414044795673000,2.512673095703125,-0.051404230296611786,-0.4949725270271301,0.06379677355289459
1761414044805686000,2.52268603515625,0.007688517682254314,-0.36358311772346497,0.020397383719682693
1761414044815698200,2.5326982421875,0.03713242709636688,-0.2461840808391571,0.06572332233190536
1761414044825711000,2.542711181640625,0.03877349570393562,-0.19747868180274963,0.166781947016716
1761414044835724000,2.55272412109375,0.0028370663058012724,-0.24212604761123657,0.28149813413619995
1761414044845736000,2.56273583984375,-0.06839679181575775,-0.3746112287044525,0.36973193287849426
1761414044855749000,2.5727490234375,-0.1570984274148941,-0.5629235506057739,0.38247063755989075
1761414044865762000,2.582761962890625,-0.2316451072692871,-0.7265264987945557,0.3176061809062958
1761414044875774200,2.592774169921875,-0.28559303283691406,-0.8229875564575195,0.17839795351028442
1761414044885787100,2.602787109375,-0.31440469622612,-0.8253952860832214,0.0030101521406322718
1761414044895800000,2.612800048828125,-0.32028308510780334,-0.7589518427848816,-0.16057105362415314
1761414044905812000,2.62281201171875,-0.30812761187553406,-0.6584194898605347,-0.2851550877094269
1761414044915825200,2.6328251953125,-0.30540189146995544,-0.5991241931915283,-0.37512198090553284
1761414044925837000,2.642837158203125,-0.32490304112434387,-0.5993192195892334,-0.4408450722694397
1761414044935850200,2.652850341796875,-0.3664363622665405,-0.6739820241928101,-0.5158082842826843
1761414044945863000,2.66286279296875,-0.43838050961494446,-0.8485158085823059,-0.63869309425354
1761414044955875000,2.672875,-0.4829719364643097,-1.0076676607131958,-0.7605322003364563
1761414044965888000,2.682887939453125,-0.4531876742839813,-1.0398226976394653,-0.8485549688339233
1761414044975901200,2.692901123046875,-0.3527225852012634,-0.8932318687438965,-0.8666263818740845
1761414044985913000,2.7029130859375,-0.22864332795143127,-0.6079226136207581,-0.7734469771385193
1761414044995926000,2.712926025390625,-0.14297689497470856,-0.5970587730407715,-0.7602342367172241
1761414045005939000,2.72293896484375,-0.23381957411766052,-1.2371410131454468,-1.075608491897583
1761414045015951000,2.732951171875,-0.4229072034358978,-1.9612936973571777,-1.3897395133972168
1761414045025964000,2.742964111328125,-0.5239869952201843,-2.4574978351593018,-1.3607168197631836
1761414045035977200,2.752977294921875,-0.42200469970703125,-2.559748649597168,-0.8212587237358093
1761414045045989000,2.762989013671875,-0.2541429400444031,-2.154459238052368,0.12662257254123688
1761414045056002000,2.773001953125,-0.11039135605096817,-1.7276413440704346,1.0317751169204712
1761414045066015000,2.783014892578125,-0.02680133283138275,-1.3529231548309326,1.5878435373306274
1761414045076027100,2.793027099609375,0.05720595270395279,-1.1398282051086426,1.7713123559951782
1761414045086040000,2.8030400390625,-0.03345479071140289,-0.9000691175460815,1.7925074100494385
1761414045096052700,2.813052734375,-0.21115154027938843,-0.6275984644889832,1.8048007488250732
1761414045106065700,2.823065673828125,-0.34026533365249634,-0.43883800506591797,1.8161360025405884
1761414045116078600,2.83307861328125,-0.34256070852279663,-0.13445600867271423,1.868614912033081
1761414045126090500,2.843090576171875,-0.26820215582847595,0.33756354451179504,1.8744983673095703
1761414045136103700,2.853103759765625,-0.17780087888240814,0.8164723515510559,1.8452333211898804
1761414045146116600,2.86311669921875,-0.14628629386425018,1.08349609375,1.7887790203094482
1761414045156128800,2.873128662109375,-0.18096864223480225,1.0230343341827393,1.6906604766845703
1761414045166141700,2.8831416015625,-0.26168400049209595,0.7606345415115356,1.5534905195236206
1761414045176154600,2.893154541015625,-0.32998529076576233,0.4990370571613312,1.3940763473510742
1761414045186166500,2.90316650390625,-0.34181323647499084,0.36274856328964233,1.201298713684082
1761414045196179700,2.9131796875,-0.3164151906967163,0.38913968205451965,0.97713303565979
1761414045206192600,2.923192626953125,-0.2917711138725281,0.4847889542579651,0.7501300573348999
1761414045216204500,2.93320458984375,-0.2805323004722595,0.542542576789856,0.5363363027572632
1761414045226217700,2.9432177734375,-0.2752046585083008,0.5463634133338928,0.3342795968055725
1761414045236229600,2.953229736328125,-0.25370270013809204,0.5234838128089905,0.12021076679229736
1761414045246242800,2.963242919921875,-0.23370595276355743,0.5217507481575012,-0.14378845691680908
1761414045256255700,2.973255859375,-0.26775819063186646,0.5074846744537354,-0.47588568925857544
1761414045266267600,2.983267578125,-0.3401205837726593,0.497278094291687,-0.8322688341140747
1761414045276280600,2.993280517578125,-0.41648778319358826,0.4729895293712616,-1.1997472047805786
1761414045286293800,3.003293701171875,-0.4693560004234314,0.43088817596435547,-1.5282713174819946
1761414045296305700,3.0133056640625,-0.4655386209487915,0.4562782049179077,-1.7064507007598877
1761414045306318800,3.02331884765625,-0.39814892411231995,0.5500865578651428,-1.6774874925613403
1761414045316331500,3.03333154296875,-0.31520476937294006,0.6861588954925537,-1.4990575313568115
1761414045326343400,3.043343505859375,-0.2329360693693161,0.7702840566635132,-1.2142837047576904
1761414045336356600,3.053356689453125,-0.16532480716705322,0.7517393827438354,-0.8799313902854919
1761414045346369800,3.063369873046875,-0.11232305318117142,0.6220585107803345,-0.5497735738754272
1761414045356381700,3.073381591796875,-0.06776996701955795,0.42573082447052,-0.22812385857105255
1761414045366395000,3.083394775390625,-0.013674777932465076,0.2035551369190216,0.06657570600509644
1761414045376407600,3.093407470703125,0.04420210421085358,-0.013179565779864788,0.29312655329704285
1761414045386419500,3.10341943359375,0.0991159975528717,-0.18683363497257233,0.4256935715675354
1761414045396432600,3.1134326171875,0.1566823571920395,-0.2662384510040283,0.4456545114517212
1761414045406444500,3.123444580078125,0.23588773608207703,-0.20409154891967773,0.37839576601982117
1761414045416457700,3.133457763671875,0.3263950049877167,-0.042788680642843246,0.25626346468925476
1761414045426470700,3.143470703125,0.409233957529068,0.18184629082679749,0.14039623737335205
1761414045436482600,3.153482666015625,0.4645693898200989,0.4054788649082184,0.059660378843545914
1761414045446495500,3.16349560546875,0.48542359471321106,0.5413607358932495,0.00977302435785532
1761414045456508700,3.1735087890625,0.47027474641799927,0.6087381839752197,0.004757227376103401
1761414045466520600,3.1835205078125,0.45600566267967224,0.6330664753913879,0.030043456703424454
1761414045476533800,3.19353369140625,0.4414525628089905,0.599149227142334,0.044904161244630814
1761414045486546700,3.203546630859375,0.423490434885025,0.5059827566146851,0.030209431424736977
1761414045496558600,3.21355859375,0.40826675295829773,0.38139259815216064,-0.017889123409986496
1761414045506571500,3.223571533203125,0.3946279287338257,0.3289584219455719,-0.08466687053442001
1761414045516584700,3.233584716796875,0.3993348181247711,0.36932235956192017,-0.15145549178123474
1761414045526596600,3.2435966796875,0.4317741096019745,0.48451492190361023,-0.20693475008010864
1761414045536609500,3.253609619140625,0.47398841381073,0.640353798866272,-0.24922095239162445
1761414045546622700,3.263622802734375,0.4918743669986725,0.7214488983154297,-0.32183128595352173
1761414045556634600,3.273634521484375,0.48227447271347046,0.6555619835853577,-0.4568847119808197
1761414045566647600,3.2836474609375,0.4656190574169159,0.5138300061225891,-0.5953299403190613
1761414045576659700,3.29365966796875,0.44754737615585327,0.34294188022613525,-0.6981977224349976
1761414045586672600,3.303672607421875,0.4411153495311737,0.1540105938911438,-0.7825132608413696
1761414045596685600,3.313685546875,0.4661296308040619,-0.09726583957672119,-0.8704028725624084
1761414045606697500,3.323697509765625,0.5103586316108704,-0.38136380910873413,-0.9559874534606934
1761414045616710700,3.333710693359375,0.549011766910553,-0.527368426322937,-0.9951332211494446
1761414045626723600,3.3437236328125,0.515975832939148,-0.3749805986881256,-1.0083540678024292
1761414045636735700,3.35373583984375,0.389807790517807,-0.022341575473546982,-1.01034414768219
1761414045646748400,3.36374853515625,0.22133637964725494,0.3725345730781555,-0.9948691725730896
1761414045656761600,3.37376171875,0.12569427490234375,0.6064296364784241,-0.9581588506698608
1761414045666773500,3.3837734375,0.1765204519033432,0.5803254246711731,-0.8915395736694336
1761414045676786700,3.39378662109375,0.3532307744026184,0.4423356056213379,-0.8567789196968079
1761414045686799600,3.403799560546875,0.6188137531280518,0.24911189079284668,-0.8442654013633728
1761414045696811800,3.413811767578125,0.9392261505126953,0.12134245783090591,-0.7101145386695862
1761414045706824400,3.423824462890625,1.2789103984832764,0.036035217344760895,-0.38674265146255493
1761414045716837600,3.433837646484375,1.5325642824172974,0.055890947580337524,0.10339029878377914
1761414045726849500,3.443849609375,1.6603190898895264,0.18674182891845703,0.7643938660621643
1761414045736862700,3.45386279296875,1.6515623331069946,0.3162241578102112,1.4217957258224487
1761414045746874600,3.46387451171875,1.435372233390808,0.479520320892334,2.057943344116211
1761414045756887600,3.473887451171875,1.1903148889541626,0.6159753203392029,2.6225523948669434
1761414045766900500,3.483900390625,1.009929895401001,0.630416989326477,2.9337594509124756
1761414045776912600,3.49391259765625,0.8534393310546875,0.5641865730285645,3.0407588481903076
1761414045786925600,3.503925537109375,0.7201951742172241,0.502104640007019,2.9333839416503906
1761414045796938800,3.513938720703125,0.547167181968689,0.5307610630989075,2.634622097015381
1761414045806950700,3.52395068359375,0.3306970000267029,0.5822907090187073,2.2066092491149902
1761414045816963600,3.533963623046875,0.14603714644908905,0.6033600568771362,1.7630969285964966
1761414045826976500,3.5439765625,0.05288444086909294,0.6208016276359558,1.3733657598495483
1761414045836988700,3.55398876953125,0.016434021294116974,0.6562362909317017,1.0890954732894897
1761414045847001600,3.564001708984375,-0.050523631274700165,0.7265011668205261,0.913750171661377
1761414045857014800,3.574014892578125,-0.16326189041137695,0.7594252824783325,0.7943763732910156
1761414045867026700,3.584026611328125,-0.27965375781059265,0.6901463270187378,0.6343624591827393
1761414045877039600,3.59403955078125,-0.378099650144577,0.5447350740432739,0.3764180541038513
1761414045887051500,3.604051513671875,-0.43314608931541443,0.384859561920166,0.04901426285505295
1761414045897064700,3.614064697265625,-0.46129196882247925,0.22712959349155426,-0.2987394630908966
1761414045907077600,3.62407763671875,-0.4917447865009308,0.055540308356285095,-0.6738771200180054
1761414045917089800,3.63408984375,-0.5073724389076233,-0.05087454617023468,-1.0553020238876343
1761414045927102500,3.6441025390625,-0.47131192684173584,0.004056762903928757,-1.3213342428207397
1761414045937115600,3.65411572265625,-0.3809799253940582,0.07861435413360596,-1.441636085510254
1761414045947127600,3.66412744140625,-0.2710934579372406,0.10562806576490402,-1.4097400903701782
1761414045957140700,3.674140625,-0.154637411236763,0.06576107442378998,-1.2202351093292236
1761414045967153700,3.684153564453125,-0.07290563732385635,-0.03413039445877075,-0.9341480731964111
1761414045977165800,3.694165771484375,-0.022979088127613068,-0.150671124458313,-0.635443389415741
1761414045987178500,3.704178466796875,0.022703390568494797,-0.2298326939344406,-0.3877998888492584
1761414045997191700,3.714191650390625,0.06835689395666122,-0.2597072422504425,-0.2259473353624344
1761414046007203600,3.72420361328125,0.11394656449556351,-0.2314639687538147,-0.16378985345363617
1761414046017216800,3.734216796875,0.1645095944404602,-0.14557009935379028,-0.17985324561595917
1761414046027228700,3.744228759765625,0.20423081517219543,-0.023350894451141357,-0.25715234875679016
1761414046037241600,3.75424169921875,0.24760597944259644,0.1366821825504303,-0.3507193326950073
1761414046047254500,3.764254638671875,0.2996877133846283,0.2586904764175415,-0.411624550819397
1761414046057266700,3.7742666015625,0.3264668583869934,0.2830405533313751,-0.4132930040359497
1761414046067279600,3.784279541015625,0.320407509803772,0.18693150579929352,-0.3536803126335144
1761414046077292800,3.794292724609375,0.30355051159858704,-0.007444617338478565,-0.2384791523218155
1761414046087304700,3.8043046875,0.2938383221626282,-0.22377926111221313,-0.10447227954864502
1761414046097317400,3.8143173828125,0.2915474772453308,-0.4191175699234009,0.013443706557154655
1761414046107330600,3.82433056640625,0.3192322254180908,-0.5349394679069519,0.08293521404266357
1761414046117342500,3.834342529296875,0.402000367641449,-0.5460919737815857,0.10708369314670563
1761414046127355600,3.844355712890625,0.468809574842453,-0.5130090713500977,0.06258256733417511
1761414046137368300,3.854368408203125,0.5014767646789551,-0.47383320331573486,-0.05074426159262657
1761414046147380500,3.86438037109375,0.5007960200309753,-0.45546698570251465,-0.1980457901954651
1761414046157393400,3.874393310546875,0.4832875430583954,-0.4854104816913605,-0.36916878819465637
1761414046167405300,3.8844052734375,0.4825463593006134,-0.540236234664917,-0.524158775806427
1761414046177418500,3.89441845703125,0.5372589230537415,-0.6515220403671265,-0.6210773587226868
1761414046187431700,3.904431640625,0.6412469148635864,-0.7861639261245728,-0.6621618270874023
1761414046197443600,3.914443603515625,0.7441956400871277,-0.9076157808303833,-0.6299104690551758
1761414046207456500,3.92445654296875,0.7852473258972168,-0.9369446039199829,-0.483557790517807
1761414046217469400,3.934469482421875,0.7326192855834961,-0.9220048189163208,-0.26753920316696167
1761414046227481300,3.9444814453125,0.6320908069610596,-0.9652180075645447,-0.050114523619413376
1761414046237494500,3.95449462890625,0.5171871185302734,-0.9409976005554199,0.14029429852962494
1761414046247507500,3.964507568359375,0.37913528084754944,-0.7428684234619141,0.2873835265636444
1761414046257519400,3.974519287109375,0.24158383905887604,-0.4140138030052185,0.3535846471786499
1761414046267532500,3.984532470703125,0.10953586548566818,-0.014450951479375362,0.32425379753112793
1761414046277545500,3.99454541015625,0.0153995081782341,0.4447416663169861,0.23353029787540436
1761414046287557400,4.004557373046875,0.01358813140541315,0.9501855969429016,0.19237200915813446
1761414046297570600,4.014570556640625,0.05443036928772926,1.3013817071914673,0.2019876092672348
1761414046307582500,4.02458251953125,0.12752147018909454,1.2640305757522583,0.18993151187896729
1761414046317595400,4.034595458984375,0.15365001559257507,0.8089553117752075,0.09833953529596329
1761414046327608600,4.044608642578125,0.12511399388313293,0.06227763742208481,-0.0843067467212677
1761414046337620500,4.054620361328125,0.06316673755645752,-0.6427404284477234,-0.29092836380004883
1761414046347633400,4.06463330078125,0.03075926937162876,-0.9433435797691345,-0.4448607265949249
1761414046357646600,4.074646484375,0.07396852970123291,-0.7353269457817078,-0.507658064365387
1761414046367658500,4.084658447265625,0.11738382279872894,-0.2089013159275055,-0.4254996180534363
1761414046377671400,4.09467138671875,0.060227859765291214,0.30174705386161804,-0.32790887355804443
1761414046387684600,4.1046845703125,-0.09487339109182358,0.7917879819869995,-0.18670202791690826
1761414046397696500,4.114696533203125,-0.23321421444416046,1.2702183723449707,0.038916442543268204
1761414046407709400,4.12470947265625,-0.27300727367401123,1.562800645828247,0.2224598526954651
1761414046417722400,4.134722412109375,-0.23581677675247192,1.5095278024673462,0.27268120646476746
1761414046427734300,4.144734375,-0.17757682502269745,1.2418365478515625,0.15559816360473633
1761414046437747500,4.15474755859375,-0.11880619078874588,1.0226693153381348,-0.08642539381980896
1761414046447760600,4.1647607421875,-0.0772850513458252,0.921032190322876,-0.33593177795410156
1761414046457772500,4.1747724609375,-0.034422002732753754,0.8503303527832031,-0.5184973478317261
1761414046467785500,4.184785400390625,0.055798619985580444,0.6773139238357544,-0.6662759780883789
1761414046477797600,4.194797607421875,0.17298384010791779,0.40169671177864075,-0.8162582516670227
1761414046487810300,4.204810302734375,0.26504015922546387,0.15658976137638092,-0.9479756951332092
1761414046497823500,4.214823486328125,0.272537499666214,-0.016270702704787254,-1.0663038492202759
1761414046507835400,4.22483544921875,0.16080468893051147,-0.02712918445467949,-1.2021777629852295
1761414046517848600,4.2348486328125,0.01530501525849104,0.15857437252998352,-1.2674551010131836
1761414046527861500,4.244861572265625,-0.09148433804512024,0.36824169754981995,-1.3234670162200928
1761414046537873400,4.254873291015625,-0.13635754585266113,0.5376346707344055,-1.3857815265655518
1761414046547886300,4.26488623046875,-0.11904186755418777,0.6689074039459229,-1.3599584102630615
1761414046557899500,4.2748994140625,-0.03868045657873154,0.7450700402259827,-1.1234248876571655
1761414046567911400,4.284911376953125,0.06921415776014328,0.7323547005653381,-0.7062105536460876
1761414046577924600,4.294924560546875,0.15755121409893036,0.6161511540412903,-0.23247206211090088
1761414046587937500,4.3049375,0.20914585888385773,0.4571637213230133,0.2099633514881134
1761414046597949400,4.314949462890625,0.2464335709810257,0.2681988477706909,0.541329026222229
1761414046607962400,4.32496240234375,0.2696308493614197,0.09428316354751587,0.7528688311576843
1761414046617974500,4.334974609375,0.2579222619533539,-0.09803168475627899,0.8451495170593262
1761414046627987500,4.344987548828125,0.21077404916286469,-0.3755086362361908,0.8242878913879395
1761414046638000400,4.35500048828125,0.13462363183498383,-0.7109652161598206,0.6830495595932007
1761414046648012300,4.36501220703125,0.07029545307159424,-1.00762939453125,0.49689361453056335
1761414046658025500,4.375025390625,0.03976152092218399,-1.1327955722808838,0.3839590549468994
1761414046668038400,4.385038330078125,0.0442894846200943,-1.0472705364227295,0.35019269585609436
1761414046678050600,4.395050537109375,0.10248914361000061,-0.8174372315406799,0.3495463728904724
1761414046688063500,4.4050634765625,0.18935874104499817,-0.5400739312171936,0.34115806221961975
1761414046698076400,4.415076416015625,0.2564490735530853,-0.3129344880580902,0.2904498875141144
1761414046708088300,4.42508837890625,0.27781134843826294,-0.1495337337255478,0.19360141456127167
1761414046718101500,4.4351015625,0.27423205971717834,-0.052150458097457886,0.08898711204528809
1761414046728113400,4.445113525390625,0.23308691382408142,-0.0655471459031105,-0.003420597407966852
1761414046738126600,4.455126708984375,0.1558224856853485,-0.1926259994506836,-0.08544356375932693
1761414046748139300,4.46513916015625,0.06191140040755272,-0.33922532200813293,-0.14729836583137512
1761414046758151400,4.4751513671875,-0.014329575933516026,-0.4352908432483673,-0.1550135463476181
1761414046768164400,4.485164306640625,-0.06439051032066345,-0.4635704755783081,-0.10563767701387405
1761414046778177500,4.495177490234375,-0.09048149734735489,-0.4021311104297638,-0.033721674233675
1761414046788189400,4.505189453125,-0.09259721636772156,-0.20975278317928314,0.04443112388253212
1761414046798202600,4.51520263671875,-0.016705647110939026,0.11288517713546753,0.13296738266944885
1761414046808215300,4.52521533203125,0.12730157375335693,0.40473076701164246,0.21725644171237946
1761414046818227500,4.5352275390625,0.3226785361766815,0.5909914374351501,0.2944849133491516
1761414046828240400,4.545240478515625,0.5110483765602112,0.6198262572288513,0.2371586561203003
1761414046838253600,4.555253662109375,0.6600655317306519,0.5785709619522095,0.010252278298139572
1761414046848265500,4.565265380859375,0.778454601764679,0.5946757793426514,-0.3610076606273651
1761414046858278400,4.5752783203125,0.8410050868988037,0.646705687046051,-0.7921289801597595
1761414046868290300,4.585290283203125,0.7834435105323792,0.49265938997268677,-1.1947134733200073
1761414046878303500,4.595303466796875,0.4833536744117737,0.03927406668663025,-1.511186957359314
1761414046888316400,4.60531640625,-0.021956199780106544,-0.4242415726184845,-1.6460665464401245
1761414046898328600,4.61532861328125,-0.5958147048950195,-0.8196397423744202,-1.742245078086853
1761414046908341500,4.625341552734375,-0.9280567169189453,-0.8144837021827698,-1.8871054649353027
1761414046918354400,4.6353544921875,-1.021159291267395,-0.43649914860725403,-2.054497241973877
1761414046928366300,4.645366455078125,-0.9421989321708679,0.3641003370285034,-1.9149844646453857
1761414046938379500,4.655379638671875,-0.5808316469192505,1.0833373069763184,-1.4360345602035522
1761414046948392400,4.665392333984375,-0.19255749881267548,1.8057739734649658,-0.6420838832855225
1761414046958404600,4.675404541015625,0.19460433721542358,2.183812141418457,0.3053348660469055
1761414046968417300,4.685417236328125,0.5009500980377197,1.9749614000320435,1.1914818286895752
1761414046978430500,4.695430419921875,0.5394735336303711,1.1751432418823242,1.748669981956482
1761414046988442400,4.7054423828125,0.296980619430542,0.13469646871089935,1.9416953325271606
1761414046998455600,4.71545556640625,0.04278774559497833,-0.658011257648468,1.8800476789474487
1761414047008467500,4.725467529296875,-0.10879570245742798,-1.0747568607330322,1.6696908473968506
1761414047018480600,4.735480712890625,-0.2270539104938507,-1.02890145778656,1.3502856492996216
1761414047028493300,4.745493408203125,-0.30549517273902893,-0.6639208197593689,1.0157066583633423
1761414047038505500,4.75550537109375,-0.4105672836303711,-0.15503789484500885,0.7481215000152588
1761414047048518400,4.765518310546875,-0.5319563746452332,0.41622620820999146,0.5763240456581116
1761414047058531600,4.775531494140625,-0.556324303150177,0.8252089023590088,0.4591156840324402
1761414047068543500,4.78554345703125,-0.4777185022830963,0.9205303192138672,0.2716653048992157
1761414047078556400,4.795556396484375,-0.38440561294555664,0.6601690649986267,-0.010516324080526829
1761414047088569300,4.8055693359375,-0.37235361337661743,0.12105674296617508,-0.32190749049186707
1761414047098581500,4.81558154296875,-0.4415720999240875,-0.49788957834243774,-0.5827065706253052
1761414047108594400,4.825594482421875,-0.5535643100738525,-1.0126599073410034,-0.7484590411186218
1761414047118607600,4.835607666015625,-0.6876938939094543,-1.3494882583618164,-0.7948803305625916
1761414047128619500,4.84561962890625,-0.8407954573631287,-1.4939336776733398,-0.747657835483551
1761414047138632400,4.855632568359375,-1.0166234970092773,-1.544071912765503,-0.6786582469940186
1761414047148644400,4.865644287109375,-1.2086199522018433,-1.563977599143982,-0.6673181653022766
1761414047158657500,4.875657470703125,-1.381312608718872,-1.5684473514556885,-0.7204511165618896
1761414047168670500,4.88567041015625,-1.5361661911010742,-1.5355948209762573,-0.8050101399421692
1761414047178682600,4.8956826171875,-1.6740175485610962,-1.4634183645248413,-0.8838769793510437
1761414047188695600,4.905695556640625,-1.8028875589370728,-1.3980392217636108,-0.9143378734588623
1761414047198708500,4.91570849609375,-1.9403105974197388,-1.3388049602508545,-0.8707195520401001
1761414047208720400,4.925720458984375,-2.0436158180236816,-1.2340633869171143,-0.754892110824585
1761414047218733600,4.935733642578125,-2.126490592956543,-1.0793499946594238,-0.6355870366096497
1761414047228746500,4.94574658203125,-2.1084463596343994,-0.8307351469993591,-0.49343687295913696
1761414047238758700,4.955758544921875,-2.070558547973633,-0.636713445186615,-0.3375314176082611
1761414047248771300,4.965771240234375,-2.0376875400543213,-0.49667438864707947,-0.20000101625919342
1761414047258783500,4.975783447265625,-1.9978967905044556,-0.3497573733329773,-0.07998300343751907
1761414047268796400,4.98579638671875,-1.927988886833191,-0.18473674356937408,0.019917629659175873
1761414047278809600,4.9958095703125,-1.8183766603469849,-0.026137515902519226,0.10379122942686081
1761414047288821500,5.005821533203125,-1.6847007274627686,0.07479823380708694,0.19567476212978363
1761414047298834700,5.015834716796875,-1.5434746742248535,0.09826308488845825,0.28645312786102295
1761414047308847400,5.025847412109375,-1.3751866817474365,0.044337183237075806,0.36476930975914
1761414047318859500,5.035859619140625,-1.1846553087234497,-0.05552656203508377,0.4091133177280426
1761414047328872400,5.04587255859375,-0.9926087856292725,-0.16525991261005402,0.41781944036483765
1761414047338885600,5.0558857421875,-0.8219555616378784,-0.25066855549812317,0.39240676164627075
1761414047348897500,5.0658974609375,-0.669743537902832,-0.33966970443725586,0.3549453020095825
1761414047358910500,5.075910400390625,-0.5296745300292969,-0.38700366020202637,0.3266446888446808
1761414047368923400,5.08592333984375,-0.4081737995147705,-0.3851894736289978,0.30769655108451843
1761414047378935600,5.095935546875,-0.3353387415409088,-0.35481587052345276,0.3023260235786438
1761414047388948500,5.105948486328125,-0.30524158477783203,-0.3164200186729431,0.3682957887649536
1761414047398960600,5.115960693359375,-0.2866644263267517,-0.10833152383565903,0.46228379011154175
1761414047408973600,5.1259736328125,-0.21231116354465485,-0.21199534833431244,0.40066659450531006
1761414047418986500,5.135986572265625,-0.09957875311374664,-0.7460079193115234,0.1642332822084427
1761414047428998400,5.145998291015625,-0.02240992896258831,-1.1782870292663574,0.0878857746720314
1761414047439011600,5.156011474609375,0.017629632726311684,-1.2590328454971313,0.1865130215883255
1761414047449024500,5.1660244140625,0.03034856542944908,-1.0935747623443604,0.3045724034309387
1761414047459036700,5.17603662109375,0.03556516766548157,-0.7407629489898682,0.4107547700405121
1761414047469049300,5.18604931640625,0.0652565136551857,-0.30665743350982666,0.5689510107040405
1761414047479062500,5.1960625,0.13192981481552124,0.13403528928756714,0.8093627691268921
1761414047489074400,5.206074462890625,0.25705406069755554,0.525372326374054,1.1124930381774902
1761414047499087600,5.216087646484375,0.4190637171268463,0.9600763916969299,1.4636375904083252
1761414047509100500,5.2261005859375,0.4941984713077545,1.293628215789795,1.6740615367889404
1761414047519112700,5.23611279296875,0.6402286887168884,1.0541316270828247,1.4933013916015625
1761414047529125400,5.24612548828125,0.7267168760299683,-0.021230267360806465,0.926891028881073
1761414047539137500,5.256137451171875,0.5545579195022583,-0.830083429813385,0.2972547113895416
1761414047549150500,5.266150390625,0.34449124336242676,-0.7259722948074341,-0.04472257196903229
1761414047559163600,5.27616357421875,0.2838164269924164,-0.04031885415315628,-0.0917167142033577
1761414047569175600,5.286175537109375,0.2910652756690979,0.7760223746299744,-0.03118995390832424
1761414047579188500,5.2961884765625,0.3197014629840851,1.5393404960632324,-0.030001118779182434
1761414047589201400,5.306201416015625,0.4201650619506836,2.0555105209350586,-0.08791209757328033
1761414047599213600,5.316213623046875,0.5716975927352905,2.2169697284698486,-0.14631469547748566
1761414047609226500,5.3262265625,0.6626707911491394,2.068480968475342,-0.18253982067108154
1761414047619239700,5.33623974609375,0.6556206345558167,1.5849487781524658,-0.22762474417686462
1761414047629251600,5.34625146484375,0.6158396601676941,0.9294384717941284,-0.27903228998184204
1761414047639264500,5.356264404296875,0.6222307085990906,0.3328390121459961,-0.28314900398254395
1761414047649277400,5.36627734375,0.655726432800293,-0.03544481843709946,-0.23203594982624054
1761414047659289600,5.37628955078125,0.7082916498184204,-0.06561817228794098,-0.12583734095096588
1761414047669302500,5.386302490234375,0.7851064801216125,0.128805473446846,-0.026948191225528717
1761414047679314700,5.396314697265625,0.8784095644950867,0.2266971468925476,-0.02661050297319889
1761414047689327400,5.406327392578125,0.8944997787475586,0.14988012611865997,-0.13769671320915222
1761414047699340500,5.416340576171875,0.8033062219619751,-0.002451365813612938,-0.293791264295578
1761414047709352400,5.4263525390625,0.6179277300834656,-0.13462024927139282,-0.4567735195159912
1761414047719365600,5.43636572265625,0.41860339045524597,-0.3247978985309601,-0.5908501148223877
1761414047729378600,5.446378662109375,0.2868294417858124,-0.5343473553657532,-0.6357894539833069
1761414047739390700,5.456390625,0.2281445562839508,-0.6820145845413208,-0.5693123936653137
1761414047749403400,5.4664033203125,0.2295415997505188,-0.6853795051574707,-0.38210514187812805
1761414047759416600,5.47641650390625,0.27498871088027954,-0.5457646250724792,-0.09798713773488998
1761414047769428500,5.486428466796875,0.3150509297847748,-0.33256596326828003,0.20820340514183044
1761414047779441700,5.496441650390625,0.30903539061546326,-0.12419305741786957,0.4421570301055908
1761414047789453600,5.50645361328125,0.2617645263671875,0.03398220241069794,0.5635297894477844
1761414047799466500,5.516466552734375,0.17674534022808075,0.1691974550485611,0.5564517378807068
1761414047809479400,5.5264794921875,0.056359853595495224,0.28991177678108215,0.41737526655197144
1761414047819491600,5.53649169921875,-0.08767055720090866,0.3764759600162506,0.17450720071792603
1761414047829504500,5.54650439453125,-0.22135987877845764,0.4029904305934906,-0.12896136939525604
1761414047839517700,5.556517578125,-0.3188427686691284,0.4411434233188629,-0.4222574234008789
1761414047849529600,5.566529541015625,-0.355225145816803,0.5368037223815918,-0.6470679044723511
1761414047859542500,5.57654248046875,-0.3459749221801758,0.6485850811004639,-0.7939934730529785
1761414047869555500,5.586555419921875,-0.3001379668712616,0.65766441822052,-0.8456024527549744
1761414047879567600,5.596567626953125,-0.25348737835884094,0.665270984172821,-0.7895852327346802
1761414047889580500,5.60658056640625,-0.19923372566699982,0.6722366213798523,-0.6422104835510254
1761414047899592400,5.616592529296875,-0.16803665459156036,0.649088442325592,-0.45173215866088867
1761414047909605400,5.62660546875,-0.18213069438934326,0.5837200284004211,-0.28649619221687317
1761414047919618600,5.63661865234375,-0.15507377684116364,0.44216153025627136,-0.09210672974586487
1761414047929630500,5.64663037109375,-0.07875386625528336,0.2916076183319092,0.11719808727502823
1761414047939643600,5.6566435546875,0.005056340247392654,0.19362032413482666,0.34262481331825256
1761414047949656600,5.666656494140625,0.05130491033196449,0.16072611510753632,0.5564998388290405
1761414047959668700,5.676668701171875,0.038977134972810745,0.165680393576622,0.7134039402008057
1761414047969681400,5.686681396484375,0.011367402970790863,0.1457798182964325,0.8212139010429382
1761414047979694600,5.696694580078125,-0.039774879813194275,0.07123128324747086,0.8775778412818909
1761414047989706500,5.70670654296875,-0.11957016587257385,-0.0526341050863266,0.9126741886138916
1761414047999719700,5.7167197265625,-0.220333531498909,-0.1756708025932312,0.9420675039291382
1761414048009731600,5.726731689453125,-0.32287323474884033,-0.2906460165977478,0.965226948261261
1761414048019744500,5.73674462890625,-0.4076794683933258,-0.3921896815299988,0.9756321907043457
1761414048029757400,5.74675732421875,-0.4793981611728668,-0.4751458168029785,0.9647883772850037
1761414048039769300,5.756769287109375,-0.5284629464149475,-0.5268442034721375,0.930319607257843
1761414048049782500,5.766782470703125,-0.5532938838005066,-0.5258728265762329,0.8824530243873596
1761414048059795700,5.776795654296875,-0.5521641373634338,-0.4892120659351349,0.8038061857223511
1761414048069807600,5.7868076171875,-0.5311065316200256,-0.42808666825294495,0.7062207460403442
1761414048079820500,5.796820556640625,-0.5151427388191223,-0.4243193566799164,0.576310932636261
1761414048089833500,5.80683349609375,-0.5364221930503845,-0.5738734006881714,0.39301779866218567
1761414048099845400,5.816845458984375,-0.5977084636688232,-0.7824066281318665,0.21895545721054077
1761414048109858300,5.8268583984375,-0.6760966181755066,-0.7987284660339355,0.11084619164466858
1761414048119871500,5.83687158203125,-0.6860275268554688,-0.52463299036026,0.11684150248765945
1761414048129883400,5.84688330078125,-0.537889838218689,0.03217789903283119,0.2525230050086975
1761414048139896300,5.856896240234375,-0.2550208568572998,0.5024697780609131,0.4212190806865692
1761414048149908200,5.866908203125,-0.11313904821872711,0.38415420055389404,0.34468695521354675
1761414048159921400,5.87692138671875,-0.27005064487457275,-0.14882874488830566,-0.0029839281924068928
1761414048169934300,5.886934326171875,-0.55762779712677,-0.937150776386261,-0.44132059812545776
1761414048179946500,5.896946533203125,-0.6941587328910828,-1.4636577367782593,-0.6489205956459045
1761414048189959200,5.906959228515625,-0.6185188889503479,-1.3918575048446655,-0.5023787617683411
1761414048199972400,5.916972412109375,-0.5374541282653809,-0.928361713886261,-0.1404096782207489
1761414048209984300,5.926984375,-0.5755229592323303,-0.4434053897857666,0.16053418815135956
1761414048219997400,5.93699755859375,-0.6734138131141663,-0.32521724700927734,0.11783678829669952
1761414048230010400,5.94701025390625,-0.7101606130599976,-0.5761178731918335,-0.28276053071022034
1761414048240022500,5.9570224609375,-0.6953712701797485,-0.9663934707641602,-0.8925828337669373
1761414048250035200,5.96703515625,-0.6773086786270142,-1.2938334941864014,-1.4875537157058716
1761414048260047400,5.97704736328125,-0.6004501581192017,-1.4466296434402466,-1.8515599966049194
1761414048270060300,5.987060302734375,-0.4452357590198517,-1.3956915140151978,-1.908478856086731
1761414048280073500,5.997073486328125,-0.32598817348480225,-1.133426547050476,-1.7348661422729492
1761414048290085400,6.00708544921875,-0.09923487901687622,-0.9604166746139526,-1.3639163970947266
1761414048300098300,6.017098388671875,0.21801844239234924,-0.8390793204307556,-0.8673588037490845
1761414048310111200,6.027111328125,0.47729936242103577,-0.6974098086357117,-0.38864192366600037
1761414048320123400,6.037123291015625,0.5335032343864441,-0.6047645807266235,-0.04290582239627838
1761414048330136300,6.04713623046875,0.41403746604919434,-0.5906744599342346,0.19034846127033234
1761414048340149500,6.0571494140625,0.185992032289505,-0.5545622706413269,0.3149646818637848
1761414048350161400,6.067161376953125,-0.047645531594753265,-0.4422418475151062,0.35613566637039185
1761414048360174300,6.07717431640625,-0.21553707122802734,-0.23288998007774353,0.3329363167285919
1761414048370187300,6.087187255859375,-0.29579219222068787,0.031634360551834106,0.271818071603775
1761414048380199400,6.097199462890625,-0.3166508674621582,0.30650216341018677,0.18215128779411316
1761414048390212400,6.10721240234375,-0.3124128580093384,0.5486901998519897,0.058103613555431366
1761414048400224500,6.117224609375,-0.30593177676200867,0.747266411781311,-0.07537961006164551
1761414048410237400,6.127237548828125,-0.31455159187316895,0.9013541340827942,-0.2029794454574585
1761414048420250400,6.13725048828125,-0.33643612265586853,0.9904957413673401,-0.3224771022796631
1761414048430262300,6.14726220703125,-0.37197497487068176,0.9852069616317749,-0.4390033483505249
1761414048440275500,6.157275390625,-0.4029137194156647,0.9113306403160095,-0.5370748043060303
1761414048450288400,6.167288330078125,-0.4235617220401764,0.8241139054298401,-0.6063193678855896
1761414048460300500,6.177300537109375,-0.413013219833374,0.7618348598480225,-0.6235257983207703
1761414048470313200,6.187313232421875,-0.3705330193042755,0.7471331357955933,-0.5865411162376404
1761414048480326400,6.197326416015625,-0.31874600052833557,0.7663116455078125,-0.5259147882461548
1761414048490338300,6.20733837890625,-0.26553741097450256,0.7809338569641113,-0.4752747118473053
1761414048500351500,6.2173515625,-0.2287314534187317,0.773404598236084,-0.4665246307849884
1761414048510363400,6.22736328125,-0.20823445916175842,0.7717143893241882,-0.5209688544273376
1761414048520376300,6.237376220703125,-0.18265001475811005,0.7956421375274658,-0.6052579283714294
1761414048530389200,6.24738916015625,-0.1218433603644371,0.8735567331314087,-0.678358256816864
1761414048540401400,6.2574013671875,-0.05160994082689285,1.0425729751586914,-0.7244623899459839
1761414048550414300,6.267414306640625,0.022958116605877876,1.2584928274154663,-0.7255310416221619
1761414048560427500,6.277427490234375,0.10344230383634567,1.4759314060211182,-0.6939947009086609
1761414048570439400,6.287439453125,0.16467337310314178,1.685566782951355,-0.6181027293205261
1761414048580452400,6.297452392578125,0.20961607992649078,1.8703019618988037,-0.48377475142478943
1761414048590465300,6.30746533203125,0.2299569994211197,2.0131561756134033,-0.31933698058128357
1761414048600477400,6.3174775390625,0.23590810596942902,2.066681146621704,-0.14163915812969208
1761414048610490400,6.327490478515625,0.2210853099822998,2.001788377761841,0.045473262667655945
1761414048620502300,6.337502197265625,0.17772746086120605,1.8494120836257935,0.21813958883285522
1761414048630515500,6.347515380859375,0.14411066472530365,1.6394819021224976,0.37506335973739624
1761414048640528400,6.3575283203125,0.12595510482788086,1.3545308113098145,0.5330476760864258
1761414048650540300,6.367540283203125,0.1289799064397812,1.029666781425476,0.7031251192092896
1761414048660553500,6.377553466796875,0.12924036383628845,0.7130097150802612,0.907578706741333
1761414048670566400,6.38756640625,0.11035655438899994,0.4453445374965668,1.1514904499053955
1761414048680578600,6.39757861328125,0.07288800925016403,0.234794482588768,1.389200210571289
1761414048690591200,6.40759130859375,0.03224850073456764,0.051408857107162476,1.5856257677078247
1761414048700604400,6.4176044921875,-0.00441710464656353,-0.1716146320104599,1.6915273666381836
1761414048710616300,6.4276162109375,-0.06011398881673813,-0.4673883020877838,1.6702524423599243
1761414048720629500,6.43762939453125,-0.17075662314891815,-0.8341335654258728,1.502521276473999
1761414048730641400,6.447641357421875,-0.32877877354621887,-1.248340129852295,1.2422480583190918
1761414048740654600,6.457654541015625,-0.5256145596504211,-1.5593103170394897,0.958975613117218
1761414048750667300,6.467667236328125,-0.740814208984375,-1.719024896621704,0.692908525466919
1761414048760679200,6.47767919921875,-0.9026414752006531,-1.607473611831665,0.508280336856842
1761414048770692400,6.4876923828125,-0.9013314247131348,-1.1889761686325073,0.4726541042327881
1761414048780705500,6.49770556640625,-0.7066295742988586,-0.6786998510360718,0.5656575560569763
1761414048790717400,6.507717529296875,-0.45571011304855347,-0.5228017568588257,0.6199284195899963
1761414048800730400,6.51773046875,-0.3432578444480896,-0.6003444790840149,0.5774807929992676
1761414048810743300,6.527743408203125,-0.39565718173980713,-0.6318241357803345,0.47794070839881897
1761414048820755200,6.537755126953125,-0.5235843062400818,-0.8028368949890137,0.28615397214889526
1761414048830768400,6.547768310546875,-0.6610509157180786,-1.049654483795166,0.052447788417339325
1761414048840780300,6.5577802734375,-0.7777559757232666,-1.0292949676513672,-0.14455902576446533
1761414048850793500,6.56779345703125,-0.841465950012207,-0.6135759949684143,-0.27656102180480957
1761414048860806400,6.577806396484375,-0.784827709197998,-0.033316049724817276,-0.42171555757522583
1761414048870818300,6.587818359375,-0.6085342168807983,0.32642465829849243,-0.6833516359329224
1761414048880831200,6.597831298828125,-0.37784960865974426,0.4365828335285187,-1.023208498954773
1761414048890844400,6.607844482421875,-0.16962452232837677,0.41727545857429504,-1.330580711364746
1761414048900856300,6.617856201171875,-0.0843578353524208,0.2530423104763031,-1.5625804662704468
1761414048910869200,6.627869140625,-0.11486110091209412,-0.053388938307762146,-1.6115970611572266
1761414048920882400,6.63788232421875,-0.13067814707756042,-0.30064135789871216,-1.4087320566177368
1761414048930894300,6.647894287109375,-0.040768690407276154,-0.3437878489494324,-0.9724153280258179
1761414048940907300,6.6579072265625,0.17468716204166412,-0.19765512645244598,-0.37496712803840637
1761414048950919400,6.66791943359375,0.4353114664554596,-0.06171653792262077,0.24869321286678314
1761414048960932400,6.677932373046875,0.6102936863899231,-0.03980777785181999,0.7525228261947632
1761414048970945300,6.6879453125,0.6568368673324585,-0.1103321835398674,1.0819597244262695
1761414048980957200,6.697957275390625,0.5936235189437866,-0.28437376022338867,1.2354313135147095
1761414048990970400,6.707970458984375,0.47460103034973145,-0.476420134305954,1.22389817237854
1761414049000983300,6.7179833984375,0.35524505376815796,-0.6137242317199707,1.0810145139694214
1761414049010995500,6.727995361328125,0.2762921452522278,-0.6879108548164368,0.8243162631988525
1761414049021008100,6.738008056640625,0.22103022038936615,-0.7138375043869019,0.4646776616573334
1761414049031021300,6.748021240234375,0.2035895735025406,-0.7103917002677917,0.0499955490231514
1761414049041033200,6.758033203125,0.22250546514987946,-0.7112082242965698,-0.37666070461273193
1761414049051046400,6.76804638671875,0.24762727320194244,-0.7018242478370667,-0.7764260768890381
1761414049061058300,6.778058349609375,0.26110631227493286,-0.6817882061004639,-1.1213033199310303
1761414049071071500,6.788071533203125,0.24287128448486328,-0.6972846984863281,-1.3862208127975464
1761414049081084200,6.798084228515625,0.17653381824493408,-0.7637351155281067,-1.5534981489181519
1761414049091096300,6.808096435546875,0.07809095829725266,-0.8404877781867981,-1.5941808223724365
1761414049101109800,6.81810986328125,-0.032134879380464554,-0.8878483176231384,-1.51121985912323
1761414049111122700,6.828122802734375,-0.20075640082359314,-0.8483378887176514,-1.35514235496521
1761414049121134800,6.838134765625,-0.37108418345451355,-0.7477090358734131,-1.135925054550171
1761414049131147500,6.8481474609375,-0.4641695022583008,-0.5429850220680237,-0.8322829604148865
1761414049141160700,6.85816064453125,-0.4662129282951355,-0.3099927306175232,-0.502956211566925
1761414049151172600,6.868172607421875,-0.38504886627197266,-0.13432814180850983,-0.19495469331741333
1761414049161185800,6.878185791015625,-0.24356389045715332,-0.022626375779509544,0.08345083892345428
1761414049171197700,6.88819775390625,-0.07758856564760208,0.05036861449480057,0.3150649964809418
1761414049181211000,6.8982109375,0.01923464611172676,0.08221922069787979,0.46441081166267395
1761414049191223600,6.9082236328125,0.05637722089886665,0.0453147366642952,0.5448814034461975
1761414049201235700,6.918235595703125,0.0704677402973175,-0.03778814151883125,0.5765455961227417
1761414049211248600,6.92824853515625,0.08433720469474792,-0.09357806295156479,0.57403165102005
1761414049221261800,6.93826171875,0.1150282695889473,-0.09437168389558792,0.5601251125335693
1761414049231273700,6.948273681640625,0.15193572640419006,-0.06661579012870789,0.5353211760520935
1761414049241286700,6.95828662109375,0.16844147443771362,-0.07281456887722015,0.5000814199447632
1761414049251299600,6.968299560546875,0.16196364164352417,-0.17589715123176575,0.4619866609573364
1761414049261311700,6.978311767578125,0.13463348150253296,-0.36922481656074524,0.41456612944602966
1761414049271324700,6.98832470703125,0.1018836572766304,-0.5825132727622986,0.3905242085456848
1761414049281336800,6.9983369140625,0.06594323366880417,-0.7688392400741577,0.39069437980651855
1761414049291349800,7.008349853515625,0.008299989625811577,-0.8857846260070801,0.40258365869522095
1761414049301362700,7.01836279296875,-0.06701607257127762,-0.8921743035316467,0.4211674630641937
1761414049311374600,7.02837451171875,-0.12400015443563461,-0.749702513217926,0.4419092833995819
1761414049321387800,7.0383876953125,-0.15203790366649628,-0.49043095111846924,0.4745255410671234
1761414049331400700,7.048400634765625,-0.14330072700977325,-0.13680700957775116,0.5151333808898926
1761414049341412900,7.058412841796875,-0.08512955904006958,0.2176448106765747,0.5432925820350647
1761414049351425500,7.068425537109375,-0.020491283386945724,0.45776161551475525,0.5430945754051208
1761414049361438700,7.078438720703125,0.013476537540555,0.5274059176445007,0.5098796486854553
1761414049371450600,7.08845068359375,-0.006132224574685097,0.4353404939174652,0.4300568401813507
1761414049381463800,7.0984638671875,-0.04359517991542816,0.25392913818359375,0.32027095556259155
1761414049391475700,7.108475830078125,-0.0714488998055458,0.09735647588968277,0.24090367555618286
1761414049401489000,7.118489013671875,-0.09189718216657639,0.11319589614868164,0.18138442933559418
1761414049411501600,7.12850146484375,-0.04272410273551941,0.2588714361190796,0.16629479825496674
1761414049421513700,7.138513671875,0.12419084459543228,0.41766321659088135,0.22563588619232178
1761414049431526700,7.148526611328125,0.2852335572242737,0.34569013118743896,0.23416058719158173
1761414049441539800,7.158539794921875,0.3511204123497009,0.10228811949491501,0.1354617178440094
1761414049451551700,7.1685517578125,0.31953901052474976,-0.20486080646514893,-0.045461881905794144
1761414049461564700,7.178564697265625,0.24665549397468567,-0.5168996453285217,-0.21728156507015228
1761414049471577600,7.18857763671875,0.1827792376279831,-0.6690247654914856,-0.3086896538734436
1761414049481589800,7.19858984375,0.07242849469184875,-0.8623631000518799,-0.4210609495639801
1761414049491602700,7.208602783203125,-0.06446852535009384,-1.0904420614242554,-0.5945605039596558
1761414049501614800,7.21861474609375,-0.188533753156662,-1.2601090669631958,-0.8232166171073914
1761414049511627800,7.228627685546875,-0.2750452160835266,-1.264824628829956,-1.0991288423538208
1761414049521640700,7.238640625,-0.2666506767272949,-1.008488416671753,-1.3607271909713745
1761414049531652600,7.248652587890625,-0.15678128600120544,-0.4644584655761719,-1.5195308923721313
1761414049541665800,7.258665771484375,0.03931364417076111,0.3309140205383301,-1.4947770833969116
1761414049551678700,7.2686787109375,0.2703518867492676,1.0856728553771973,-1.3112053871154785
1761414049561691000,7.27869091796875,0.5121354460716248,1.5365244150161743,-1.0438029766082764
1761414049571703600,7.28870361328125,0.6954426169395447,1.6220581531524658,-0.8113015294075012
1761414049581716700,7.298716796875,0.814361035823822,1.4519723653793335,-0.6733042597770691
1761414049591728600,7.308728759765625,0.8485015034675598,1.1558330059051514,-0.6507152318954468
1761414049601741800,7.318741943359375,0.7928704619407654,0.7964698076248169,-0.7278228402137756
1761414049611753700,7.328753662109375,0.6839905381202698,0.44514864683151245,-0.8464515805244446
1761414049621767000,7.338766845703125,0.5608856081962585,0.1901613473892212,-0.9237961769104004
1761414049631779600,7.348779541015625,0.42282605171203613,0.08520447462797165,-0.9081326127052307
1761414049641791700,7.358791748046875,0.28133124113082886,0.1209385022521019,-0.7916544675827026
1761414049651804700,7.3688046875,0.1746581494808197,0.22131934762001038,-0.5537054538726807
1761414049661817900,7.37881787109375,0.11242274940013885,0.29031306505203247,-0.21627601981163025
1761414049671829800,7.388829833984375,0.06578285247087479,0.2602827250957489,0.17079676687717438
1761414049681842700,7.3988427734375,0.025883104652166367,0.12301063537597656,0.5608596205711365
1761414049691854600,7.4088544921875,-0.007555963005870581,-0.08562292903661728,0.9223150610923767
1761414049701867800,7.41886767578125,-0.036590542644262314,-0.30827730894088745,1.2098133563995361
1761414049711880700,7.428880615234375,-0.06085113063454628,-0.4822183847427368,1.4197925329208374
1761414049721892900,7.438892822265625,-0.0631031021475792,-0.5466743111610413,1.548222303390503
1761414049731905800,7.44890576171875,-0.047399479895830154,-0.49669981002807617,1.6194995641708374
1761414049741918700,7.458918701171875,-0.0057915858924388885,-0.3248137831687927,1.6475207805633545
1761414049751930600,7.4689306640625,0.044201843440532684,-0.08020072430372238,1.6234937906265259
1761414049761943800,7.47894384765625,0.10477650910615921,0.1616545170545578,1.5375066995620728
1761414049771956700,7.488956787109375,0.17175155878067017,0.35794565081596375,1.413164496421814
1761414049781969000,7.498968994140625,0.24476398527622223,0.5237111449241638,1.2780264616012573
1761414049791981800,7.50898193359375,0.2952478229999542,0.6222721934318542,1.1613174676895142
1761414049801994800,7.518994873046875,0.30264371633529663,0.6347286105155945,1.0577290058135986
1761414049812006700,7.529006591796875,0.2810976803302765,0.5530589818954468,0.9556694626808167
1761414049822019800,7.539019775390625,0.2561097741127014,0.43723174929618835,0.8611400127410889
1761414049832031700,7.54903173828125,0.25614234805107117,0.3430050313472748,0.8001101016998291
1761414049842045000,7.559044921875,0.27060994505882263,0.29446467757225037,0.7703719139099121
1761414049852057600,7.5690576171875,0.28808948397636414,0.28773701190948486,0.7533082365989685
1761414049862069800,7.57906982421875,0.30065321922302246,0.29479146003723145,0.7527801394462585
1761414049872082700,7.589082763671875,0.3080008625984192,0.30883899331092834,0.755865216255188
1761414049882095900,7.599095947265625,0.3024548292160034,0.3164103627204895,0.7396340370178223
1761414049892107800,7.609107666015625,0.29943785071372986,0.2936849892139435,0.6867596507072449
1761414049902120700,7.61912060546875,0.2935429513454437,0.22852195799350739,0.6086611151695251
1761414049912132900,7.6291328125,0.2709472179412842,0.1193433552980423,0.509611189365387
1761414049922145800,7.639145751953125,0.22035570442676544,-0.0398593433201313,0.38189342617988586
1761414049932158700,7.64915869140625,0.1791243702173233,-0.14701765775680542,0.2796672284603119
1761414049942170600,7.659170654296875,0.2045820653438568,-0.08063196390867233,0.2580093443393707
1761414049952183800,7.669183837890625,0.3028000295162201,0.12981641292572021,0.3406990170478821
1761414049962196700,7.67919677734375,0.45062756538391113,0.3187413215637207,0.48286521434783936
1761414049972208600,7.689208740234375,0.5698723196983337,0.23229390382766724,0.5390481948852539
1761414049982221800,7.699221923828125,0.6143508553504944,-0.09664057195186615,0.4462474286556244
1761414049992234800,7.70923486328125,0.5906039476394653,-0.37679731845855713,0.28926947712898254
1761414050002246700,7.71924658203125,0.5249146819114685,-0.41986411809921265,0.13693827390670776
1761414050012259800,7.729259765625,0.475303590297699,-0.11961568146944046,0.040300920605659485
1761414050022271700,7.739271728515625,0.5305391550064087,0.24877938628196716,0.01210656389594078
1761414050032284700,7.74928466796875,0.5926469564437866,0.09129808843135834,-0.16612698137760162
1761414050042297900,7.7592978515625,0.4281967580318451,-0.3594110608100891,-0.5767150521278381
1761414050052309800,7.769309814453125,0.05038806423544884,-0.644814670085907,-1.086377501487732
1761414050062322700,7.77932275390625,-0.38782283663749695,-0.5781227350234985,-1.5420010089874268
1761414050072335600,7.789335693359375,-0.6968333721160889,-0.12521028518676758,-1.8048616647720337
1761414050082347500,7.799347412109375,-0.8150119185447693,0.5710369944572449,-1.8367921113967896
1761414050092360700,7.809360595703125,-0.7753168940544128,1.1415430307388306,-1.72080659866333
1761414050102373600,7.81937353515625,-0.6332178115844727,1.3973395824432373,-1.554550290107727
1761414050112385500,7.829385498046875,-0.4382234215736389,1.3989580869674683,-1.3787164688110352
1761414050122398700,7.839398681640625,-0.2169506847858429,1.1611878871917725,-1.2344257831573486
1761414050132410600,7.84941064453125,-0.05557313933968544,0.726243257522583,-1.1843154430389404
1761414050142423600,7.859423583984375,0.0044220220297575,0.28120532631874084,-1.2203887701034546
1761414050152436500,7.8694365234375,-0.035371083766222,0.024197256192564964,-1.2911428213119507
1761414050162448600,7.87944873046875,-0.11533862352371216,-0.015538705512881279,-1.3219449520111084
1761414050172461600,7.889461669921875,-0.19445490837097168,0.15463966131210327,-1.26478111743927
1761414050182474500,7.899474609375,-0.28266677260398865,0.43198898434638977,-1.143060326576233
1761414050192486400,7.909486328125,-0.36272063851356506,0.6693606376647949,-0.9795656204223633
1761414050202499600,7.91949951171875,-0.40995660424232483,0.8380569219589233,-0.8248761892318726
1761414050212512500,7.929512451171875,-0.41343066096305847,0.8983607888221741,-0.684805154800415
1761414050222524700,7.939524658203125,-0.37450137734413147,0.872141420841217,-0.5662491917610168
1761414050232537600,7.94953759765625,-0.31421366333961487,0.8158428072929382,-0.4434000253677368
1761414050242549800,7.9595498046875,-0.23053260147571564,0.7961242198944092,-0.2981690466403961
1761414050252562400,7.9695625,-0.13576193153858185,0.8012029528617859,-0.12639877200126648
1761414050262575600,7.97957568359375,-0.042314548045396805,0.8239482045173645,0.07253296673297882
1761414050272587500,7.98958740234375,0.03845072537660599,0.8605443835258484,0.2748195230960846
1761414050282600700,7.9996005859375,0.09627753496170044,0.9229041934013367,0.495244562625885
1761414050292613600,8.009613525390625,0.12692990899085999,0.9100779294967651,0.6787663698196411
1761414050302625500,8.01962548828125,0.1343201845884323,0.8181229829788208,0.8190885782241821
1761414050312638500,8.029638427734374,0.12312792241573334,0.6538476347923279,0.9028504490852356
1761414050322650600,8.039650634765625,0.09697568416595459,0.4009498357772827,0.9147758483886719
1761414050332663600,8.04966357421875,0.06309740990400314,0.16444358229637146,0.875596821308136
1761414050342676700,8.0596767578125,0.017211943864822388,0.01506820134818554,0.841152548789978
1761414050352688600,8.069688720703125,-0.028123846277594566,-0.09947755187749863,0.8009103536605835
1761414050362701600,8.07970166015625,-0.04855469986796379,-0.2140517234802246,0.7397676110267639
1761414050372714500,8.089714599609374,-0.03795073553919792,-0.3230384886264801,0.6513527631759644
