time,seconds_elapsed,z,y,x
1761414022678107400,0.073107421875,-0.048845428973436356,0.026912642642855644,-0.03486362099647522
1761414022688120600,0.08312060546875,-0.05276746675372124,0.04317816346883774,-0.018537646159529686
1761414022698133500,0.093133544921875,-0.05376485362648964,0.06594869494438171,-0.006017702631652355
1761414022708145700,0.103145751953125,-0.054457008838653564,0.0786873921751976,0.0001805385109037161
1761414022718158600,0.11315869140625,-0.052056167274713516,0.08260412514209747,0.0002834887709468603
1761414022728171500,0.123171630859375,-0.04576018825173378,0.07060498744249344,-0.0053046224638819695
1761414022738183400,0.133183349609375,-0.03678448870778084,0.06450462341308594,-0.011502337642014027
1761414022748196600,0.143196533203125,-0.036035872995853424,0.05457103252410889,-0.021465489640831947
1761414022758209500,0.15320947265625,-0.03974520415067673,0.04418026655912399,-0.04218845069408417
1761414022768221700,0.1632216796875,-0.04507552087306976,0.038612134754657745,-0.05736127495765686
1761414022778234400,0.173234375,-0.04655792936682701,0.04513950273394585,-0.0699688196182251
1761414022788247600,0.18324755859375,-0.04438026249408722,0.061669476330280304,-0.08260205388069153
1761414022798260500,0.193260498046875,-0.042680177837610245,0.07240637391805649,-0.09133066982030869
1761414022808272600,0.203272705078125,-0.03453143686056137,0.08441083878278732,-0.08905553072690964
1761414022818285600,0.21328564453125,-0.02762771025300026,0.08907631039619446,-0.09180266410112381
1761414022828298500,0.223298583984375,-0.020070990547537804,0.0714416578412056,-0.09554919600486755
1761414022838310400,0.233310302734375,-0.020748548209667206,0.04761524125933647,-0.10270833224058151
1761414022848323600,0.243323486328125,-0.025636781007051468,0.015447448007762432,-0.11555542051792145
1761414022858336500,0.25333642578125,-0.028579773381352425,0.0025455444119870663,-0.13290318846702576
1761414022868348700,0.2633486328125,-0.020167380571365356,-0.0020241737365722656,-0.1389850527048111
1761414022878361300,0.273361328125,-0.0014653024263679981,0.00951772928237915,-0.13004043698310852
1761414022888374500,0.28337451171875,0.015395969152450562,0.0381709448993206,-0.12345898151397705
1761414022898386400,0.293386474609375,0.03030870109796524,0.0796893984079361,-0.11141948401927948
1761414022908399600,0.303399658203125,0.04620857164263725,0.12979836761951447,-0.09718941897153854
1761414022918412500,0.31341259765625,0.05134831741452217,0.17578256130218506,-0.0794668197631836
1761414022928424700,0.3234248046875,0.04293325915932655,0.20144744217395782,-0.05807630717754364
1761414022938437400,0.333437255859375,0.016583159565925598,0.1973303258419037,-0.05042101815342903
1761414022948450600,0.343450439453125,-0.003694948274642229,0.17275334894657135,-0.047787416726350784
1761414022958463500,0.35346337890625,-0.009031749330461025,0.17538824677467346,-0.05275594815611839
1761414022968475600,0.3634755859375,-0.02136404998600483,0.18413671851158142,-0.06717456877231598
1761414022978488300,0.37348828125,-0.038054078817367554,0.15803508460521698,-0.09897803515195847
1761414022988501500,0.38350146484375,-0.04625901207327843,0.14613980054855347,-0.12778545916080475
1761414022998513400,0.393513427734375,-0.040490247309207916,0.14715850353240967,-0.14544153213500977
1761414023008526600,0.403526611328125,-0.03172791376709938,0.16923077404499054,-0.16459180414676666
1761414023018539500,0.41353955078125,-0.02149449661374092,0.22068265080451965,-0.16526928544044495
1761414023028551700,0.4235517578125,-0.008154456503689289,0.31606483459472656,-0.14665566384792328
1761414023038564400,0.433564453125,0.005050372797995806,0.4327745735645294,-0.11100542545318604
1761414023048577500,0.44357763671875,0.07406432926654816,0.5117623209953308,-0.053121086210012436
1761414023058589400,0.45358935546875,0.1847379505634308,0.6377236247062683,0.010274572297930717
1761414023068602600,0.4636025390625,0.27426889538764954,0.7229793667793274,0.06515379995107651
1761414023078615600,0.473615478515625,0.3140135407447815,0.6911179423332214,0.10198647528886795
1761414023088627500,0.48362744140625,0.29362809658050537,0.5787365436553955,0.1567687690258026
1761414023098640600,0.493640625,0.23080213367938995,0.47675830125808716,0.2615219056606293
1761414023108653600,0.503653564453125,0.2019158899784088,0.4009959101676941,0.4264805018901825
1761414023118666800,0.513666748046875,0.21187034249305725,0.34220266342163086,0.6352506279945374
1761414023128678700,0.5236787109375,0.18936637043952942,0.2034093737602234,0.8481722474098206
1761414023138691600,0.533691650390625,0.08748181909322739,-0.02855166792869568,1.0494000911712646
1761414023148704500,0.54370458984375,-0.02069205604493618,-0.2720644772052765,1.1863038539886475
1761414023158716700,0.553716552734375,-0.12158260494470596,-0.5818346738815308,1.129193902015686
1761414023168729600,0.5637294921875,-0.1503239870071411,-0.9912775754928589,0.9517292976379395
1761414023178742500,0.573742431640625,-0.11506066471338272,-1.304741382598877,0.731236457824707
1761414023188754400,0.58375439453125,-0.006446305196732283,-1.0157651901245117,0.4698038101196289
1761414023198767600,0.593767578125,0.16859979927539825,0.20718532800674438,0.11978515982627869
1761414023208780500,0.603780517578125,0.4177432954311371,1.4327638149261475,-0.2266732007265091
1761414023218792700,0.613792724609375,0.6849557757377625,2.8326215744018555,-0.6504488587379456
1761414023228805600,0.6238056640625,0.9271777272224426,4.034390926361084,-1.1849076747894287
1761414023238818600,0.633818603515625,1.094777226448059,4.3885016441345215,-1.8699675798416138
1761414023248831700,0.643831787109375,1.1792300939559937,3.491337776184082,-2.5228710174560547
1761414023258843600,0.65384375,1.409368634223938,2.3237502574920654,-2.784883737564087
1761414023268856600,0.663856689453125,1.9208735227584839,1.2964180707931519,-2.629817247390747
1761414023278869500,0.673869384765625,2.4274392127990723,0.48874685168266296,-2.237194061279297
1761414023288881700,0.683881591796875,2.640751361846924,0.0465175025165081,-1.6693669557571411
1761414023298894600,0.69389453125,2.320953845977783,0.7172605991363525,-0.8753576874732971
1761414023308907800,0.70390771484375,1.4647161960601807,0.5828908085823059,-0.05236421525478363
1761414023318919700,0.713919677734375,0.8014370799064636,0.8698608875274658,0.9704234004020691
1761414023328932600,0.7239326171875,0.670493483543396,0.8194360136985779,1.5913910865783691
1761414023338945500,0.733945556640625,0.6765573024749756,0.8102768063545227,1.699337363243103
1761414023348957400,0.74395751953125,0.6215299963951111,0.780064582824707,1.438254952430725
1761414023358970600,0.753970703125,0.5813274383544922,0.7084681391716003,1.0141541957855225
1761414023368983800,0.76398388671875,0.46441999077796936,0.5424994230270386,0.5684713125228882
1761414023378996700,0.773996826171875,0.21089483797550201,0.351900577545166,0.17622514069080353
1761414023389008600,0.784008544921875,-0.08295196294784546,0.11038385331630707,-0.14571428298950195
1761414023399021600,0.794021484375,-0.32845842838287354,-0.057835135608911514,-0.3514106273651123
1761414023409034800,0.80403466796875,-0.47932198643684387,0.008001400157809258,-0.4692579209804535
1761414023419046700,0.814046630859375,-0.5595602989196777,0.24433355033397675,-0.6541739106178284
1761414023429059800,0.824059814453125,-0.5878888964653015,0.38818445801734924,-0.9325703978538513
1761414023439072500,0.834072509765625,-0.6088016629219055,0.48058319091796875,-1.1206673383712769
1761414023449084400,0.84408447265625,-0.6752296686172485,0.3875075876712799,-1.1414903402328491
1761414023459097600,0.85409765625,-0.774927020072937,0.16820278763771057,-0.9999364018440247
1761414023469110800,0.86411083984375,-0.8635865449905396,-0.0939212441444397,-0.7999303340911865
1761414023479122700,0.874122802734375,-0.8934839963912964,-0.35244452953338623,-0.5784569382667542
1761414023489135600,0.884135498046875,-0.8487638831138611,-0.6129514575004578,-0.31183719635009766
1761414023499148500,0.8941484375,-0.7575570940971375,-0.8635349869728088,0.007035781629383564
1761414023509160400,0.904160400390625,-0.6584843397140503,-1.072037935256958,0.3437887728214264
1761414023519173600,0.914173583984375,-0.5320352911949158,-1.4149787425994873,0.5988910794258118
1761414023529186800,0.924186767578125,-0.47784823179244995,-1.470557689666748,0.8668777942657471
1761414023539199500,0.934199462890625,-0.4254988729953766,-1.4254146814346313,1.0634691715240479
1761414023549211600,0.944211669921875,-0.2934678792953491,-1.4117870330810547,1.1497066020965576
1761414023559224600,0.954224609375,-0.15331563353538513,-1.3521791696548462,1.1878751516342163
1761414023569237800,0.96423779296875,-0.07028546929359436,-1.2265986204147339,1.2143752574920654
1761414023579249700,0.974249755859375,-0.025546198710799217,-1.0533334016799927,1.2257306575775146
1761414023589262800,0.984262939453125,0.006350214593112469,-0.8769205212593079,1.2366026639938354
1761414023599275500,0.994275634765625,0.025925826281309128,-0.7141559720039368,1.2523444890975952
1761414023609287700,1.00428759765625,0.03219171240925789,-0.6123920679092407,1.2845282554626465
1761414023619300600,1.014300537109375,0.03030252829194069,-0.568831205368042,1.3239601850509644
1761414023629313800,1.024313720703125,0.011432967148721218,-0.5852791666984558,1.313750147819519
1761414023639325700,1.03432568359375,-0.009854622185230255,-0.7266442775726318,1.2358814477920532
1761414023649338600,1.044338623046875,-0.06931555271148682,-0.8289821147918701,1.151940941810608
1761414023659351600,1.0543515625,-0.15324191749095917,-0.8609353303909302,1.085475206375122
1761414023669363700,1.06436376953125,-0.21606269478797913,-0.8822798132896423,1.0144941806793213
1761414023679376600,1.074376708984375,-0.2461286336183548,-0.9040023684501648,0.9373416900634766
1761414023689389800,1.084389892578125,-0.2525968849658966,-1.0113083124160767,0.8272309303283691
1761414023699402500,1.094402587890625,-0.26287081837654114,-1.073383092880249,0.7209092378616333
1761414023709414700,1.10441455078125,-0.29069072008132935,-1.0318548679351807,0.633589506149292
1761414023719427600,1.114427490234375,-0.2939507067203522,-0.9328707456588745,0.56044602394104
1761414023729440800,1.124440673828125,-0.2239639014005661,-0.7526351809501648,0.5107658505439758
1761414023739452700,1.13445263671875,-0.14627580344676971,-0.49021822214126587,0.4961065351963043
1761414023749465600,1.144465576171875,-0.15978895127773285,-0.35109999775886536,0.40594759583473206
1761414023759478500,1.154478515625,-0.2524683475494385,-0.5688333511352539,0.09964309632778168
1761414023769490700,1.16449072265625,-0.36510223150253296,-1.0629996061325073,-0.37870749831199646
1761414023779503600,1.174503662109375,-0.39950430393218994,-1.5562764406204224,-0.8033823370933533
1761414023789516800,1.184516845703125,-0.2735746204853058,-1.8457889556884766,-1.080470323562622
1761414023799528700,1.19452880859375,-0.03723641484975815,-2.1036133766174316,-1.3540006875991821
1761414023809541600,1.204541748046875,0.1571061611175537,-2.317814588546753,-1.6646523475646973
1761414023819554600,1.214554443359375,0.1819443702697754,-2.2863025665283203,-1.853482961654663
1761414023829566700,1.224566650390625,0.07407834380865097,-1.8961092233657837,-1.8040525913238525
1761414023839579600,1.23457958984375,-0.07314708828926086,-1.219222903251648,-1.489387035369873
1761414023849592600,1.244592529296875,-0.17362922430038452,-0.5978710055351257,-1.0316652059555054
1761414023859605500,1.25460546875,-0.17764343321323395,-0.22784046828746796,-0.5363097786903381
1761414023869617700,1.26461767578125,-0.06433843821287155,0.01756104826927185,-0.06673750281333923
1761414023879630600,1.274630615234375,0.03542653098702431,0.5247337222099304,0.3827230930328369
1761414023889643800,1.284643798828125,0.10739712417125702,1.2890032529830933,0.7115912437438965
1761414023899655700,1.29465576171875,0.18951261043548584,1.9654568433761597,0.7901250123977661
1761414023909668600,1.304668701171875,0.1886071413755417,2.334575653076172,0.6694484353065491
1761414023919681500,1.314681640625,0.036605995148420334,2.472348928451538,0.5599260926246643
1761414023929693700,1.324693603515625,-0.1418020874261856,2.5477683544158936,0.5892304182052612
1761414023939706600,1.33470654296875,-0.2714013159275055,2.533328056335449,0.681651771068573
1761414023949719600,1.344719482421875,-0.37845852971076965,2.3118462562561035,0.6766027212142944
1761414023959731500,1.3547314453125,-0.5214604139328003,1.9239729642868042,0.4624405801296234
1761414023969744600,1.36474462890625,-0.6973222494125366,1.5614416599273682,0.05606723949313164
1761414023979757600,1.374757568359375,-0.8538113832473755,1.3839972019195557,-0.423061341047287
1761414023989769700,1.384769775390625,-0.9802811741828918,1.3306058645248413,-0.8233658671379089
1761414023999782700,1.39478271484375,-1.1020092964172363,1.2638037204742432,-1.0461710691452026
1761414024009795600,1.404795654296875,-1.2286583185195923,1.1525397300720215,-1.0489511489868164
1761414024019807500,1.414807373046875,-1.3006937503814697,0.9787522554397583,-0.9076385498046875
1761414024029820700,1.424820556640625,-1.2627615928649902,0.7549061179161072,-0.6958965063095093
1761414024039833600,1.43483349609375,-1.1501058340072632,0.48545747995376587,-0.4667797088623047
1761414024049846500,1.444846435546875,-1.0051984786987305,0.18153540790081024,-0.23553316295146942
1761414024059858700,1.454858642578125,-0.847080647945404,-0.1506534069776535,0.0006935487035661936
1761414024069871600,1.46487158203125,-0.6890721321105957,-0.45447587966918945,0.23973914980888367
1761414024079885300,1.47488525390625,-0.5281848311424255,-0.703300416469574,0.4897932708263397
1761414024089897200,1.484897216796875,-0.3837941288948059,-0.8780975341796875,0.7557341456413269
1761414024099910100,1.49491015625,-0.23405574262142181,-0.9413262605667114,0.9974983334541321
1761414024109923000,1.504923095703125,-0.07201757282018661,-0.9016113877296448,1.178646445274353
1761414024119935000,1.51493505859375,0.09451773017644882,-0.8150471448898315,1.3031727075576782
1761414024129948200,1.5249482421875,0.21207764744758606,-0.7394205331802368,1.3214325904846191
1761414024139961300,1.53496142578125,0.30191799998283386,-0.5744380354881287,1.193318486213684
1761414024149973200,1.54497314453125,0.3656458556652069,-0.36711040139198303,1.0057076215744019
1761414024159986000,1.55498583984375,0.3802865445613861,-0.2245509773492813,0.8118694424629211
1761414024169999000,1.5649990234375,0.37193942070007324,-0.14761865139007568,0.6124392151832581
1761414024180011000,1.575010986328125,0.3473852276802063,-0.07541162520647049,0.4293838441371918
1761414024190024200,1.585024169921875,0.2983737587928772,-0.016518484801054,0.2717047333717346
1761414024200037000,1.595037109375,0.26695966720581055,0.006355833727866411,0.15298859775066376
1761414024210049300,1.60504931640625,0.26016995310783386,0.015278488397598267,0.1032857596874237
1761414024220062000,1.61506201171875,0.2665055990219116,-0.01131465658545494,0.12942184507846832
1761414024230075100,1.6250751953125,0.2730575203895569,-0.0947435051202774,0.19908852875232697
1761414024240087000,1.635087158203125,0.2809792757034302,-0.2283998727798462,0.2965624928474426
1761414024250100200,1.645100341796875,0.28452152013778687,-0.3852914869785309,0.39232975244522095
1761414024260113200,1.655113037109375,0.26532095670700073,-0.5389108657836914,0.46649131178855896
1761414024270126000,1.6651259765625,0.2135019749403,-0.6725325584411621,0.49549978971481323
1761414024280138000,1.675137939453125,0.14517731964588165,-0.7694231271743774,0.5018863677978516
1761414024290151200,1.685151123046875,0.07078296691179276,-0.8419854640960693,0.5218342542648315
1761414024300164000,1.6951640625,0.0029119604732841253,-0.8944911956787109,0.5474919080734253
1761414024310176300,1.70517626953125,-0.03683118894696236,-0.9257295727729797,0.5687503218650818
1761414024320189200,1.715189208984375,-0.032953254878520966,-0.9009422659873962,0.5824518799781799
1761414024330202000,1.7252021484375,-0.02148275263607502,-0.8296582698822021,0.560929536819458
1761414024340214000,1.735214111328125,-0.03105081245303154,-0.6730300784111023,0.4924318492412567
1761414024350227200,1.745227294921875,-0.0417705662548542,-0.45653051137924194,0.37212780117988586
1761414024360240000,1.755240234375,-0.022215351462364197,-0.24264556169509888,0.2233702391386032
1761414024370252000,1.765251953125,0.02175956219434738,-0.009764650836586952,0.07503003627061844
1761414024380265200,1.77526513671875,0.07225529104471207,0.16958782076835632,-0.08842688798904419
1761414024390278100,1.785278076171875,0.12529906630516052,0.2542925775051117,-0.22841808199882507
1761414024400290000,1.7952900390625,0.18234600126743317,0.2542871832847595,-0.3417063057422638
1761414024410303200,1.80530322265625,0.1847766786813736,-0.047112058848142624,-0.5332160592079163
1761414024420316200,1.815316162109375,0.1095903143286705,-0.565324068069458,-0.7759581804275513
1761414024430328000,1.825328125,0.033536821603775024,-1.0329797267913818,-0.951052725315094
1761414024440341200,1.83534130859375,-0.02042585238814354,-1.3793843984603882,-0.9914255738258362
1761414024450354200,1.845354248046875,-0.10804039239883423,-1.4174015522003174,-0.8625035285949707
1761414024460367000,1.8553671875,-0.20581768453121185,-1.078006625175476,-0.6288135051727295
1761414024470379000,1.86537890625,-0.22619512677192688,-0.6281329989433289,-0.527682363986969
1761414024480392200,1.87539208984375,-0.13897040486335754,-0.23947584629058838,-0.6131002306938171
1761414024490405000,1.885405029296875,-0.04309048131108284,0.028294606134295464,-0.7177670001983643
1761414024500417300,1.895417236328125,-0.015916571021080017,0.28626611828804016,-0.6408060789108276
1761414024510430200,1.90543017578125,-0.021135566756129265,0.5703284740447998,-0.30165621638298035
1761414024520443100,1.915443115234375,-0.003142943140119314,0.7585043907165527,0.1677381545305252
1761414024530455000,1.925455078125,0.07445065677165985,0.7508070468902588,0.6143524050712585
1761414024540468200,1.93546826171875,0.20173799991607666,0.5558413863182068,1.0407993793487549
1761414024550481200,1.945481201171875,0.3906799554824829,0.30386748909950256,1.4541441202163696
1761414024560493300,1.955493408203125,0.63506680727005,0.03142174705862999,1.8024758100509644
1761414024570506000,1.965506103515625,0.7729261517524719,-0.28498148918151855,1.9922022819519043
1761414024580519200,1.975519287109375,0.729949951171875,-0.5693093538284302,1.9475458860397339
1761414024590531000,1.985531005859375,0.5816528797149658,-0.7298462986946106,1.7166727781295776
1761414024600544300,1.995544189453125,0.4355962872505188,-0.7485653162002563,1.4069006443023682
1761414024610557200,2.00555712890625,0.339868426322937,-0.7015359997749329,1.10453200340271
1761414024620569300,2.0155693359375,0.30879443883895874,-0.717927873134613,0.8191384077072144
1761414024630582000,2.02558203125,0.3406969904899597,-0.865877628326416,0.5268061757087708
1761414024640595200,2.03559521484375,0.4357225000858307,-1.0440614223480225,0.1970204859972
1761414024650607000,2.045607177734375,0.5632655620574951,-1.2248454093933105,-0.16358110308647156
1761414024660620300,2.055620361328125,0.6947651505470276,-1.2826462984085083,-0.4953515827655792
1761414024670633000,2.065633056640625,0.7710657715797424,-1.1961811780929565,-0.7618882060050964
1761414024680646100,2.075646240234375,0.741424024105072,-1.015234351158142,-0.9867951273918152
1761414024690658000,2.085657958984375,0.6167630553245544,-0.761501669883728,-1.2016997337341309
1761414024700671200,2.095671142578125,0.4360973536968231,-0.47198501229286194,-1.4234305620193481
1761414024710684200,2.10568408203125,0.24035315215587616,-0.1467595100402832,-1.6576355695724487
1761414024720696300,2.1156962890625,0.051390424370765686,0.18401122093200684,-1.8838883638381958
1761414024730709000,2.125708984375,-0.12903907895088196,0.44956174492836,-2.040403366088867
1761414024740722200,2.13572216796875,-0.25260382890701294,0.6382407546043396,-2.0702428817749023
1761414024750734000,2.145734130859375,-0.31726428866386414,0.7800508737564087,-1.9713655710220337
1761414024760747300,2.155747314453125,-0.3279801905155182,0.9153873324394226,-1.7982182502746582
1761414024770760000,2.165760009765625,-0.2863331437110901,1.006067156791687,-1.5834819078445435
1761414024780772000,2.175772216796875,-0.21483014523983002,1.0262850522994995,-1.3619420528411865
1761414024790785000,2.185784912109375,-0.143138125538826,0.9882582426071167,-1.1445045471191406
1761414024800798200,2.195798095703125,-0.09593076258897781,0.9086371064186096,-0.960454523563385
1761414024810810000,2.20581005859375,-0.07805749028921127,0.809372067451477,-0.8007979989051819
1761414024820823300,2.2158232421875,-0.07969097793102264,0.7089020013809204,-0.6613117456436157
1761414024830836000,2.2258359375,-0.06953554600477219,0.6021600961685181,-0.5407339334487915
1761414024840848100,2.23584814453125,-0.033799417316913605,0.5050114393234253,-0.4407227635383606
1761414024850861000,2.245861083984375,0.01786111108958721,0.3991299569606781,-0.3432638347148895
1761414024860874200,2.255874267578125,0.09791623800992966,0.31878265738487244,-0.21755298972129822
1761414024870886100,2.26588623046875,0.20981374382972717,0.25399860739707947,-0.06485825777053833
1761414024880899000,2.275899169921875,0.3447420299053192,0.19481585919857025,0.07791239023208618
1761414024890912000,2.285912109375,0.4772225618362427,0.1675807684659958,0.2184458076953888
1761414024900925200,2.29592529296875,0.619255542755127,0.17302770912647247,0.3297947943210602
1761414024910937000,2.30593701171875,0.7690514326095581,0.18772408366203308,0.3884538412094116
1761414024920950300,2.3159501953125,0.8964296579360962,0.20123445987701416,0.3819253146648407
1761414024930963000,2.325962890625,0.9773170948028564,0.22626444697380066,0.34607675671577454
1761414024940975000,2.33597509765625,0.9783115386962891,0.22023415565490723,0.3061140477657318
1761414024950988000,2.345988037109375,0.8836888670921326,0.12653428316116333,0.2467481940984726
1761414024961001200,2.356001220703125,0.6982654333114624,-0.059332285076379776,0.1532980054616928
1761414024971013000,2.36601318359375,0.48658010363578796,-0.23735661804676056,0.0529349148273468
1761414024981026000,2.376026123046875,0.31729504466056824,-0.305643767118454,-0.0049980636686086655
1761414024991039000,2.3860390625,0.2319609671831131,-0.22943446040153503,-0.017834234982728958
1761414025001051100,2.396051025390625,0.2478131353855133,-0.016625799238681793,-0.021840384230017662
1761414025011064000,2.40606396484375,0.33912014961242676,0.2282332181930542,-0.0739925354719162
1761414025021077200,2.4160771484375,0.45521751046180725,0.4906309247016907,-0.17483298480510712
1761414025031089200,2.426089111328125,0.5591899752616882,0.7387333512306213,-0.3037789762020111
1761414025041102000,2.43610205078125,0.6330010890960693,0.9007533192634583,-0.40405091643333435
1761414025051115000,2.446114990234375,0.656929612159729,0.9528769254684448,-0.4347766041755676
1761414025061127200,2.456127197265625,0.5882112979888916,0.7493113875389099,-0.5038166046142578
1761414025071140000,2.46614013671875,0.3725474774837494,0.26629170775413513,-0.7004295587539673
1761414025081152800,2.47615283203125,0.14993074536323547,-0.3573773205280304,-0.9081956148147583
1761414025091165000,2.4861650390625,0.12100854516029358,-0.9970555305480957,-0.9317888617515564
1761414025101177600,2.496177490234375,0.3158016502857208,-1.415927529335022,-0.6649253964424133
1761414025111190800,2.506190673828125,0.6060177683830261,-1.4858161211013794,-0.10284900665283203
1761414025121203700,2.51620361328125,0.8421968221664429,-1.1924890279769897,0.5394908785820007
1761414025131216000,2.5262158203125,0.9876879453659058,-0.6215998530387878,1.042458176612854
1761414025141228800,2.536228759765625,1.0574625730514526,0.06431137025356293,1.3273824453353882
1761414025151241700,2.54624169921875,1.031348705291748,0.6224092245101929,1.339349627494812
1761414025161253600,2.556253662109375,0.9057769775390625,0.8422178030014038,1.1429381370544434
1761414025171266800,2.566266845703125,0.726262092590332,0.714889407157898,0.9206094145774841
1761414025181279700,2.57627978515625,0.5693866014480591,0.34164881706237793,0.7933064699172974
1761414025191292000,2.5862919921875,0.488216370344162,-0.1674807220697403,0.7739759087562561
1761414025201304600,2.5963046875,0.4988427758216858,-0.7109887003898621,0.7925730347633362
1761414025211317800,2.60631787109375,0.5811267495155334,-1.2880221605300903,0.7786747813224792
1761414025221329700,2.61632958984375,0.6706423163414001,-1.8437812328338623,0.6666811108589172
1761414025231342800,2.6263427734375,0.739603579044342,-2.2790701389312744,0.41068077087402344
1761414025241355800,2.636355712890625,0.7970878481864929,-2.5333313941955566,0.0655757263302803
1761414025251367700,2.64636767578125,0.8196999430656433,-2.6205639839172363,-0.27637919783592224
1761414025261380600,2.656380615234375,0.6851082444190979,-2.6603994369506836,-0.49366825819015503
1761414025271393800,2.666393798828125,0.37008586525917053,-2.4893102645874023,-0.4611811637878418
1761414025281405700,2.67640576171875,-0.009472597390413284,-2.1637842655181885,-0.3033525049686432
1761414025291419000,2.6864189453125,-0.36689597368240356,-1.669140338897705,-0.22183580696582794
1761414025301431600,2.696431640625,-0.6054869890213013,-1.0684725046157837,-0.30335336923599243
1761414025311443700,2.706443603515625,-0.7296528816223145,-0.42463329434394836,-0.4798296093940735
1761414025321456600,2.71645654296875,-0.7768037915229797,0.2120659500360489,-0.6617169380187988
1761414025331469800,2.7264697265625,-0.7641900181770325,0.7716999650001526,-0.8046120405197144
1761414025341481700,2.736481689453125,-0.6955265402793884,1.2376813888549805,-0.8837430477142334
1761414025351495000,2.746494873046875,-0.5929216146469116,1.6044095754623413,-0.8636979460716248
1761414025361507600,2.756507568359375,-0.4943867027759552,1.8349435329437256,-0.7363422513008118
1761414025371520800,2.766520751953125,-0.4162338674068451,1.95415198802948,-0.534209668636322
1761414025381532700,2.77653271484375,-0.3607778251171112,2.0029544830322266,-0.29474183917045593
1761414025391545900,2.7865458984375,-0.3157205879688263,1.9814984798431396,-0.08524027466773987
1761414025401558500,2.79655859375,-0.2716641426086426,1.840149998664856,0.04120174050331116
1761414025411570700,2.80657080078125,-0.20330773293972015,1.5914078950881958,0.12676271796226501
1761414025421583600,2.81658349609375,-0.11037489771842957,1.2773396968841553,0.20473584532737732
1761414025431596800,2.8265966796875,-0.027142327278852463,0.8720254898071289,0.24784336984157562
1761414025441608700,2.836608642578125,0.043206699192523956,0.4604443609714508,0.21866360306739807
1761414025451622000,2.846621826171875,0.14617383480072021,0.21302202343940735,0.12851934134960175
1761414025461634800,2.856634765625,0.26970627903938293,0.060775015503168106,0.010060694068670273
1761414025471646700,2.866646728515625,0.38122454285621643,-0.07750429213047028,-0.10812719911336899
1761414025481659600,2.87665966796875,0.449663907289505,-0.18899309635162354,-0.21277658641338348
1761414025491672800,2.8866728515625,0.45411616563796997,-0.2559577524662018,-0.27260980010032654
1761414025501684700,2.896684814453125,0.4006771147251129,-0.27511587738990784,-0.2945406436920166
1761414025511697700,2.90669775390625,0.30110737681388855,-0.24554413557052612,-0.27388277649879456
1761414025521710800,2.9167109375,0.1863633692264557,-0.19406834244728088,-0.23889261484146118
1761414025531722800,2.92672265625,0.09354928135871887,-0.1808774471282959,-0.22386732697486877
1761414025541735700,2.936735595703125,0.024129057303071022,-0.20555917918682098,-0.23069635033607483
1761414025551748900,2.946748779296875,-0.009892025962471962,-0.19341783225536346,-0.2272491455078125
1761414025561760800,2.9567607421875,-0.006540712900459766,-0.13581298291683197,-0.203331857919693
1761414025571773700,2.966773681640625,0.019314587116241455,-0.024200698360800743,-0.15527458488941193
1761414025581787000,2.976786865234375,0.05486530065536499,0.09296263754367828,-0.08548951894044876
1761414025591798800,2.986798828125,0.0792742371559143,0.17212563753128052,-0.044657137244939804
1761414025601811700,2.996811767578125,0.07084647566080093,0.16418133676052094,-0.12644509971141815
1761414025611824600,3.00682470703125,0.018439726904034615,0.003798851277679205,-0.3841986060142517
1761414025621836500,3.01683642578125,-0.05629374086856842,-0.35049524903297424,-0.7250630259513855
1761414025631849700,3.026849609375,-0.11622205376625061,-0.8111235499382019,-0.8987069725990295
1761414025641863000,3.03686279296875,-0.08698835968971252,-1.0308010578155518,-0.7087152004241943
1761414025651875800,3.046875732421875,0.057679079473018646,-0.767643928527832,-0.24407166242599487
1761414025661887700,3.0568876953125,0.24402432143688202,-0.028736378997564316,0.15718577802181244
1761414025671900700,3.066900634765625,0.37838268280029297,0.8298590183258057,0.13807013630867004
1761414025681913900,3.076913818359375,0.4396372139453888,1.4199961423873901,-0.26794400811195374
1761414025691925800,3.08692578125,0.45871689915657043,1.4732415676116943,-0.7017567157745361
1761414025701939000,3.09693896484375,0.4220954477787018,0.9098023176193237,-0.8193135261535645
1761414025711951600,3.10695166015625,0.3768480718135834,0.22812148928642273,-0.3765965700149536
1761414025721963500,3.116963623046875,0.3945584297180176,-0.16745725274085999,0.5416466593742371
1761414025731976700,3.126976806640625,0.5136041045188904,-0.21319171786308289,1.472830891609192
1761414025741990000,3.136989990234375,0.694695234298706,-0.11214806884527206,2.0326364040374756
1761414025752001800,3.147001708984375,0.8527349233627319,0.013440478593111038,2.228667974472046
1761414025762015000,3.157014892578125,0.7635844945907593,0.2504689395427704,2.2700772285461426
1761414025772027600,3.167027587890625,0.46444171667099,0.5623216032981873,2.2292017936706543
1761414025782039600,3.17703955078125,0.1111992672085762,0.8598862290382385,2.1130340099334717
1761414025792052700,3.187052734375,-0.15751421451568604,1.151900291442871,1.9060509204864502
1761414025802066000,3.19706591796875,-0.28263059258461,1.3985999822616577,1.6616498231887817
1761414025812077800,3.207077880859375,-0.27864569425582886,1.5317825078964233,1.4456979036331177
1761414025822090800,3.2170908203125,-0.23379342257976532,1.5541359186172485,1.2592982053756714
1761414025832103700,3.227103759765625,-0.24608789384365082,1.4576565027236938,1.1180942058563232
1761414025842115600,3.237115478515625,-0.36671891808509827,1.3171027898788452,1.008863925933838
1761414025852128800,3.247128662109375,-0.5579906105995178,1.1098449230194092,0.8576265573501587
1761414025862142000,3.257141845703125,-0.7284975647926331,0.790583074092865,0.6098036766052246
1761414025872153900,3.26715380859375,-0.871590256690979,0.4351876974105835,0.29230886697769165
1761414025882166800,3.277166748046875,-0.9952571988105774,-0.02775820903480053,-0.07172246277332306
1761414025892179700,3.2871796875,-1.1322553157806396,-0.4604627788066864,-0.45601367950439453
1761414025902191600,3.297191650390625,-1.2767105102539062,-0.7704439759254456,-0.7771807312965393
1761414025912204800,3.307204833984375,-1.3939518928527832,-0.9213122725486755,-1.0189706087112427
1761414025922217700,3.3172177734375,-1.4436748027801514,-0.91112220287323,-1.1957017183303833
1761414025932230700,3.327230712890625,-1.419765591621399,-0.7962424755096436,-1.2604656219482422
1761414025942242800,3.337242919921875,-1.3232115507125854,-0.5574816465377808,-1.1805088520050049
1761414025952255700,3.347255859375,-1.1836172342300415,-0.28136909008026123,-0.9937945604324341
1761414025962269000,3.35726904296875,-1.0104707479476929,-0.0313461571931839,-0.7625653147697449
1761414025972280800,3.36728076171875,-0.8337123394012451,0.18081536889076233,-0.5345587730407715
1761414025982293800,3.377293701171875,-0.687242329120636,0.3104124367237091,-0.341728538274765
1761414025992306700,3.387306640625,-0.5842916965484619,0.3702957332134247,-0.21232740581035614
1761414026002318800,3.39731884765625,-0.5120930075645447,0.43125584721565247,-0.1382865309715271
1761414026012331800,3.407331787109375,-0.44069525599479675,0.48613160848617554,-0.12575556337833405
1761414026022344700,3.4173447265625,-0.33765730261802673,0.5243840217590332,-0.16072921454906464
1761414026032356900,3.42735693359375,-0.18505895137786865,0.5577012300491333,-0.20854546129703522
1761414026042369800,3.437369873046875,0.002935711294412613,0.5974067449569702,-0.22567282617092133
1761414026052382700,3.4473828125,0.20001202821731567,0.6463918685913086,-0.1964331865310669
1761414026062395000,3.457394775390625,0.37426117062568665,0.678642213344574,-0.1041598841547966
1761414026072407800,3.46740771484375,0.48096710443496704,0.6727547645568848,0.037823084741830826
1761414026082421000,3.4774208984375,0.5049705505371094,0.5991250872612,0.18724589049816132
1761414026092433000,3.487432861328125,0.4639996886253357,0.47990310192108154,0.31181657314300537
1761414026102446000,3.497446044921875,0.3691119849681854,0.30411285161972046,0.399129182100296
1761414026112459000,3.507458984375,0.2671688497066498,0.11593977361917496,0.45909878611564636
1761414026122471200,3.51747119140625,0.2119378298521042,-0.0605190247297287,0.4877762794494629
1761414026132483800,3.52748388671875,0.2072666436433792,-0.17699290812015533,0.5132728219032288
1761414026142497000,3.5374970703125,0.24808330833911896,-0.2253459095954895,0.5441420674324036
1761414026152509000,3.547509033203125,0.3103996813297272,-0.25061318278312683,0.5797820687294006
1761414026162522000,3.557522216796875,0.3784300684928894,-0.25872960686683655,0.6257525086402893
1761414026172535000,3.56753515625,0.41410019993782043,-0.24073998630046844,0.6528663635253906
1761414026182547200,3.577547119140625,0.4232115149497986,-0.19980312883853912,0.652458906173706
1761414026192559900,3.587559814453125,0.41102516651153564,-0.14064154028892517,0.6237984895706177
1761414026202573000,3.597572998046875,0.3807927370071411,-0.07357285171747208,0.5667340159416199
1761414026212586200,3.607586181640625,0.3358311057090759,-0.02089126966893673,0.47751384973526
1761414026222598100,3.61759814453125,0.2863014340400696,0.006973548326641321,0.36542606353759766
1761414026232610800,3.62761083984375,0.23560602962970734,0.04642960801720619,0.20235246419906616
1761414026242624000,3.6376240234375,0.19012488424777985,0.09535709768533707,0.009809257462620735
1761414026252636000,3.647635986328125,0.17520318925380707,0.10109301656484604,-0.10527898371219635
1761414026262649000,3.657649169921875,0.2466263622045517,0.1121813952922821,-0.053976286202669144
1761414026272662300,3.667662353515625,0.38977286219596863,0.1322142332792282,0.11227607727050781
1761414026282674200,3.677674072265625,0.5622098445892334,0.18404358625411987,0.2310989499092102
1761414026292686800,3.687686767578125,0.7363747358322144,0.24397589266300201,0.15686626732349396
1761414026302700000,3.697699951171875,0.8133041262626648,0.26305466890335083,-0.15048208832740784
1761414026312712000,3.7077119140625,0.7257378101348877,0.13977108895778656,-0.5669602751731873
1761414026322725000,3.71772509765625,0.5554686188697815,-0.13560645282268524,-0.8364195227622986
1761414026332738000,3.727738037109375,0.467800498008728,-0.47239649295806885,-0.8435584306716919
1761414026342750000,3.73775,0.47525662183761597,-0.818834662437439,-0.7195737361907959
1761414026352763000,3.747762939453125,0.5082257390022278,-0.9624466896057129,-0.5741536617279053
1761414026362776000,3.757776123046875,0.46042555570602417,-0.9387159943580627,-0.582238495349884
1761414026372788000,3.7677880859375,0.36234933137893677,-0.8335621953010559,-0.7256872653961182
1761414026382801200,3.77780126953125,0.30301666259765625,-0.6548745036125183,-0.887687087059021
1761414026392814000,3.78781396484375,0.2929840087890625,-0.49379241466522217,-0.9416230320930481
1761414026402826000,3.797825927734375,0.3114784061908722,-0.2818000912666321,-0.6251217126846313
1761414026412839000,3.8078388671875,0.3386729955673218,0.010287433862686157,0.008260293863713741
1761414026422852000,3.81785205078125,0.3697209060192108,0.2577868103981018,0.5629190802574158
1761414026432864000,3.827864013671875,0.3878948390483856,0.4707084000110626,0.8250684142112732
1761414026442877000,3.837876953125,0.3769596219062805,0.6572259664535522,0.8223043084144592
1761414026452890000,3.84789013671875,0.33737170696258545,0.8053160905838013,0.688357412815094
1761414026462902000,3.857902099609375,0.24009348452091217,0.8577947020530701,0.5435291528701782
1761414026472915000,3.8679150390625,0.125599667429924,0.7874504923820496,0.4135373532772064
1761414026482928000,3.87792822265625,0.012472501955926418,0.5754634141921997,0.30054306983947754
1761414026492940000,3.88793994140625,-0.13184233009815216,0.2385043352842331,0.18963466584682465
1761414026502953000,3.897952880859375,-0.2986923158168793,-0.16304294764995575,0.0699463039636612
1761414026512966100,3.907966064453125,-0.4534240961074829,-0.5034069418907166,-0.04862641543149948
1761414026522979000,3.91797900390625,-0.538419246673584,-0.7337838411331177,-0.11661504954099655
1761414026532991000,3.927990966796875,-0.5745657682418823,-0.8237363696098328,-0.12490387260913849
1761414026543004200,3.938004150390625,-0.5753065347671509,-0.7416916489601135,-0.07017121464014053
1761414026553017000,3.94801708984375,-0.5508003830909729,-0.5225968360900879,0.01116412878036499
1761414026563029000,3.958029052734375,-0.5281624794006348,-0.20725952088832855,0.08327484130859375
1761414026573042200,3.968042236328125,-0.5085791945457458,0.11169502139091492,0.12123340368270874
1761414026583055000,3.97805517578125,-0.500667929649353,0.3654422461986542,0.12341547757387161
1761414026593067000,3.98806689453125,-0.5200892686843872,0.4952724277973175,0.08691206574440002
1761414026603080000,3.998079833984375,-0.5710855722427368,0.5538232326507568,0.025311123579740524
1761414026613093000,4.008093017578125,-0.6309358477592468,0.500161349773407,-0.02092268504202366
1761414026623105000,4.01810498046875,-0.6707445383071899,0.35840967297554016,-0.02311450056731701
1761414026633118200,4.0281181640625,-0.6952703595161438,0.18342188000679016,0.005752034485340118
1761414026643131100,4.038131103515625,-0.720170259475708,0.024192338809370995,0.052193354815244675
1761414026653143000,4.04814306640625,-0.6988937258720398,-0.05985702574253082,0.12027867138385773
1761414026663156000,4.058156005859375,-0.6308685541152954,-0.07866532355546951,0.2019098401069641
1761414026673169200,4.068169189453125,-0.5234369039535522,-0.061591532081365585,0.28071728348731995
1761414026683181000,4.07818115234375,-0.3858114778995514,-0.05415760353207588,0.33641740679740906
1761414026693194200,4.0881943359375,-0.27529028058052063,-0.06251673400402069,0.35775890946388245
1761414026703207000,4.09820703125,-0.190614253282547,-0.09029281884431839,0.36033809185028076
1761414026713219000,4.108218994140625,-0.12310685217380524,-0.11317842453718185,0.3832721710205078
1761414026723232000,4.11823193359375,-0.0934029370546341,-0.15424872934818268,0.42180633544921875
1761414026733245200,4.1282451171875,-0.09816093742847443,-0.20550419390201569,0.45111283659935
1761414026743257000,4.138257080078125,-0.12311648577451706,-0.2777339816093445,0.46908628940582275
1761414026753270300,4.148270263671875,-0.14444014430046082,-0.35721760988235474,0.49572959542274475
1761414026763283000,4.158282958984375,-0.15367500483989716,-0.38806837797164917,0.5379712581634521
1761414026773295000,4.168295166015625,-0.15581564605236053,-0.3687599301338196,0.580730676651001
1761414026783308000,4.17830810546875,-0.15285368263721466,-0.3215291500091553,0.6281322240829468
1761414026793321200,4.1883212890625,-0.15257832407951355,-0.2610088288784027,0.6357501745223999
1761414026803333000,4.1983330078125,-0.15685023367404938,-0.19490821659564972,0.6052588224411011
1761414026813346000,4.208345947265625,-0.12982261180877686,-0.1470152586698532,0.5468117594718933
1761414026823359000,4.21835888671875,-0.08850254863500595,-0.08479167520999908,0.508387565612793
1761414026833371100,4.22837109375,-0.058260228484869,0.00037834327667951584,0.4789513647556305
1761414026843384000,4.238384033203125,-0.07508501410484314,0.03949964791536331,0.41091665625572205
1761414026853397200,4.248397216796875,-0.16532516479492188,0.014775391668081284,0.2844306230545044
1761414026863409200,4.2584091796875,-0.3130490183830261,-0.018197286874055862,0.15495231747627258
1761414026873422000,4.268422119140625,-0.46640366315841675,-0.1134558916091919,0.0339294970035553
1761414026883435000,4.27843505859375,-0.5972741842269897,-0.25426140427589417,-0.07444576919078827
1761414026893447200,4.288447265625,-0.6053768396377563,-0.3295076787471771,-0.1105840653181076
1761414026903460000,4.298460205078125,-0.45343348383903503,-0.3598986566066742,-0.11421903967857361
1761414026913473000,4.30847314453125,-0.3265639543533325,-0.635496199131012,-0.2705407440662384
1761414026923486000,4.31848583984375,-0.39242851734161377,-1.1846754550933838,-0.5889186263084412
1761414026933498000,4.328498046875,-0.5857611894607544,-1.700656533241272,-0.8076485395431519
1761414026943511000,4.338510986328125,-0.8160748481750488,-1.9782915115356445,-0.7735846042633057
1761414026953524200,4.348524169921875,-1.0897111892700195,-1.8173277378082275,-0.5725734233856201
1761414026963536100,4.3585361328125,-1.3378983736038208,-1.2556689977645874,-0.5118972063064575
1761414026973549000,4.368549072265625,-1.3429639339447021,-0.4728893041610718,-0.7510437369346619
1761414026983562000,4.37856201171875,-1.0789027214050293,0.45221221446990967,-1.1718122959136963
1761414026993574100,4.38857421875,-0.7623492479324341,1.361593246459961,-1.579205870628357
1761414027003587000,4.398587158203125,-0.5932978391647339,1.875146746635437,-1.7791329622268677
1761414027013600000,4.40860009765625,-0.5271291732788086,1.7838727235794067,-1.610700249671936
1761414027023612000,4.41861181640625,-0.4513470232486725,1.3827955722808838,-1.0205495357513428
1761414027033625000,4.428625,-0.3029751181602478,0.8937318921089172,-0.2004392296075821
1761414027043638000,4.438637939453125,-0.07020542770624161,0.43540599942207336,0.4758507013320923
1761414027053650200,4.448650146484375,0.20209959149360657,0.08451750129461288,0.8058972954750061
1761414027063663000,4.4586630859375,0.39304953813552856,-0.1551639288663864,0.9161809682846069
1761414027073676800,4.4686767578125,0.4385640323162079,-0.2722165286540985,0.9407819509506226
1761414027083688700,4.478688720703125,0.36690273880958557,-0.21898692846298218,0.9234179258346558
1761414027093702000,4.488701904296875,0.2407117784023285,-0.031115297228097916,0.8315196633338928
1761414027103714800,4.49871484375,0.11486537754535675,0.2029673308134079,0.6450612545013428
1761414027113727000,4.50872705078125,0.0018245799001306295,0.4107096195220947,0.382715106010437
1761414027123739600,4.51873974609375,-0.09406507760286331,0.5469949841499329,0.07734394073486328
1761414027133752800,4.5287529296875,-0.1726222038269043,0.5694102644920349,-0.21850448846817017
1761414027143764700,4.5387646484375,-0.2585846185684204,0.40307727456092834,-0.4771096706390381
1761414027153778000,4.54877783203125,-0.35937994718551636,0.1259647160768509,-0.6283301115036011
1761414027163790600,4.55879052734375,-0.43119722604751587,-0.08230956643819809,-0.6229205131530762
1761414027173802800,4.568802734375,-0.44527363777160645,-0.19574637711048126,-0.5073710083961487
1761414027183815700,4.578815673828125,-0.41712021827697754,-0.2624358832836151,-0.36790356040000916
1761414027193828900,4.588828857421875,-0.3605930209159851,-0.3085770010948181,-0.2736681401729584
1761414027203840800,4.5988408203125,-0.2939939796924591,-0.31653428077697754,-0.1937400847673416
1761414027213854000,4.60885400390625,-0.23196521401405334,-0.25007668137550354,-0.12284833937883377
1761414027223866600,4.61886669921875,-0.17414718866348267,-0.13336709141731262,-0.06694885343313217
1761414027233878800,4.628878662109375,-0.1495121568441391,0.0042030117474496365,-0.011282394640147686
1761414027243891700,4.6388916015625,-0.14410224556922913,0.10247470438480377,0.007945138961076736
1761414027253905000,4.64890478515625,-0.14721360802650452,0.18816538155078888,0.02300771325826645
1761414027263916800,4.658916748046875,-0.1540677696466446,0.22284628450870514,0.02347208932042122
1761414027273929700,4.6689296875,-0.15338200330734253,0.20371785759925842,-0.0071867527440190315
1761414027283942700,4.678942626953125,-0.1346898078918457,0.16793963313102722,-0.04395169019699097
1761414027293954800,4.688954833984375,-0.0853758454322815,0.1252085119485855,-0.05806339532136917
1761414027303967700,4.6989677734375,-0.014371284283697605,0.06690187007188797,-0.03906340152025223
1761414027313981000,4.70898095703125,0.053126268088817596,0.015301796607673168,0.02068355493247509
1761414027323992800,4.718992919921875,0.1097511500120163,-0.03393595665693283,0.1203271821141243
1761414027334005800,4.729005859375,0.14140202105045319,-0.08498741686344147,0.2280014306306839
1761414027344018700,4.739018798828125,0.13900218904018402,-0.13868236541748047,0.31959909200668335
1761414027354030800,4.74903076171875,0.11720101535320282,-0.1753293126821518,0.3780866265296936
1761414027364043800,4.759043701171875,0.08353470265865326,-0.21396340429782867,0.3842286765575409
1761414027374056700,4.769056640625,0.059727370738983154,-0.24566248059272766,0.339946448802948
1761414027384069600,4.779069580078125,0.055269982665777206,-0.2575705647468567,0.2672451436519623
1761414027394081800,4.789081787109375,0.05949269235134125,-0.2656362056732178,0.16379758715629578
1761414027404094700,4.7990947265625,0.0451124906539917,-0.26218682527542114,0.04885854944586754
1761414027414108000,4.80910791015625,0.03037988394498825,-0.21342994272708893,-0.005978863220661879
1761414027424119800,4.819119873046875,0.031070448458194733,-0.09136755764484406,0.0031073440331965685
1761414027434132700,4.8291328125,0.053720902651548386,0.049683574587106705,0.04650648310780525
1761414027444145700,4.839145751953125,0.07828232645988464,0.1526731550693512,0.07604274153709412
1761414027454157800,4.84915771484375,0.09584055095911026,0.16482730209827423,0.046562083065509796
1761414027464170800,4.859170654296875,0.10882266610860825,0.09046716243028641,-0.03845956549048424
1761414027474183700,4.86918359375,0.11981885880231857,-0.056067414581775665,-0.1737622618675232
1761414027484195600,4.879195556640625,0.09510120749473572,-0.2770850360393524,-0.3312079906463623
1761414027494208800,4.889208740234375,0.03602536767721176,-0.55584716796875,-0.45436879992485046
1761414027504221700,4.8992216796875,-0.06467404216527939,-0.780630350112915,-0.4384433925151825
1761414027514233900,4.90923388671875,-0.16554686427116394,-0.7935839891433716,-0.22188283503055573
1761414027524246800,4.919246826171875,-0.23465433716773987,-0.5962380766868591,0.06916589289903641
1761414027534259700,4.929259765625,-0.2641350030899048,-0.2503059208393097,0.21986006200313568
1761414027544271600,4.939271728515625,-0.30415740609169006,0.03816496580839157,0.12172017246484756
1761414027554284800,4.949284912109375,-0.434013694524765,0.17420615255832672,-0.22819682955741882
1761414027564297700,4.959297607421875,-0.6582756042480469,0.10824934393167496,-0.7255702614784241
1761414027574310000,4.969309814453125,-0.9172858595848083,-0.30342477560043335,-1.2503172159194946
1761414027584322800,4.97932275390625,-1.1973638534545898,-0.9396559000015259,-1.5791605710983276
1761414027594335700,4.989335693359375,-1.3102675676345825,-1.2867070436477661,-1.5035643577575684
1761414027604347600,4.99934765625,-1.119597315788269,-0.9022632241249084,-1.0296920537948608
1761414027614360800,5.00936083984375,-0.7808149456977844,0.12458057701587677,-0.415911465883255
1761414027624373800,5.019373779296875,-0.5687502026557922,1.113374948501587,0.06247267872095108
1761414027634386000,5.029385986328125,-0.29198887944221497,1.5260730981826782,0.3274444043636322
1761414027644398600,5.039398681640625,-0.10827630758285522,1.372392177581787,0.5959771871566772
1761414027654411800,5.049411865234375,-0.005065766163170338,0.7366631031036377,1.0027457475662231
1761414027664423700,5.059423583984375,0.0867636501789093,-0.02178429812192917,1.5257585048675537
1761414027674436900,5.069436767578125,0.19733649492263794,-0.623168408870697,2.0151312351226807
1761414027684449800,5.07944970703125,0.3051242232322693,-1.0379222631454468,2.3026607036590576
1761414027694461700,5.089461669921875,0.39603176712989807,-1.312583565711975,2.3804826736450195
1761414027704474600,5.099474609375,0.40690797567367554,-1.4292066097259521,2.3224215507507324
1761414027714487800,5.10948779296875,0.31517672538757324,-1.3197602033615112,2.204068660736084
1761414027724499700,5.119499755859375,0.16337837278842926,-1.0759230852127075,2.0200917720794678
1761414027734513000,5.129512939453125,-0.001494476106017828,-0.8043591380119324,1.7293481826782227
1761414027744525600,5.139525634765625,-0.148041769862175,-0.6403639912605286,1.367937445640564
1761414027754537700,5.149537841796875,-0.25964659452438354,-0.6044254302978516,0.9955494999885559
1761414027764550700,5.159550537109375,-0.32131263613700867,-0.6491027474403381,0.612105667591095
1761414027774563800,5.169563720703125,-0.3391108214855194,-0.7395719289779663,0.2032441645860672
1761414027784575700,5.17957568359375,-0.36127805709838867,-0.8019460439682007,-0.22953082621097565
1761414027794589000,5.1895888671875,-0.40488678216934204,-0.7484790682792664,-0.592833399772644
1761414027804601600,5.1996015625,-0.48791974782943726,-0.5982819199562073,-0.7996073365211487
1761414027814613800,5.20961376953125,-0.577171802520752,-0.3591915965080261,-0.8324923515319824
1761414027824626700,5.219626708984375,-0.6806083917617798,-0.08871648460626602,-0.7340171337127686
1761414027834640000,5.229639892578125,-0.7447780966758728,0.1625319868326187,-0.5584554672241211
1761414027844651800,5.23965185546875,-0.7123923301696777,0.39184483885765076,-0.3754971921443939
1761414027854664700,5.249664794921875,-0.5970561504364014,0.507888913154602,-0.25765150785446167
1761414027864677600,5.259677734375,-0.4642202854156494,0.5040591359138489,-0.22828954458236694
1761414027874689800,5.269689697265625,-0.3388626277446747,0.4105103015899658,-0.2554415464401245
1761414027884702700,5.27970263671875,-0.22272484004497528,0.26325544714927673,-0.29135796427726746
1761414027894716000,5.2897158203125,-0.14199484884738922,0.09299851953983307,-0.32235661149024963
1761414027904727800,5.299727783203125,-0.07558846473693848,-0.0383058562874794,-0.2939435839653015
1761414027914740700,5.30974072265625,-0.006393676623702049,-0.0972495973110199,-0.19977551698684692
1761414027924753700,5.319753662109375,0.04970059171319008,-0.06754957139492035,-0.07651185244321823
1761414027934765800,5.329765869140625,0.09907107055187225,0.017992224544286728,0.04133063182234764
1761414027944778800,5.33977880859375,0.14391663670539856,0.09100893139839172,0.09986575692892075
1761414027954791700,5.349791748046875,0.16896259784698486,0.11461252719163895,0.07465121150016785
1761414027964803600,5.359803466796875,0.16036374866962433,0.09504757076501846,-0.001688410178758204
1761414027974816800,5.369816650390625,0.1274912804365158,0.05545302480459213,-0.09232616424560547
1761414027984829700,5.37982958984375,0.07594223320484161,-0.004628307186067104,-0.1727713793516159
1761414027994841900,5.389841796875,0.03014092706143856,-0.045695848762989044,-0.23154814541339874
1761414028004854800,5.399854736328125,0.01638009212911129,-0.03781265765428543,-0.2398136854171753
1761414028014867700,5.40986767578125,0.04184949770569801,-0.012265222147107124,-0.23036213219165802
1761414028024880600,5.419880615234375,0.06971795111894608,0.0444355383515358,-0.1948602795600891
1761414028034892800,5.429892822265625,0.10825016349554062,0.06466171890497208,-0.1515708714723587
1761414028044905700,5.43990576171875,0.15714000165462494,0.005031162407249212,-0.09824728965759277
1761414028054918700,5.449918701171875,0.2056707739830017,-0.11630698293447495,-0.04857347160577774
1761414028064930600,5.4599306640625,0.22759124636650085,-0.2928137183189392,0.005447231233119965
1761414028074942700,5.469942626953125,0.21578438580036163,-0.43168479204177856,0.08805609494447708
1761414028084956000,5.479955810546875,0.17428986728191376,-0.5348542332649231,0.19078582525253296
1761414028094967800,5.4899677734375,0.11827904731035233,-0.6308526396751404,0.25622978806495667
1761414028104981000,5.49998095703125,0.05603991076350212,-0.7122052907943726,0.2421235889196396
1761414028114994000,5.509993896484375,0.014668234623968601,-0.7267624139785767,0.16110970079898834
1761414028125006000,5.520006103515625,-0.015175998210906982,-0.6506015062332153,0.017963038757443428
1761414028135018800,5.530018798828125,-0.023678138852119446,-0.49091944098472595,-0.14828291535377502
1761414028145031000,5.540031005859375,-0.0035024997778236866,-0.30092108249664307,-0.3089865744113922
1761414028155043800,5.5500439453125,-0.01825534738600254,-0.22908468544483185,-0.5624284148216248
1761414028165057000,5.56005712890625,-0.0737336128950119,-0.23561283946037292,-0.8367568850517273
1761414028175069700,5.570069580078125,-0.18297940492630005,-0.2233809381723404,-1.0021240711212158
1761414028185081900,5.580081787109375,-0.3153025805950165,-0.09526730328798294,-0.9271115660667419
1761414028195094800,5.5900947265625,-0.3942596912384033,0.1061268001794815,-0.6618804335594177
1761414028205108000,5.60010791015625,-0.4271794855594635,0.22059358656406403,-0.46949082612991333
1761414028215120000,5.610119873046875,-0.39306652545928955,0.16407865285873413,-0.6424264311790466
1761414028225133000,5.620133056640625,-0.39373522996902466,-0.059893157333135605,-1.235801100730896
1761414028235145700,5.630145751953125,-0.4727914333343506,-0.1768842339515686,-1.890019178390503
1761414028245158000,5.640157958984375,-0.5479488968849182,-0.025965606793761253,-2.24857759475708
1761414028255170800,5.6501708984375,-0.4906613230705261,0.5149951577186584,-2.1229641437530518
1761414028265184000,5.66018408203125,-0.12455479800701141,1.4299043416976929,-1.5918843746185303
1761414028275196000,5.67019580078125,0.28022971749305725,2.554380416870117,-0.7479944229125977
1761414028285208800,5.680208740234375,0.5567989945411682,3.3892500400543213,0.2064012587070465
1761414028295221800,5.6902216796875,0.7519594430923462,3.514521598815918,0.8093066215515137
1761414028305234000,5.70023388671875,0.7354182004928589,3.1014790534973145,1.0033376216888428
1761414028315246800,5.710246826171875,0.6538820266723633,2.5321130752563477,1.026479721069336
1761414028325260000,5.720260009765625,0.6613419055938721,2.066527843475342,1.0333609580993652
1761414028335272000,5.73027197265625,0.6457719802856445,1.677869439125061,1.0293326377868652
1761414028345284900,5.740284912109375,0.5456519722938538,1.2640818357467651,1.0506972074508667
1761414028355297800,5.7502978515625,0.40189534425735474,0.83149254322052,1.1203116178512573
1761414028365310000,5.76031005859375,0.26978540420532227,0.4205056130886078,1.202462077140808
1761414028375323000,5.770322998046875,0.146744966506958,0.05708400905132294,1.2361313104629517
1761414028385335800,5.780335693359375,0.025013573467731476,-0.2321125864982605,1.2090147733688354
1761414028395347700,5.79034765625,-0.06529740989208221,-0.4816867411136627,1.131260871887207
1761414028405361000,5.80036083984375,-0.10842389613389969,-0.719188392162323,1.0380475521087646
1761414028415374000,5.8103740234375,-0.09819496423006058,-0.8921316862106323,0.9542416930198669
1761414028425386000,5.820385986328125,-0.0691642165184021,-0.9262637495994568,0.8528029322624207
1761414028435399000,5.83039892578125,-0.051803071051836014,-0.8174208998680115,0.6629837155342102
1761414028445411800,5.840411865234375,-0.10149355232715607,-0.5473735332489014,0.4035476744174957
1761414028455423700,5.850423828125,-0.19392256438732147,-0.11755048483610153,0.16307061910629272
1761414028465437000,5.86043701171875,-0.27855366468429565,0.3390686511993408,-0.030151817947626114
1761414028475450000,5.8704501953125,-0.31949445605278015,0.7376573085784912,-0.19497112929821014
1761414028485462000,5.8804619140625,-0.29809921979904175,1.0370328426361084,-0.32239875197410583
1761414028495474700,5.890474609375,-0.23443660140037537,1.2058879137039185,-0.4154354929924011
1761414028505488000,5.90048779296875,-0.15770196914672852,1.203932523727417,-0.47579726576805115
1761414028515499800,5.910499755859375,-0.07169651985168457,1.033625841140747,-0.49115410447120667
1761414028525513000,5.920512939453125,0.043255265802145004,0.7812270522117615,-0.4131101965904236
1761414028535526100,5.930526123046875,0.1561245620250702,0.4618416130542755,-0.24734599888324738
1761414028545538000,5.9405380859375,0.2607358396053314,0.14421860873699188,-0.03897006809711456
1761414028555550700,5.95055078125,0.36007869243621826,-0.12975703179836273,0.16989339888095856
1761414028565564000,5.96056396484375,0.43292731046676636,-0.37037843465805054,0.34221169352531433
1761414028575575800,5.970575927734375,0.4802125096321106,-0.5765430927276611,0.461523175239563
1761414028585589000,5.980589111328125,0.5145601034164429,-0.7488619089126587,0.554114818572998
1761414028595602000,5.990601806640625,0.5364858508110046,-0.8361411094665527,0.6158775091171265
1761414028605613800,6.00061376953125,0.5612474679946899,-0.8633870482444763,0.6172696948051453
1761414028615626800,6.010626708984375,0.5459087491035461,-0.8621204495429993,0.5539852976799011
1761414028625640000,6.020639892578125,0.47030356526374817,-0.8629119396209717,0.4437921941280365
1761414028635651800,6.03065185546875,0.36403918266296387,-0.8636626601219177,0.3008752465248108
1761414028645665000,6.0406650390625,0.26613160967826843,-0.8413857817649841,0.14455443620681763
1761414028655678000,6.050677978515625,0.19287602603435516,-0.7977400422096252,-0.051520008593797684
1761414028665689900,6.06068994140625,0.1294448971748352,-0.6718581318855286,-0.2373596578836441
1761414028675702800,6.070702880859375,0.08876270055770874,-0.4597104787826538,-0.3667408227920532
1761414028685716000,6.080716064453125,0.07651787996292114,-0.2294156849384308,-0.4389047622680664
1761414028695727900,6.090727783203125,0.13694554567337036,0.025537513196468353,-0.39630672335624695
1761414028705741000,6.100740966796875,0.1517987847328186,0.2886011004447937,-0.3420458734035492
1761414028715754000,6.11075390625,0.12910598516464233,0.4848100244998932,-0.3683651089668274
1761414028725766000,6.120765869140625,0.010716421529650688,0.5426441431045532,-0.5032564401626587
1761414028735778800,6.13077880859375,-0.16873082518577576,0.49497169256210327,-0.6813220381736755
1761414028745792000,6.1407919921875,-0.3370055556297302,0.42852261662483215,-0.8636476993560791
1761414028755804000,6.150803955078125,-0.4589346647262573,0.3648291230201721,-0.9612014293670654
1761414028765816800,6.16081689453125,-0.4832010865211487,0.18024931848049164,-1.0171177387237549
1761414028775830000,6.170830078125,-0.40245458483695984,-0.13425694406032562,-0.9234338998794556
1761414028785842000,6.180842041015625,-0.16944372653961182,-0.5202526450157166,-0.5078863501548767
1761414028795854800,6.190854736328125,0.21544164419174194,-0.9600222706794739,0.05893126130104065
1761414028805868000,6.200867919921875,0.42416495084762573,-1.6154121160507202,0.2577078342437744
1761414028815880000,6.2108798828125,0.08328168094158173,-2.6284193992614746,-0.17627450823783875
1761414028825892900,6.220892822265625,-0.4578917324542999,-3.362647294998169,-0.9670723676681519
1761414028835906000,6.230906005859375,-0.8999594449996948,-3.3420536518096924,-1.444109559059143
1761414028845918000,6.24091796875,-1.2859055995941162,-2.6947436332702637,-1.3315237760543823
1761414028855931000,6.250930908203125,-1.1769875288009644,-1.8760285377502441,-0.9171505570411682
1761414028865943800,6.26094384765625,-0.4375285506248474,-0.6713371276855469,-0.5114164352416992
1761414028875955700,6.270955810546875,0.49559730291366577,1.1806162595748901,-0.035297028720378876
1761414028885969000,6.280968994140625,0.9701468348503113,2.2896859645843506,0.16782304644584656
1761414028895982000,6.290982177734375,0.8963032364845276,2.289921283721924,0.11559314280748367
1761414028905994000,6.300993896484375,0.41435325145721436,1.3212252855300903,0.03890884295105934
1761414028916007000,6.3110068359375,-0.13963566720485687,-0.108941450715065,0.265231192111969
1761414028926019800,6.321019775390625,-0.3491869568824768,-1.267189621925354,0.7795511484146118
1761414028936031700,6.33103173828125,-0.20399968326091766,-1.6865754127502441,1.2839418649673462
1761414028946045000,6.341044921875,0.07471354305744171,-1.3337905406951904,1.5132046937942505
1761414028956058000,6.35105810546875,0.36811399459838867,-0.7010338306427002,1.3458609580993652
1761414028966070000,6.361070068359375,0.5691221356391907,-0.18340376019477844,0.9535320401191711
1761414028976083000,6.3710830078125,0.5669002532958984,0.14512619376182556,0.6462376117706299
1761414028986095900,6.381095947265625,0.43535587191581726,0.3214702010154724,0.5252840518951416
1761414028996107800,6.391107666015625,0.2295539677143097,0.3451598286628723,0.48548659682273865
1761414029006121000,6.401120849609375,0.030111128464341164,0.3386526107788086,0.42790108919143677
1761414029016134100,6.411134033203125,-0.09981571137905121,0.39467859268188477,0.26242610812187195
1761414029026146000,6.42114599609375,-0.14803148806095123,0.5846455693244934,-0.028716623783111572
1761414029036159000,6.431158935546875,-0.1292724460363388,0.881606936454773,-0.4138243496417999
1761414029046172000,6.441171875,-0.06934458762407303,1.1201139688491821,-0.8490869998931885
1761414029056183800,6.451183837890625,0.0032068449072539806,1.1993824243545532,-1.2356210947036743
1761414029066197000,6.461197021484375,0.034648384898900986,1.0452520847320557,-1.4563775062561035
1761414029076210000,6.4712099609375,0.018523210659623146,0.6978800296783447,-1.4402625560760498
1761414029086221800,6.481221923828125,-0.04770611599087715,0.27778077125549316,-1.1877152919769287
1761414029096235000,6.491235107421875,-0.09902282804250717,-0.07070156931877136,-0.7877737283706665
1761414029106248200,6.501248291015625,-0.12406144291162491,-0.3179026246070862,-0.3787449300289154
1761414029116260000,6.511260009765625,-0.14543516933918,-0.4709092080593109,-0.0898718535900116
1761414029126273300,6.521273193359375,-0.1607324182987213,-0.5483269691467285,0.051476601511240005
1761414029136286000,6.531285888671875,-0.16161605715751648,-0.550688624382019,0.07869996130466461
1761414029146297900,6.5412978515625,-0.1577433943748474,-0.4910563826560974,0.03672609105706215
1761414029156311000,6.55131103515625,-0.13746608793735504,-0.43540483713150024,-0.010598814114928246
1761414029166324200,6.56132421875,-0.11012101918458939,-0.42666780948638916,0.0033532199449837208
1761414029176336100,6.571336181640625,-0.1522330492734909,-0.4611181914806366,0.033624038100242615
1761414029186349000,6.58134912109375,-0.1523558497428894,-0.46625635027885437,0.0982736200094223
1761414029196362000,6.591362060546875,-0.0770411267876625,-0.4325242340564728,0.17297261953353882
1761414029206374000,6.601373779296875,0.019675057381391525,-0.44743818044662476,0.25308552384376526
1761414029216387000,6.611386962890625,0.09640339016914368,-0.5136476159095764,0.3252854347229004
1761414029226400300,6.621400146484375,0.1133725494146347,-0.6098209023475647,0.37312591075897217
1761414029236412200,6.631412109375,0.0747375413775444,-0.7225729823112488,0.3928109109401703
1761414029246425000,6.641425048828125,0.03245075047016144,-0.801532506942749,0.3942136764526367
1761414029256438000,6.65143798828125,-0.014130333438515663,-0.7906820178031921,0.36319825053215027
1761414029266450000,6.661449951171875,-0.05077125132083893,-0.6041284203529358,0.2879885733127594
1761414029276463000,6.671463134765625,-0.06003745645284653,-0.268200159072876,0.17034317553043365
1761414029286476000,6.68147607421875,-0.052412159740924835,0.09793033450841904,0.05381738394498825
1761414029296488000,6.691488037109375,-0.02536163106560707,0.4136139750480652,-0.04013654217123985
1761414029306501000,6.701501220703125,0.06315694004297256,0.6188843846321106,-0.1340300738811493
1761414029316514000,6.71151416015625,0.17078886926174164,0.6483506560325623,-0.24857795238494873
1761414029326526200,6.721526123046875,0.1474621593952179,0.6211604475975037,-0.29913923144340515
1761414029336539100,6.7315390625,0.055806539952754974,0.5684050917625427,-0.31806445121765137
1761414029346552000,6.741552001953125,-0.01626019924879074,0.4406793415546417,-0.3850831687450409
1761414029356564000,6.75156396484375,-0.027195405215024948,0.3096560835838318,-0.5134478211402893
1761414029366577200,6.7615771484375,-0.023569192737340927,0.27321353554725647,-0.6498704552650452
1761414029376590000,6.771590087890625,-0.035469263792037964,0.2385580837726593,-0.794158399105072
1761414029386603000,6.78160302734375,-0.04354255273938179,0.1918840855360031,-0.9136508107185364
1761414029396615000,6.791614990234375,-0.013493305072188377,0.1477818787097931,-1.0163228511810303
1761414029406628000,6.801628173828125,0.08385010063648224,0.24295878410339355,-1.1033567190170288
1761414029416640000,6.811639892578125,0.2701251804828644,0.5989336371421814,-1.1467229127883911
1761414029426653200,6.821653076171875,0.4458974599838257,1.0503342151641846,-1.1540547609329224
1761414029436666000,6.831666015625,0.5119076371192932,1.4734388589859009,-1.1182775497436523
1761414029446678300,6.84167822265625,0.47070106863975525,1.7297755479812622,-1.0168347358703613
1761414029456691000,6.85169091796875,0.26251164078712463,1.557113766670227,-0.8470433354377747
1761414029466704100,6.8617041015625,-0.14274844527244568,0.7461405396461487,-0.811872124671936
1761414029476716000,6.871716064453125,-0.4266648590564728,-0.2758893370628357,-0.9590940475463867
1761414029486729200,6.881729248046875,-0.2764030694961548,-0.5901163220405579,-1.0026569366455078
1761414029496742000,6.891741943359375,0.056481409817934036,-0.13955341279506683,-0.8415266871452332
1761414029506755000,6.901755126953125,0.3218824565410614,0.6394109725952148,-0.48444864153862
1761414029516767000,6.91176708984375,0.274509072303772,1.041911244392395,0.14093239605426788
1761414029526780200,6.9217802734375,0.07644422352313995,0.8713415265083313,0.9077913761138916
1761414029536793000,6.93179296875,-0.14039167761802673,0.24647580087184906,1.5984736680984497
1761414029546805200,6.94180517578125,-0.18068569898605347,-0.2995195686817169,2.129377841949463
1761414029556818000,6.95181787109375,0.004489474929869175,-0.45476293563842773,2.4123339653015137
1761414029566831000,6.9618310546875,0.13702547550201416,-0.41011500358581543,2.3791885375976562
1761414029576843000,6.971843017578125,0.12835422158241272,-0.22527670860290527,2.025407552719116
1761414029586856200,6.981856201171875,0.026096688583493233,0.06145881861448288,1.499987244606018
1761414029596868000,6.9918681640625,-0.10466771572828293,0.36730262637138367,0.9965113401412964
1761414029606881000,7.001881103515625,-0.19682033360004425,0.6397040486335754,0.6371157169342041
1761414029616894000,7.01189404296875,-0.253871351480484,0.7316502332687378,0.42184630036354065
1761414029626907100,7.0219072265625,-0.26713353395462036,0.6108570098876953,0.2912217378616333
1761414029636919000,7.0319189453125,-0.24504394829273224,0.42012619972229004,0.20535261929035187
1761414029646932200,7.04193212890625,-0.20852668583393097,0.3494115471839905,0.1756884753704071
1761414029656945000,7.05194482421875,-0.1856250911951065,0.44375136494636536,0.24228374660015106
1761414029666957000,7.06195703125,-0.16273804008960724,0.6091529130935669,0.3684653639793396
1761414029676970000,7.071969970703125,-0.1382761001586914,0.7345489263534546,0.48388412594795227
1761414029686983200,7.081983154296875,-0.1216394305229187,0.7160670757293701,0.5396724939346313
1761414029696995000,7.0919951171875,-0.11912354081869125,0.562903881072998,0.5228951573371887
1761414029707008000,7.102008056640625,-0.1051502600312233,0.3657527267932892,0.44641003012657166
1761414029717021000,7.11202099609375,-0.09816078841686249,0.18598586320877075,0.34229588508605957
1761414029727033000,7.122033203125,-0.10091499984264374,0.06044512242078781,0.2610984742641449
1761414029737046000,7.1320458984375,-0.09996824711561203,-0.005344547796994448,0.21877604722976685
1761414029747059200,7.14205908203125,-0.08101624250411987,-0.030125178396701813,0.20821921527385712
1761414029757071000,7.152071044921875,-0.05191134661436081,-0.053902409970760345,0.20186011493206024
1761414029767084000,7.162083984375,0.0371493361890316,-0.08054956793785095,0.22789214551448822
1761414029777096000,7.172095947265625,0.11404252052307129,-0.12009777873754501,0.3231411576271057
1761414029787109000,7.182109130859375,0.14833050966262817,-0.1355198621749878,0.4364655017852783
1761414029797122000,7.1921220703125,0.11840350180864334,-0.1843225657939911,0.5128284692764282
1761414029807134200,7.20213427734375,0.035662200301885605,-0.3475125730037689,0.5675983428955078
1761414029817147100,7.212147216796875,-0.05307166278362274,-0.5747904777526855,0.6170992851257324
1761414029827160000,7.22216015625,-0.10190223902463913,-0.7810673117637634,0.6767211556434631
1761414029837172000,7.232171875,-0.10759741067886353,-0.9058489203453064,0.7606051564216614
1761414029847185200,7.24218505859375,-0.11266221106052399,-0.9760543704032898,0.8373880982398987
1761414029857198000,7.252197998046875,-0.14198347926139832,-0.9862098693847656,0.8831896781921387
1761414029867210200,7.262210205078125,-0.18234673142433167,-0.9238429665565491,0.8941406607627869
1761414029877223000,7.272222900390625,-0.22702951729297638,-0.8103246688842773,0.8761739134788513
1761414029887236000,7.282236083984375,-0.24455903470516205,-0.6472997665405273,0.8315396308898926
1761414029897248000,7.292248046875,-0.22910284996032715,-0.5128173232078552,0.7687132954597473
1761414029907261200,7.30226123046875,-0.1838296353816986,-0.47100919485092163,0.7028424143791199
1761414029917274000,7.312274169921875,-0.14856939017772675,-0.5010291337966919,0.6525546908378601
1761414029927286300,7.322286376953125,-0.1426381915807724,-0.5369542241096497,0.6191556453704834
1761414029937299000,7.332298828125,-0.13092321157455444,-0.5007938146591187,0.5908188223838806
1761414029947312000,7.34231201171875,-0.11453641206026077,-0.38316768407821655,0.5315813422203064
1761414029957324000,7.352323974609375,-0.08096913248300552,-0.24494054913520813,0.3948703706264496
1761414029967337200,7.362337158203125,-0.030681319534778595,-0.11090319603681564,0.16599112749099731
1761414029977350000,7.372349853515625,0.024381399154663086,-0.05181724205613136,-0.1433589905500412
1761414029987362000,7.382362060546875,0.08013089001178741,-0.10652711242437363,-0.535153865814209
1761414029997375000,7.392375,0.1514093428850174,-0.15077313780784607,-0.9514394998550415
1761414030007388200,7.40238818359375,0.21782778203487396,0.025527330115437508,-1.2476892471313477
1761414030017400000,7.412400146484375,0.2744114100933075,0.5136179327964783,-1.3492560386657715
1761414030027413200,7.422413330078125,0.23874691128730774,1.1220405101776123,-1.24393630027771
1761414030037426000,7.432426025390625,0.13688260316848755,1.409657597541809,-1.0818158388137817
1761414030047438000,7.44243798828125,0.05134694278240204,1.315590262413025,-0.96021968126297
1761414030057451000,7.452450927734375,0.053740326315164566,1.1094517707824707,-0.938323438167572
1761414030067464200,7.462464111328125,0.08865626156330109,0.7869466543197632,-1.0701909065246582
1761414030077476000,7.47247607421875,0.036057762801647186,0.4631129503250122,-1.256227731704712
1761414030087489000,7.482489013671875,0.009589392691850662,0.44330036640167236,-1.2340168952941895
1761414030097502200,7.492502197265625,0.14036791026592255,0.7526938915252686,-0.89958256483078
1761414030107514000,7.50251416015625,0.2755001485347748,1.2711410522460938,-0.28369849920272827
1761414030117527300,7.51252734375,0.3982284665107727,1.7364834547042847,0.4781264364719391
1761414030127540200,7.522540283203125,0.6331828236579895,1.9230588674545288,1.2356127500534058
1761414030137552100,7.53255224609375,0.7990458607673645,1.4072381258010864,1.7275334596633911
1761414030147565000,7.54256494140625,0.7449699640274048,0.47598016262054443,2.0624163150787354
1761414030157578200,7.552578125,0.5215219855308533,-0.5660039782524109,2.29232120513916
1761414030167590100,7.562590087890625,0.2574464976787567,-1.405576229095459,2.368955373764038
1761414030177603300,7.572603271484375,0.05131301283836365,-1.8054932355880737,2.210536241531372
1761414030187616000,7.582615966796875,-0.10945480316877365,-1.7140374183654785,1.7956104278564453
1761414030197628000,7.5926279296875,-0.21287573873996735,-1.335856318473816,1.1984837055206299
1761414030207641000,7.60264111328125,-0.2562812268733978,-0.8940339088439941,0.5417006611824036
1761414030217654300,7.612654296875,-0.28087523579597473,-0.5165417790412903,-0.038188010454177856
1761414030227666200,7.622666259765625,-0.3214195668697357,-0.28127315640449524,-0.4918260872364044
1761414030237679400,7.632679443359375,-0.23979900777339935,-0.19889172911643982,-0.8252013921737671
1761414030247692000,7.642692138671875,-0.21484804153442383,-0.2797994315624237,-1.003122329711914
1761414030257704000,7.652703857421875,-0.1938932240009308,-0.4451763927936554,-1.0820949077606201
1761414030267717000,7.662717041015625,-0.20478998124599457,-0.5323647856712341,-1.1111036539077759
1761414030277730300,7.672730224609375,-0.2315709888935089,-0.48718079924583435,-1.1249057054519653
1761414030287742200,7.6827421875,-0.271746426820755,-0.28853926062583923,-1.0878716707229614
1761414030297755100,7.692755126953125,-0.16991886496543884,-0.09257533401250839,-1.0339887142181396
1761414030307768000,7.70276806640625,-0.14721526205539703,0.2270222008228302,-0.8603914380073547
1761414030317780000,7.712780029296875,-0.17389321327209473,0.4859621226787567,-0.6421464681625366
1761414030327793200,7.722793212890625,-0.18221449851989746,0.6309438347816467,-0.4434615969657898
1761414030337806300,7.732806396484375,-0.1436908096075058,0.596625804901123,-0.2976039946079254
1761414030347818200,7.742818359375,-0.08365197479724884,0.4522711932659149,-0.191633403301239
1761414030357831200,7.7528310546875,-0.021798191592097282,0.27566951513290405,-0.10322098433971405
1761414030367844000,7.762843994140625,0.016314180567860603,0.10348287969827652,-0.009754635393619537
1761414030377856000,7.77285595703125,0.037981923669576645,-0.07437606900930405,0.03817986696958542
1761414030387869200,7.782869140625,0.041302669793367386,-0.21338652074337006,0.05042523145675659
1761414030397882000,7.792882080078125,0.04041184484958649,-0.30328017473220825,0.04199845716357231
1761414030407894000,7.80289404296875,0.05836109817028046,-0.3490200638771057,0.030790377408266068
1761414030417907200,7.8129072265625,0.08567154407501221,-0.3265669643878937,0.00468793697655201
1761414030427920100,7.822920166015625,0.1046016663312912,-0.25028905272483826,-0.024983346462249756
1761414030437932000,7.83293212890625,0.1007470116019249,-0.141538605093956,-0.056930892169475555
1761414030447945200,7.8429453125,0.09199661016464233,-0.036110617220401764,-0.0867677628993988
1761414030457958100,7.852958251953125,0.0709879994392395,0.05365043133497238,-0.11801782995462418
1761414030467970000,7.862969970703125,0.0439903624355793,0.10514086484909058,-0.16201597452163696
1761414030477983200,7.872983154296875,0.0037060559261590242,0.1230120062828064,-0.21305492520332336
1761414030487996200,7.88299609375,-0.041407227516174316,0.11343733966350555,-0.265052855014801
1761414030498008000,7.893008056640625,-0.09256042540073395,0.07461990416049957,-0.32907843589782715
1761414030508021000,7.90302099609375,-0.1505066305398941,0.022210463881492615,-0.4038947522640228
1761414030518034200,7.9130341796875,-0.19227458536624908,-0.025669177994132042,-0.4626757800579071
1761414030528046000,7.923046142578125,-0.20173141360282898,-0.05039060488343239,-0.4945765733718872
1761414030538059300,7.933059326171875,-0.18786166608333588,-0.03891237825155258,-0.4883573055267334
1761414030548072200,7.943072265625,-0.16633035242557526,0.007697943598031998,-0.4562505781650543
1761414030558084400,7.95308447265625,-0.14429296553134918,0.0822288990020752,-0.43656688928604126
1761414030568097000,7.963096923828125,-0.1070840060710907,0.17845481634140015,-0.47222068905830383
1761414030578110200,7.973110107421875,-0.09976643323898315,0.24138104915618896,-0.5780792236328125
1761414030588122000,7.9831220703125,-0.18002372980117798,0.18859493732452393,-0.7416641116142273
1761414030598135300,7.99313525390625,-0.34231939911842346,0.09951218962669373,-0.8775503039360046
1761414030608148200,8.003148193359374,-0.5822019577026367,-0.04070359468460083,-0.9580961465835571
1761414030618160000,8.01316015625,-0.842946469783783,-0.22696401178836823,-0.9602813124656677
1761414030628173000,8.023173095703125,-1.0813475847244263,-0.5402575135231018,-0.9045552015304565
1761414030638186200,8.033186279296874,-1.2666125297546387,-1.1648039817810059,-1.0036226511001587
1761414030648198100,8.0431982421875,-1.4115546941757202,-2.1089441776275635,-1.5060943365097046
1761414030658211300,8.05321142578125,-1.363979697227478,-2.390875816345215,-2.2459702491760254
1761414030668224000,8.06322412109375,-0.8604569435119629,-1.3498080968856812,-2.896937370300293
1761414030678236200,8.073236083984375,-0.0712113082408905,0.5333871841430664,-3.274700403213501
1761414030688249000,8.0832490234375,0.3080604076385498,2.0290136337280273,-3.111556053161621
1761414030698262300,8.09326220703125,0.14712370932102203,2.187582015991211,-2.7602880001068115
1761414030708274200,8.103274169921875,-0.09019912779331207,1.9278837442398071,-1.9930036067962646
1761414030718287000,8.113287109375,-0.13275352120399475,1.0945508480072021,-0.9631978273391724
1761414030728300000,8.123300048828124,-0.03320237249135971,0.08419819921255112,0.19729866087436676
1761414030738312200,8.133312255859375,0.18178795278072357,-0.6187729835510254,1.27415931224823
1761414030748325000,8.1433251953125,0.5212679505348206,-1.0009182691574097,2.0351722240448
1761414030758338300,8.15333837890625,0.7745726704597473,-1.037597417831421,2.3603315353393555
1761414030768350200,8.16335009765625,0.8324174880981445,-0.8213900923728943,2.2987165451049805
1761414030778363100,8.173363037109375,0.6711369752883911,-0.6767538189888,1.9169626235961914
1761414030788376000,8.1833759765625,0.35336774587631226,-0.6787465810775757,1.2950855493545532
1761414030798388200,8.19338818359375,-0.014727465808391571,-0.5862648487091064,0.5478931665420532
1761414030808401200,8.203401123046875,-0.253309041261673,-0.3417228162288666,-0.2070627212524414
1761414030818414300,8.213414306640624,-0.3403339385986328,-0.09762437641620636,-0.838234543800354
1761414030828426200,8.22342626953125,-0.34157639741897583,0.03392279893159866,-1.3019287586212158
1761414030838439200,8.233439208984375,-0.26894238591194153,0.040249668061733246,-1.6351405382156372
1761414030848452000,8.2434521484375,-0.16835953295230865,-0.1064520999789238,-1.9120041131973267
1761414030858464300,8.25346435546875,-0.20899644494056702,-0.40645718574523926,-2.1224234104156494
1761414030868477200,8.263477294921875,-0.39127394556999207,-0.4450962543487549,-2.1397788524627686
1761414030878490000,8.273489990234374,-0.460498571395874,-0.11305495351552963,-1.9669029712677002
1761414030888502000,8.283501953125,-0.436617910861969,0.2028304785490036,-1.7289036512374878
1761414030898515200,8.29351513671875,-0.47676771879196167,0.32061493396759033,-1.499211311340332
1761414030908528000,8.303528076171874,-0.5134929418563843,0.363867849111557,-1.27677583694458
1761414030918540300,8.313540283203125,-0.44178152084350586,0.41840699315071106,-1.043748140335083
1761414030928553200,8.32355322265625,-0.2505546510219574,0.3781881630420685,-0.8056598901748657
1761414030938566100,8.333566162109374,0.019530367106199265,0.2172517478466034,-0.5882625579833984
1761414030948578000,8.343578125,0.29091721773147583,0.022297877818346024,-0.37123560905456543
1761414030958591200,8.35359130859375,0.5037586688995361,-0.11869385838508606,-0.12680907547473907
1761414030968604200,8.363604248046874,0.6377286314964294,-0.19809991121292114,0.12185709923505783
1761414030978616300,8.3736162109375,0.7359798550605774,-0.22356079518795013,0.33828312158584595
1761414030988629000,8.38362890625,0.7968113422393799,-0.1828644722700119,0.4980385899543762
1761414030998642200,8.39364208984375,0.8298891186714172,-0.11480099707841873,0.5952399969100952
1761414031008654000,8.403654052734375,0.8445512652397156,-0.0743657648563385,0.6271291971206665
1761414031018667300,8.413667236328125,0.8168370723724365,-0.08146095275878906,0.5884257555007935
1761414031028680200,8.42368017578125,0.7408284544944763,-0.14002913236618042,0.5102351307868958
1761414031038692400,8.4336923828125,0.6344791054725647,-0.2466602325439453,0.4130840599536896
1761414031048705000,8.443705078125,0.5179718136787415,-0.3316647708415985,0.31925514340400696
1761414031058718200,8.45371826171875,0.41039562225341797,-0.3249048590660095,0.2548559308052063
1761414031068730000,8.463730224609375,0.3375425636768341,-0.24983908236026764,0.2332017570734024
1761414031078743600,8.47374365234375,0.3164175748825073,-0.13766780495643616,0.23795229196548462
1761414031088756200,8.483756103515624,0.3519291877746582,-0.00949972216039896,0.25777530670166016
1761414031098768400,8.493768310546875,0.4331172704696655,0.09887336194515228,0.27164211869239807
1761414031108781300,8.50378125,0.5309309959411621,0.17339593172073364,0.28209710121154785
1761414031118794500,8.51379443359375,0.6077378988265991,0.22731509804725647,0.2908863425254822
1761414031128806400,8.523806396484375,0.6398378610610962,0.2556588053703308,0.30421915650367737
1761414031138819600,8.533819580078125,0.6122155785560608,0.2636754512786865,0.3321019411087036
1761414031148832300,8.543832275390624,0.5394516587257385,0.25036895275115967,0.3909215033054352
1761414031158844400,8.553844482421875,0.461195707321167,0.22312431037425995,0.47606754302978516
1761414031168857300,8.563857421875,0.43461480736732483,0.18637791275978088,0.5973545908927917
1761414031178869500,8.573869384765626,0.46663105487823486,0.16035164892673492,0.7020389437675476
1761414031188882400,8.58388232421875,0.5449730753898621,0.0970267504453659,0.7381588220596313
1761414031198895400,8.593895263671875,0.6301763653755188,-0.0684860348701477,0.7023789882659912
1761414031208907300,8.6039072265625,0.6727279424667358,-0.1936495006084442,0.6198654770851135
1761414031218920400,8.61392041015625,0.649482250213623,-0.2654925286769867,0.5148717164993286
1761414031228933400,8.623933349609375,0.6044678688049316,-0.33171749114990234,0.39445579051971436
1761414031238945500,8.633945556640626,0.5961881279945374,-0.28476303815841675,0.3251315653324127
1761414031248958500,8.64395849609375,0.6563451886177063,-0.041436031460762024,0.37118735909461975
1761414031258971400,8.653971435546875,0.7578776478767395,0.34197261929512024,0.5313533544540405
1761414031268983300,8.6639833984375,0.8366971611976624,0.8551146984100342,0.7492758631706238
1761414031278996500,8.67399658203125,0.8706226348876953,1.2658261060714722,0.879257321357727
1761414031289009400,8.684009521484375,0.8503000140190125,1.4016600847244263,0.8347986936569214
1761414031299021600,8.694021484375,0.7971680760383606,1.0898765325546265,0.5792441368103027
1761414031309034200,8.7040341796875,0.6662354469299316,0.1589794009923935,0.025022830814123154
1761414031319047400,8.71404736328125,0.5096610188484192,-0.9171363115310669,-0.7171141505241394
1761414031329059300,8.724059326171876,0.37874025106430054,-1.5717076063156128,-1.4284723997116089
1761414031339072500,8.734072509765625,0.12232974916696548,-1.487410068511963,-1.8776464462280273
1761414031349085400,8.74408544921875,-0.3341151177883148,-0.6934712529182434,-1.850687026977539
1761414031359097600,8.75409765625,-0.7146515250205994,0.1502639800310135,-1.377284049987793
1761414031369110300,8.7641103515625,-0.9348562955856323,0.4804244637489319,-0.7599661946296692
1761414031379123500,8.77412353515625,-0.9876468181610107,0.3209032714366913,-0.21932324767112732
1761414031389135400,8.78413525390625,-0.9014080166816711,-0.10911811143159866,0.13230201601982117
1761414031399148500,8.7941484375,-0.7496381998062134,-0.6221387982368469,0.2879251539707184
1761414031409161200,8.8041611328125,-0.6090497970581055,-1.1104680299758911,0.2920519709587097
1761414031419173400,8.81417333984375,-0.4771348834037781,-1.4299802780151367,0.19951164722442627
1761414031429186300,8.824186279296875,-0.36467376351356506,-1.4417392015457153,0.0827377662062645
1761414031439199500,8.834199462890625,-0.30154886841773987,-1.1630157232284546,0.00886034406721592
1761414031449211400,8.84421142578125,-0.27197012305259705,-0.6405811309814453,0.0003156184684485197
1761414031459224600,8.854224609375,-0.3013162910938263,-0.0028212026227265596,0.010986638255417347
1761414031469237200,8.8642373046875,-0.37385305762290955,0.5941362977027893,-0.03746854141354561
1761414031479249400,8.87424951171875,-0.45203468203544617,0.9575302600860596,-0.17176589369773865
1761414031489262300,8.884262451171875,-0.5309571027755737,1.0149927139282227,-0.3897008001804352
1761414031499275500,8.894275634765625,-0.5913631916046143,0.8473031520843506,-0.6403266191482544
1761414031509287400,8.904287353515626,-0.6092919111251831,0.5324500799179077,-0.8337598443031311
1761414031519300400,8.91430029296875,-0.5848116278648376,0.178189218044281,-0.890099048614502
1761414031529313300,8.924313232421875,-0.5185130834579468,-0.1505194902420044,-0.7898164391517639
1761414031539325400,8.934325439453126,-0.4099770188331604,-0.36551275849342346,-0.5730401873588562
1761414031549338400,8.94433837890625,-0.3451732099056244,-0.30850106477737427,-0.2986423373222351
1761414031559351600,8.9543515625,-0.34859803318977356,-0.09416401386260986,-0.039321038872003555
1761414031569363500,8.964363525390626,-0.3567526638507843,0.004173425026237965,0.15928222239017487
1761414031579376400,8.97437646484375,-0.34006983041763306,0.044234827160835266,0.29933813214302063
1761414031589389300,8.984389404296875,-0.2960290014743805,0.11217799782752991,0.39405685663223267
1761414031599401500,8.9944013671875,-0.23739977180957794,0.22360067069530487,0.45551037788391113
1761414031609414400,9.004414306640625,-0.16478244960308075,0.34559372067451477,0.486664354801178
1761414031619427300,9.01442724609375,-0.09717704355716705,0.4503670036792755,0.4982467293739319
1761414031629439200,9.024439208984376,-0.045077063143253326,0.5126461386680603,0.48242372274398804
1761414031639452400,9.034452392578125,-0.0000059927115216851234,0.5482746958732605,0.4527275860309601
1761414031649465300,9.04446533203125,0.04747598618268967,0.5917620658874512,0.430242121219635
1761414031659477500,9.0544775390625,0.07914575934410095,0.6041838526725769,0.4305843412876129
1761414031669490400,9.064490478515625,0.09862993657588959,0.5706486701965332,0.46825966238975525
1761414031679503400,9.07450341796875,0.11158301681280136,0.5206915140151978,0.5574532151222229
1761414031689515300,9.084515380859376,0.11555460840463638,0.5982506275177002,0.7186110615730286
1761414031699528400,9.094528564453125,0.11474953591823578,0.8185662031173706,0.9011508226394653
1761414031709541400,9.104541259765625,0.1264914721250534,0.9507095813751221,0.9856461882591248
1761414031719553500,9.114553466796876,0.14245259761810303,0.6469371914863586,0.992280125617981
1761414031729566200,9.124566162109375,0.14030256867408752,0.14210623502731323,0.9722191095352173
1761414031739579400,9.134579345703125,0.10548307001590729,-0.03709892928600311,1.0378987789154053
1761414031749591300,9.14459130859375,0.039825230836868286,0.06735675036907196,1.1718803644180298
1761414031759604500,9.1546044921875,-0.057417698204517365,0.24837209284305573,1.288408875465393
1761414031769617400,9.164617431640625,-0.17935681343078613,0.3474886119365692,1.3180965185165405
1761414031779629600,9.174629638671876,-0.3116317689418793,0.25584444403648376,1.2512305974960327
1761414031789642200,9.184642333984375,-0.44569650292396545,0.0107608363032341,1.1321501731872559
1761414031799655400,9.194655517578125,-0.5644100904464722,-0.3259716331958771,1.0169636011123657
1761414031809667300,9.204667236328126,-0.6238579750061035,-0.6265630125999451,0.9670209288597107
1761414031819680500,9.214680419921875,-0.599319338798523,-0.7154833078384399,1.0157169103622437
1761414031829693400,9.224693359375,-0.5136443972587585,-0.6231532692909241,1.1253353357315063
1761414031839705300,9.234705322265626,-0.41911178827285767,-0.42536985874176025,1.2442876100540161
1761414031849718300,9.24471826171875,-0.3551143705844879,-0.20580142736434937,1.2870395183563232
1761414031859730400,9.25473046875,-0.3114086985588074,-0.15792924165725708,1.2304478883743286
1761414031869743400,9.264743408203126,-0.2306799739599228,-0.22979286313056946,1.1786787509918213
1761414031879756500,9.274756591796875,-0.1045614555478096,-0.294528990983963,1.0883152484893799
1761414031889768400,9.2847685546875,-0.09083538502454758,-0.40748265385627747,0.8233014941215515
1761414031899781400,9.294781494140626,-0.2660522162914276,-0.45959407091140747,0.3292084336280823
1761414031909794300,9.304794189453125,-0.49295055866241455,-0.31692302227020264,-0.28018659353256226
1761414031919806500,9.314806396484375,-0.6395077705383301,-0.29502996802330017,-0.8937637209892273
1761414031929819400,9.3248193359375,-0.7185516953468323,-0.520546019077301,-1.3857314586639404
1761414031939832600,9.33483251953125,-0.7622504234313965,-0.6738501191139221,-1.6626616716384888
1761414031949844500,9.344844482421875,-0.7449862360954285,-0.6576833724975586,-1.7713563442230225
1761414031959857400,9.354857421875,-0.6593440771102905,-0.6791031360626221,-1.7832846641540527
1761414031969870300,9.364870361328125,-0.5822108387947083,-0.7400615811347961,-1.7303118705749512
1761414031979882500,9.374882568359375,-0.5309947729110718,-0.6118878722190857,-1.5584815740585327
1761414031989895400,9.3848955078125,-0.5132989883422852,-0.2809944748878479,-1.2895588874816895
1761414031999908400,9.394908447265625,-0.5146798491477966,0.04863535612821579,-1.0042275190353394
1761414032009920300,9.404920166015625,-0.4576473534107208,0.21357351541519165,-0.7403218150138855
1761414032019933400,9.414933349609376,-0.36622315645217896,0.2705393433570862,-0.5542906522750854
1761414032029946400,9.4249462890625,-0.27635008096694946,0.2519420385360718,-0.49752897024154663
1761414032039958500,9.43495849609375,-0.2004087269306183,0.09747736155986786,-0.5722996592521667
1761414032049971500,9.444971435546876,-0.1522892415523529,-0.10226869583129883,-0.6627438068389893
1761414032059984400,9.454984375,-0.1528085470199585,-0.20718446373939514,-0.656927227973938
1761414032069996300,9.464996337890625,-0.17306645214557648,-0.2512308955192566,-0.5120810270309448
1761414032080008700,9.4750087890625,-0.18286262452602386,-0.15868711471557617,-0.2300565242767334
1761414032090021600,9.485021728515624,-0.18231049180030823,0.05743800103664398,0.08687739819288254
1761414032100033500,9.495033447265625,-0.19206911325454712,0.2652335464954376,0.3061104118824005
1761414032110046700,9.505046630859376,-0.21968959271907806,0.3792189359664917,0.373014897108078
1761414032120059600,9.5150595703125,-0.2718918025493622,0.39882010221481323,0.2986144423484802
1761414032130071600,9.525071533203125,-0.32847562432289124,0.30240705609321594,0.13289208710193634
1761414032140084700,9.535084716796876,-0.36491698026657104,0.09669332206249237,-0.05989226698875427
1761414032150097700,9.54509765625,-0.351436048746109,-0.14496205747127533,-0.20656880736351013
1761414032160109600,9.555109619140625,-0.27705687284469604,-0.3099656403064728,-0.26725903153419495
1761414032170122500,9.56512255859375,-0.1540481448173523,-0.33699631690979004,-0.220966637134552
1761414032180135700,9.5751357421875,0.008619321510195732,-0.23050130903720856,-0.10205383598804474
1761414032190147600,9.585147705078125,0.1844319999217987,-0.05833069980144501,0.05281250178813934
1761414032200160800,9.595160888671876,0.34734636545181274,0.10489683598279953,0.19396057724952698
1761414032210173700,9.605173583984374,0.48825502395629883,0.24886080622673035,0.32058483362197876
1761414032220185600,9.615185546875,0.5833288431167603,0.39247334003448486,0.4179105758666992
1761414032230198500,9.625198486328125,0.5886802673339844,0.5476452708244324,0.4872223734855652
1761414032240211700,9.635211669921874,0.5089409351348877,0.6567043662071228,0.5394043922424316
1761414032250223600,9.6452236328125,0.3638097643852234,0.6846742033958435,0.5690761208534241
1761414032260236800,9.65523681640625,0.20917010307312012,0.6368923187255859,0.5853933095932007
1761414032270249700,9.665249755859374,0.07715462893247604,0.5117692947387695,0.6119152903556824
1761414032280261600,9.67526171875,-0.007995153777301311,0.34558191895484924,0.6710699796676636
1761414032290274600,9.685274658203125,-0.03380962833762169,0.19965991377830505,0.7872235774993896
1761414032300287700,9.695287841796874,0.006553507409989834,0.07164043188095093,0.9436964988708496
1761414032310299600,9.705299560546875,0.07831185311079025,-0.06456975638866425,1.1133683919906616
1761414032320312800,9.715312744140626,0.13827930390834808,-0.21243351697921753,1.2846945524215698
1761414032330325500,9.725325439453124,0.17399989068508148,-0.32072609663009644,1.4401017427444458
1761414032340337400,9.73533740234375,0.1886131912469864,-0.3727794587612152,1.5972434282302856
1761414032350350600,9.7453505859375,0.18911512196063995,-0.32827168703079224,1.7350434064865112
1761414032360362500,9.755362548828124,0.16761967539787292,-0.21377360820770264,1.8225895166397095
1761414032370375700,9.765375732421875,0.12427912652492523,-0.07559067010879517,1.8558151721954346
1761414032380388900,9.775388916015626,0.05872248858213425,0.010920790955424309,1.8335869312286377
1761414032390400800,9.78540087890625,-0.026320183649659157,0.00827217660844326,1.7484580278396606
1761414032400413400,9.795413330078125,-0.11176877468824387,-0.048441968858242035,1.6119556427001953
1761414032410426600,9.805426513671875,-0.1576068252325058,-0.10785922408103943,1.4345214366912842
1761414032420438500,9.8154384765625,-0.12859269976615906,-0.07665056735277176,1.3026286363601685
1761414032430451700,9.82545166015625,-0.03825937211513519,0.11056645214557648,1.2981946468353271
1761414032440464600,9.835464599609375,-0.015619837678968906,0.25270920991897583,1.4034379720687866
1761414032450476500,9.8454765625,-0.008675085380673409,-0.07382282614707947,1.4003548622131348
1761414032460489700,9.85548974609375,0.03481007367372513,-0.49944496154785156,1.2140684127807617
1761414032470502700,9.865502685546875,0.0671546459197998,-0.8315497040748596,0.8825696110725403
1761414032480514600,9.8755146484375,-0.0030233801808208227,-1.0546637773513794,0.4494834840297699
1761414032490527700,9.88552783203125,-0.12768474221229553,-1.183715581893921,0.014455839991569519
1761414032500540700,9.895540771484375,-0.22401820123195648,-1.1985409259796143,-0.32846394181251526
1761414032510552600,9.905552490234374,-0.3907812833786011,-1.174641489982605,-0.6013739705085754
1761414032520565800,9.915565673828125,-0.5723292231559753,-1.201324701309204,-0.8672900795936584
