time,seconds_elapsed,z,y,x
1761414006708183000,0.05018310546875,-0.2648158073425293,0.4819394648075104,0.6531081199645996
1761414006718196000,0.060196044921875,-0.2824622690677643,0.653117299079895,0.760892391204834
1761414006728209000,0.070208984375,-0.2821168601512909,0.7626025080680847,0.8356654047966003
1761414006738221000,0.080220947265625,-0.284305602312088,0.6854655146598816,0.8273513913154602
1761414006748234000,0.09023388671875,-0.2649689018726349,0.42238518595695496,0.7326198220252991
1761414006758247000,0.100246826171875,-0.17850066721439362,0.0553155392408371,0.5973293781280518
1761414006768260000,0.110260009765625,-0.03423110023140907,-0.3804503381252289,0.43265974521636963
1761414006778272000,0.12027197265625,0.13957956433296204,-0.8173405528068542,0.254542738199234
1761414006788285000,0.130284912109375,0.291666179895401,-1.1524264812469482,0.08600486814975739
1761414006798297900,0.1402978515625,0.42253854870796204,-1.2879245281219482,-0.01722385734319687
1761414006808311000,0.15031103515625,0.5351119637489319,-1.2610554695129395,-0.029847772791981697
1761414006818323000,0.160322998046875,0.6101547479629517,-1.0708495378494263,0.025156619027256966
1761414006828336000,0.170336181640625,0.6704292297363281,-0.7651907205581665,0.13866586983203888
1761414006838348800,0.180348876953125,0.7378411293029785,-0.48370838165283203,0.2569183111190796
1761414006848361000,0.19036083984375,0.8393560647964478,-0.33711761236190796,0.3655236065387726
1761414006858374000,0.200373779296875,0.9781069755554199,-0.4142458438873291,0.444562166929245
1761414006868387000,0.210386962890625,1.102726936340332,-0.7021356821060181,0.48947715759277344
1761414006878399700,0.220399658203125,1.1671744585037231,-1.0926599502563477,0.5124543309211731
1761414006888412000,0.230411865234375,1.1658109426498413,-1.4086956977844238,0.5095579028129578
1761414006898424800,0.2404248046875,1.1141222715377808,-1.5352903604507446,0.46554601192474365
1761414006908438000,0.25043798828125,1.0283762216567993,-1.5029542446136475,0.3666369915008545
1761414006918451000,0.260450927734375,0.9238930344581604,-1.3804657459259033,0.21385930478572845
1761414006928463000,0.270463134765625,0.7995215058326721,-1.1382619142532349,-0.02475912868976593
1761414006938475800,0.280475830078125,0.6504082083702087,-0.8670282363891602,-0.3152824342250824
1761414006948489000,0.290489013671875,0.48182663321495056,-0.5653709173202515,-0.6053494215011597
1761414006958502100,0.300502197265625,0.27779728174209595,-0.2285311371088028,-0.8785238265991211
1761414006968514000,0.31051416015625,0.06746508926153183,0.11364511400461197,-1.1189720630645752
1761414006978527000,0.32052685546875,-0.12814025580883026,0.433933824300766,-1.3093791007995605
1761414006988540000,0.330539794921875,-0.2973758578300476,0.6995061039924622,-1.4471758604049683
1761414006998551800,0.3405517578125,-0.42639559507369995,0.8926897644996643,-1.543173909187317
1761414007008565000,0.35056494140625,-0.5251001119613647,1.0167229175567627,-1.5863478183746338
1761414007018578200,0.360578125,-0.5947688817977905,1.094905138015747,-1.574142336845398
1761414007028590800,0.3705908203125,-0.6548700332641602,1.1700425148010254,-1.5024737119674683
1761414007038603000,0.38060302734375,-0.7024346590042114,1.2843862771987915,-1.3517767190933228
1761414007048616000,0.390615966796875,-0.7357268333435059,1.4814128875732422,-1.1351306438446045
1761414007058629400,0.40062939453125,-0.7522411346435547,1.7660560607910156,-0.8653866648674011
1761414007068642300,0.410642333984375,-0.7508102059364319,2.0925140380859375,-0.5714884400367737
1761414007078654200,0.420654296875,-0.7247086763381958,2.3856360912323,-0.27473556995391846
1761414007088667400,0.43066748046875,-0.6874353885650635,2.5990231037139893,0.013615811243653297
1761414007098680300,0.440680419921875,-0.6472002863883972,2.7521796226501465,0.29466569423675537
1761414007108692500,0.4506923828125,-0.6040738224983215,2.8729214668273926,0.5766590237617493
1761414007118705200,0.460705078125,-0.5490525960922241,2.9526968002319336,0.8304279446601868
1761414007128718300,0.47071826171875,-0.48601022362709045,2.9327399730682373,1.0243537425994873
1761414007138731300,0.480731201171875,-0.4192122519016266,2.7348477840423584,1.1506545543670654
1761414007148743400,0.490743408203125,-0.3607257604598999,2.326533317565918,1.194927453994751
1761414007158756400,0.50075634765625,-0.30414700508117676,1.7803280353546143,1.1834067106246948
1761414007168769300,0.510769287109375,-0.2591358423233032,1.2224607467651367,1.1524871587753296
1761414007178782200,0.5207822265625,-0.24531769752502441,0.6896906495094299,1.1242101192474365
1761414007188794400,0.53079443359375,-0.2596055567264557,0.21727517247200012,1.1241991519927979
1761414007198807300,0.540807373046875,-0.27717894315719604,-0.09245909750461578,1.1350674629211426
1761414007208820200,0.5508203125,-0.26690873503685,-0.24594026803970337,1.1723778247833252
1761414007218833400,0.56083349609375,-0.23135584592819214,-0.28137844800949097,1.2310477495193481
1761414007228845300,0.57084521484375,-0.1573151797056198,-0.26484209299087524,1.3104348182678223
1761414007238858200,0.580858154296875,-0.04865744337439537,-0.22536060214042664,1.4040930271148682
1761414007248871400,0.590871337890625,0.07044151425361633,-0.25870925188064575,1.4639784097671509
1761414007258883300,0.60088330078125,0.15102055668830872,-0.4903401732444763,1.4574724435806274
1761414007268896300,0.610896240234375,0.19084759056568146,-0.730134129524231,1.4209327697753906
1761414007278909400,0.620909423828125,0.2100868821144104,-0.8867294192314148,1.3480541706085205
1761414007288922400,0.63092236328125,0.24311619997024536,-1.0361745357513428,1.2093956470489502
1761414007298934300,0.640934326171875,0.29557499289512634,-1.163907527923584,1.043777585029602
1761414007308947200,0.650947265625,0.3515162765979767,-1.2192496061325073,0.8943500518798828
1761414007318960400,0.66096044921875,0.36541879177093506,-1.1391329765319824,0.7813414931297302
1761414007328973300,0.670973388671875,0.2728300094604492,-0.9882633090019226,0.6300094723701477
1761414007338985500,0.6809853515625,0.04894706606864929,-0.8165864944458008,0.37528476119041443
1761414007348998400,0.690998291015625,-0.23926688730716705,-0.5658972859382629,0.010336620733141899
1761414007359011300,0.70101123046875,-0.5401002168655396,-0.3021881580352783,-0.464918315410614
1761414007369024300,0.711024169921875,-0.7732892632484436,-0.1776220053434372,-1.0386096239089966
1761414007379036400,0.721036376953125,-0.8980361819267273,-0.20592910051345825,-1.5722569227218628
1761414007389049300,0.73104931640625,-0.9514520168304443,-0.37709712982177734,-1.9356430768966675
1761414007399062300,0.741062255859375,-0.948556125164032,-0.6960330605506897,-2.0722973346710205
1761414007409074400,0.751074462890625,-0.8565617203712463,-1.0381776094436646,-1.982427954673767
1761414007419087400,0.76108740234375,-0.702974796295166,-1.3933969736099243,-1.726065993309021
1761414007429100300,0.771100341796875,-0.5071437954902649,-1.6110401153564453,-1.3529161214828491
1761414007439113500,0.781113525390625,-0.3842736482620239,-1.507505178451538,-0.9477285146713257
1761414007449125400,0.79112548828125,-0.3296487629413605,-1.1862350702285767,-0.5220778584480286
1761414007459138300,0.80113818359375,-0.30148160457611084,-0.8099009394645691,-0.1808895468711853
1761414007469151200,0.811151123046875,-0.2949179708957672,-0.5862550735473633,-0.09861277788877487
1761414007479164400,0.821164306640625,-0.29864412546157837,-0.48563772439956665,-0.195608988404274
1761414007489176300,0.83117626953125,-0.293630450963974,-0.47055891156196594,-0.3591150939464569
1761414007499189500,0.841189453125,-0.34645265340805054,-0.46515706181526184,-0.544388473033905
1761414007509202200,0.8512021484375,-0.41116854548454285,-0.4109172821044922,-0.7130195498466492
1761414007519214300,0.86121435546875,-0.38107895851135254,-0.3175683617591858,-0.8665508031845093
1761414007529227300,0.871227294921875,-0.3608863353729248,-0.2558607757091522,-1.0267289876937866
1761414007539240400,0.881240478515625,-0.3569985628128052,-0.3223232626914978,-1.1576142311096191
1761414007549253000,0.891253173828125,-0.3888220191001892,-0.3938855826854706,-1.228742003440857
1761414007559265300,0.901265380859375,-0.4610704779624939,-0.3915446102619171,-1.2228339910507202
1761414007569278200,0.9112783203125,-0.5666493773460388,-0.31685999035835266,-1.1834211349487305
1761414007579291400,0.92129150390625,-0.6441304683685303,-0.2554421126842499,-1.1497447490692139
1761414007589304300,0.93130419921875,-0.6781438589096069,-0.23777735233306885,-1.1639362573623657
1761414007599316500,0.94131640625,-0.6689704656600952,-0.20460402965545654,-1.222322940826416
1761414007609329200,0.9513291015625,-0.6041773557662964,-0.1784331500530243,-1.262524127960205
1761414007619342300,0.96134228515625,-0.46304357051849365,-0.07077294588088989,-1.218170166015625
1761414007629355500,0.97135546875,-0.28338512778282166,0.13496477901935577,-1.0592275857925415
1761414007639367400,0.981367431640625,-0.10730414092540741,0.37645620107650757,-0.8157498240470886
1761414007649380400,0.99138037109375,0.05790000036358833,0.6289094686508179,-0.5414687395095825
1761414007659393300,1.001393310546875,0.2207709103822708,0.8889254927635193,-0.28716588020324707
1761414007669405200,1.0114052734375,0.38323652744293213,1.0814054012298584,-0.06597330421209335
1761414007679418400,1.02141845703125,0.530940055847168,1.13749098777771,0.11830621212720871
1761414007689431600,1.031431640625,0.6772639751434326,1.0447025299072266,0.26327696442604065
1761414007699444200,1.0414443359375,0.8008394241333008,0.9030738472938538,0.3886416256427765
1761414007709456400,1.051456298828125,0.879346489906311,0.7432311773300171,0.4979044497013092
1761414007719469300,1.06146923828125,0.9114077687263489,0.6126587390899658,0.5940715074539185
1761414007729482500,1.071482421875,0.8946421146392822,0.49085456132888794,0.6659720540046692
1761414007739495200,1.0814951171875,0.8346995711326599,0.35027557611465454,0.7222082614898682
1761414007749507300,1.09150732421875,0.7622136473655701,0.17804734408855438,0.7554842233657837
1761414007759520300,1.101520263671875,0.7299186587333679,-0.07226990908384323,0.7698606848716736
1761414007769533400,1.111533447265625,0.746198832988739,-0.3089525103569031,0.7563619613647461
1761414007779545300,1.12154541015625,0.7636448740959167,-0.4647144079208374,0.7579573392868042
1761414007789558500,1.13155859375,0.7571790218353271,-0.4906541407108307,0.7937963008880615
1761414007799571200,1.1415712890625,0.7465516328811646,-0.4104997515678406,0.8521968722343445
1761414007809584400,1.15158447265625,0.753842830657959,-0.28309521079063416,0.9023085236549377
1761414007819596300,1.16159619140625,0.8103621006011963,-0.11280586570501328,0.9350237250328064
1761414007829609500,1.171609375,0.9400972127914429,0.0949806198477745,0.960608959197998
1761414007839622100,1.1816220703125,1.0902366638183594,0.2709004878997803,0.9760535359382629
1761414007849635300,1.19163525390625,1.1896800994873047,0.3411480188369751,0.9228475689888
1761414007859647200,1.201647216796875,1.2240852117538452,0.2811479866504669,0.7954633831977844
1761414007869660400,1.211660400390625,1.2000741958618164,0.1271783858537674,0.6251723170280457
1761414007879673300,1.22167333984375,1.0959006547927856,-0.20015832781791687,0.40309789776802063
1761414007889686300,1.231686279296875,0.9075241684913635,-0.7615439295768738,0.12103211879730225
1761414007899698200,1.2416982421875,0.701713502407074,-1.3501957654953003,-0.06631149351596832
1761414007909711400,1.25171142578125,0.5217304229736328,-1.8667011260986328,-0.05942561849951744
1761414007919724300,1.261724365234375,0.4485727548599243,-2.034782648086548,0.21197837591171265
1761414007929736400,1.271736328125,0.4785871207714081,-1.7136551141738892,0.663904070854187
1761414007939749000,1.2817490234375,0.5429688096046448,-1.1128448247909546,1.0685228109359741
1761414007949762300,1.29176220703125,0.6174632906913757,-0.5690590143203735,1.1709908246994019
1761414007959775200,1.301775146484375,0.6977277398109436,-0.27810654044151306,0.8973658084869385
1761414007969787400,1.311787353515625,0.7094104886054993,-0.15055204927921295,0.4336511492729187
1761414007979800300,1.32180029296875,0.6249220371246338,-0.12007623165845871,0.014071233570575714
1761414007989813200,1.331813232421875,0.477296382188797,-0.17625641822814941,-0.2823478877544403
1761414007999825200,1.3418251953125,0.3647725582122803,-0.21859879791736603,-0.41882574558258057
1761414008009838300,1.35183837890625,0.3289650082588196,-0.20346511900424957,-0.46562573313713074
1761414008019851500,1.3618515625,0.35563763976097107,-0.11542021483182907,-0.4761524796485901
1761414008029864200,1.3718642578125,0.3932363986968994,0.010506822727620602,-0.5042173862457275
1761414008039876000,1.3818759765625,0.3968418538570404,0.12609122693538666,-0.5561617016792297
1761414008049889300,1.39188916015625,0.3439594507217407,0.1854533553123474,-0.5723992586135864
1761414008059902500,1.40190234375,0.25987330079078674,0.15084582567214966,-0.49709364771842957
1761414008069915600,1.41191552734375,0.16536784172058105,0.08812785148620605,-0.31327641010284424
1761414008079927600,1.421927490234375,0.06954311579465866,0.1094164028763771,-0.05821666866540909
1761414008089940500,1.4319404296875,0.0025084244552999735,0.25855767726898193,0.18161243200302124
1761414008099953400,1.441953369140625,-0.04420475289225578,0.4733838140964508,0.333514004945755
1761414008109966600,1.451966552734375,-0.08325441926717758,0.6759912371635437,0.35932403802871704
1761414008119978500,1.461978515625,-0.116801418364048,0.782342791557312,0.25496694445610046
1761414008129991400,1.471991455078125,-0.15766896307468414,0.7700424194335938,0.04870966076850891
1761414008140004400,1.48200439453125,-0.22833026945590973,0.6442762613296509,-0.20630024373531342
1761414008150016500,1.4920166015625,-0.3281673789024353,0.4863697290420532,-0.4531009793281555
1761414008160029400,1.502029541015625,-0.4346444308757782,0.36911776661872864,-0.6709306836128235
1761414008170042600,1.512042724609375,-0.5371702313423157,0.2666819393634796,-0.8346897959709167
1761414008180055300,1.52205517578125,-0.6215212941169739,0.204838827252388,-0.9453065991401672
1761414008190067500,1.5320673828125,-0.6526808142662048,0.1800282746553421,-0.9957029819488525
1761414008200080400,1.542080322265625,-0.6569434404373169,0.2122860848903656,-0.9743475317955017
1761414008210093600,1.552093505859375,-0.6469120979309082,0.2371954321861267,-0.8992767333984375
1761414008220105500,1.56210546875,-0.607197642326355,0.240426704287529,-0.7677760124206543
1761414008230118400,1.572118408203125,-0.5654571652412415,0.2681560516357422,-0.565453827381134
1761414008240131300,1.58213134765625,-0.5324978828430176,0.35825982689857483,-0.2977757453918457
1761414008250144500,1.59214453125,-0.4814371168613434,0.4561595022678375,-0.014631925150752068
1761414008260156400,1.602156494140625,-0.3962027430534363,0.5430204272270203,0.24233801662921906
1761414008270169600,1.612169677734375,-0.29154717922210693,0.6318480372428894,0.4517948627471924
1761414008280182300,1.622182373046875,-0.17627502977848053,0.7412269115447998,0.6280499696731567
1761414008290195500,1.632195556640625,-0.06657116115093231,0.8402437567710876,0.7649263143539429
1761414008300207400,1.642207275390625,0.031367771327495575,0.9023439884185791,0.8657091856002808
1761414008310220500,1.652220458984375,0.11702940613031387,0.9388988018035889,0.9385954141616821
1761414008320233500,1.6622333984375,0.18837811052799225,0.915087103843689,0.9652431011199951
1761414008330245400,1.672245361328125,0.2351488173007965,0.8090964555740356,0.9563311338424683
1761414008340258300,1.68225830078125,0.2597445249557495,0.6268393397331238,0.9258646965026855
1761414008350271500,1.692271484375,0.27078118920326233,0.40087807178497314,0.894681990146637
1761414008360284700,1.70228466796875,0.2688390910625458,0.1640922576189041,0.8769860863685608
1761414008370296600,1.712296630859375,0.2586232125759125,-0.043427642434835434,0.8618372082710266
1761414008380309200,1.722309326171875,0.2541995644569397,-0.2044984996318817,0.8483309745788574
1761414008390322400,1.732322509765625,0.24426914751529694,-0.31110456585884094,0.8474984765052795
1761414008400335600,1.742335693359375,0.22786937654018402,-0.37958377599716187,0.8406435251235962
1761414008410347500,1.752347412109375,0.20126360654830933,-0.43476980924606323,0.8079614639282227
1761414008420360400,1.7623603515625,0.16614924371242523,-0.4462907910346985,0.7503499984741211
1761414008430373400,1.772373291015625,0.13149060308933258,-0.39533838629722595,0.6754088997840881
1761414008440385300,1.78238525390625,0.10330803692340851,-0.2886969745159149,0.5870159268379211
1761414008450398500,1.7923984375,0.0981082171201706,-0.18433916568756104,0.48661792278289795
1761414008460411600,1.80241162109375,0.1210717111825943,-0.11665300279855728,0.36972033977508545
1761414008470424300,1.81242431640625,0.16987279057502747,-0.14722983539104462,0.24036099016666412
1761414008480436500,1.8224365234375,0.21426108479499817,-0.29957112669944763,0.13655635714530945
1761414008490449400,1.832449462890625,0.2503828704357147,-0.45307573676109314,0.13858488202095032
1761414008500462600,1.842462646484375,0.28852057456970215,-0.5082420706748962,0.32019051909446716
1761414008510474500,1.852474609375,0.3300677537918091,-0.47640639543533325,0.6195369958877563
1761414008520487400,1.8624873046875,0.32341963052749634,-0.47676318883895874,0.8517760634422302
1761414008530500400,1.872500244140625,0.22463448345661163,-0.6947095990180969,0.8375177979469299
1761414008540513500,1.882513427734375,0.05423005670309067,-0.9933613538742065,0.6155490279197693
1761414008550525400,1.892525390625,-0.08153630048036575,-1.1574028730392456,0.3882032334804535
1761414008560538600,1.90253857421875,-0.10293476283550262,-1.1057873964309692,0.260647714138031
1761414008570551300,1.91255126953125,-0.029065066948533058,-0.8421145081520081,0.2610168159008026
1761414008580564500,1.922564453125,0.07569026947021484,-0.5080503821372986,0.36371421813964844
1761414008590576400,1.932576416015625,0.146103173494339,-0.2479945719242096,0.4427400529384613
1761414008600589600,1.942589599609375,0.15930990874767303,-0.04170406237244606,0.4162925183773041
1761414008610602500,1.9526025390625,0.10722380131483078,0.015792250633239746,0.23943492770195007
1761414008620614700,1.96261474609375,-0.0420498363673687,-0.11765515059232712,-0.05937714874744415
1761414008630627300,1.97262744140625,-0.234392911195755,-0.2376643866300583,-0.30966341495513916
1761414008640640500,1.982640625,-0.3818805515766144,-0.27434083819389343,-0.4747321307659149
1761414008650653400,1.9926533203125,-0.4083459675312042,-0.3084716498851776,-0.625024676322937
1761414008660665600,2.00266552734375,-0.3025193214416504,-0.3952890634536743,-0.7947357296943665
1761414008670678300,2.01267822265625,-0.13287648558616638,-0.44557568430900574,-0.9383240938186646
1761414008680691500,2.02269140625,0.03698468208312988,-0.2994774580001831,-0.959642231464386
1761414008690704400,2.032704345703125,0.114495187997818,-0.022303126752376556,-0.8727225065231323
1761414008700716500,2.042716552734375,0.09196723997592926,0.18131671845912933,-0.8264915347099304
1761414008710729500,2.0527294921875,0.046799492090940475,0.33392781019210815,-0.9069464802742004
1761414008720742400,2.062742431640625,0.0049772122874855995,0.49508315324783325,-1.0917506217956543
1761414008730754300,2.07275439453125,-0.07311466336250305,0.7083288431167603,-1.299487829208374
1761414008740767500,2.082767578125,-0.15689386427402496,0.9075456261634827,-1.5207139253616333
1761414008750780400,2.092780517578125,-0.22921200096607208,0.9974480867385864,-1.742568016052246
1761414008760793300,2.10279345703125,-0.32275739312171936,0.922597348690033,-1.929722547531128
1761414008770805200,2.11280517578125,-0.41494935750961304,0.7403466105461121,-2.023130416870117
1761414008780818400,2.122818359375,-0.49686065316200256,0.49799567461013794,-2.000218391418457
1761414008790831600,2.13283154296875,-0.5841971039772034,0.25767257809638977,-1.866599202156067
1761414008800843500,2.142843505859375,-0.6653936505317688,0.09481219947338104,-1.6274880170822144
1761414008810856400,2.1528564453125,-0.713724672794342,0.011606255546212196,-1.3139382600784302
1761414008820869400,2.162869384765625,-0.7084686756134033,-0.016670122742652893,-0.9520438313484192
1761414008830882600,2.172882568359375,-0.6429346799850464,0.026403311640024185,-0.5801235437393188
1761414008840894500,2.18289453125,-0.5420294404029846,0.0860583484172821,-0.2575809061527252
1761414008850907600,2.19290771484375,-0.4257960617542267,0.133175790309906,-0.0036058849655091763
1761414008860920300,2.20292041015625,-0.3264329433441162,0.15136000514030457,0.1887151300907135
1761414008870933500,2.21293359375,-0.2543502151966095,0.15061405301094055,0.3297332227230072
1761414008880945400,2.2229453125,-0.20336177945137024,0.12550011277198792,0.4277309775352478
1761414008890958600,2.23295849609375,-0.15478278696537018,0.1024126335978508,0.4996941089630127
1761414008900971500,2.242971435546875,-0.10006550699472427,0.06685208529233932,0.5624629855155945
1761414008910983700,2.252983642578125,-0.057888224720954895,0.002888016402721405,0.5973168611526489
1761414008920996400,2.262996337890625,-0.020314637571573257,-0.03254728019237518,0.605169415473938
1761414008931009500,2.273009521484375,0.026619581505656242,-0.013533108867704868,0.5736098885536194
1761414008941022500,2.2830224609375,0.09628897905349731,0.026582768186926842,0.5179221630096436
1761414008951034600,2.29303466796875,0.1940315067768097,0.06904527544975281,0.4614569842815399
1761414008961047300,2.30304736328125,0.34106937050819397,0.12221657484769821,0.4027937948703766
1761414008971060500,2.313060546875,0.5679389834403992,0.18309323489665985,0.3434593677520752
1761414008981073400,2.323073486328125,0.8238028883934021,0.19501951336860657,0.31475529074668884
1761414008991085600,2.33308544921875,0.9860005974769592,0.11820409446954727,0.34390732645988464
1761414009001098500,2.343098388671875,1.0170387029647827,0.0020880172960460186,0.4010608494281769
1761414009011111400,2.353111328125,0.8955351710319519,-0.007675664033740759,0.4691682457923889
1761414009021123300,2.363123291015625,0.6433687210083008,0.0712207779288292,0.5225250124931335
1761414009031136500,2.373136474609375,0.28209391236305237,0.16222338378429413,0.594152569770813
1761414009041149400,2.3831494140625,-0.11434225738048553,0.21484284102916718,0.7158786654472351
1761414009051162400,2.393162353515625,-0.4369645118713379,0.190812349319458,0.8750759959220886
1761414009061174800,2.4031748046875,-0.5734898447990417,0.11188650131225586,0.9889986515045166
1761414009071187700,2.413187744140625,-0.5565052628517151,-0.027496689930558205,1.0091474056243896
1761414009081201000,2.423200927734375,-0.49186983704566956,-0.20849470794200897,0.9164023995399475
1761414009091212800,2.433212890625,-0.40460923314094543,-0.36702707409858704,0.731056809425354
1761414009101225700,2.443225830078125,-0.31424281001091003,-0.5336993932723999,0.44469112157821655
1761414009111238700,2.45323876953125,-0.2374950498342514,-0.7157914638519287,0.0970735102891922
1761414009121251800,2.463251953125,-0.18396545946598053,-0.7517627477645874,-0.1264781355857849
1761414009131263700,2.473263671875,-0.1491270661354065,-0.5941177010536194,-0.11091728508472443
1761414009141277000,2.48327685546875,-0.13317452371120453,-0.29375767707824707,0.13085360825061798
1761414009151289900,2.493289794921875,-0.013595672324299812,0.21841561794281006,0.5320636034011841
1761414009161302800,2.503302734375,0.1705397665500641,0.526271641254425,0.7911964058876038
1761414009171314700,2.513314697265625,0.3277701139450073,0.39260178804397583,0.7065587639808655
1761414009181328000,2.523327880859375,0.42961564660072327,-0.0008685053326189518,0.32456496357917786
1761414009191340800,2.5333408203125,0.4704674780368805,-0.41717517375946045,-0.09722837060689926
1761414009201353000,2.54335302734375,0.44598183035850525,-0.7086367011070251,-0.32347092032432556
1761414009211366000,2.553365966796875,0.3726564943790436,-0.8741998076438904,-0.3459804952144623
1761414009221378800,2.56337890625,0.31534284353256226,-0.9054328799247742,-0.27970775961875916
1761414009231392000,2.57339208984375,0.31823980808258057,-0.7347402572631836,-0.18696533143520355
1761414009241404000,2.58340380859375,0.3753198981285095,-0.3974252939224243,-0.156288281083107
1761414009251416800,2.593416748046875,0.46239060163497925,0.006987669970840216,-0.22097592055797577
1761414009261429800,2.6034296875,0.5315374732017517,0.3516829013824463,-0.25666293501853943
1761414009271442000,2.61344189453125,0.5710619688034058,0.5567827820777893,-0.13509443402290344
1761414009281454800,2.623454833984375,0.5973016023635864,0.6272962689399719,0.15744644403457642
1761414009291468000,2.633468017578125,0.5967149138450623,0.5971401929855347,0.5263108015060425
1761414009301480700,2.643480712890625,0.5258762836456299,0.468929260969162,0.7938972115516663
1761414009311492900,2.653492919921875,0.40271517634391785,0.3218892216682434,0.8784549236297607
1761414009321505800,2.663505859375,0.2604701519012451,0.21510805189609528,0.791802167892456
1761414009331519000,2.67351904296875,0.08575507253408432,0.12862350046634674,0.5545730590820312
1761414009341531600,2.68353173828125,-0.10348010063171387,0.0936889499425888,0.23436738550662994
1761414009351543800,2.693543701171875,-0.29570627212524414,0.13507048785686493,-0.08211787790060043
1761414009361556700,2.703556640625,-0.4600769579410553,0.2626010775566101,-0.3238309621810913
1761414009371570000,2.71356982421875,-0.589328408241272,0.3890565037727356,-0.47482049465179443
1761414009381581800,2.723581787109375,-0.6562337279319763,0.45015230774879456,-0.5479194521903992
1761414009391595000,2.733594970703125,-0.6338813304901123,0.3817466199398041,-0.5315769910812378
1761414009401607700,2.743607666015625,-0.5761814713478088,0.15141437947750092,-0.47037407755851746
1761414009411620900,2.753620849609375,-0.4905288815498352,-0.12037426233291626,-0.3531510531902313
1761414009421632800,2.7636328125,-0.42890483140945435,-0.29745593667030334,-0.21335949003696442
1761414009431646000,2.77364599609375,-0.4466633200645447,-0.34320583939552307,-0.09376277774572372
1761414009441658600,2.78365869140625,-0.49473607540130615,-0.2701508104801178,-0.015814244747161865
1761414009451670800,2.7936708984375,-0.5558231472969055,-0.15686234831809998,-0.02720937877893448
1761414009461683700,2.80368359375,-0.5960591435432434,0.020389964804053307,-0.07623505592346191
1761414009471697000,2.81369677734375,-0.5896920561790466,0.2017831951379776,-0.14372675120830536
1761414009481709800,2.823709716796875,-0.5548256039619446,0.35247182846069336,-0.2053106427192688
1761414009491722000,2.833721923828125,-0.5010446906089783,0.46774861216545105,-0.2231820523738861
1761414009501734700,2.843734619140625,-0.4178488552570343,0.5545138716697693,-0.1695433109998703
1761414009511747800,2.853747802734375,-0.33334624767303467,0.5516858696937561,-0.07420853525400162
1761414009521759700,2.863759765625,-0.25139912962913513,0.4792383015155792,0.045246709138154984
1761414009531773000,2.87377294921875,-0.17628228664398193,0.37937217950820923,0.16881126165390015
1761414009541785600,2.88378564453125,-0.12943248450756073,0.2344587743282318,0.25234973430633545
1761414009551798800,2.893798828125,-0.1122649535536766,0.0862426832318306,0.28296545147895813
1761414009561810700,2.903810791015625,-0.11964446306228638,-0.07983878254890442,0.2606648802757263
1761414009571823900,2.913823974609375,-0.11557088792324066,-0.20988307893276215,0.22781851887702942
1761414009581837000,2.923837158203125,-0.08593233674764633,-0.29160377383232117,0.2104201316833496
1761414009591849700,2.933849609375,-0.028143875300884247,-0.3870738446712494,0.2028205394744873
1761414009601861600,2.943861572265625,0.04816736653447151,-0.49367713928222656,0.21729867160320282
1761414009611874800,2.953874755859375,0.12972481548786163,-0.5487009286880493,0.2524026036262512
1761414009621888000,2.963887939453125,0.20836487412452698,-0.5297573208808899,0.3070128262042999
1761414009631900000,2.97389990234375,0.2712295949459076,-0.4460134506225586,0.3655379116535187
1761414009641912800,2.983912841796875,0.3005271255970001,-0.33822259306907654,0.3794628381729126
1761414009651925800,2.99392578125,0.31818071007728577,-0.22890834510326385,0.32793042063713074
1761414009661939000,3.00393896484375,0.326171875,-0.12207853049039841,0.20911793410778046
1761414009671950800,3.013950927734375,0.31139612197875977,-0.08115480095148087,0.02363196387887001
1761414009681964000,3.023964111328125,0.25817519426345825,-0.17990003526210785,-0.24150405824184418
1761414009691976700,3.033976806640625,0.17359933257102966,-0.3599901795387268,-0.5295659303665161
1761414009701988900,3.04398876953125,0.09279292821884155,-0.498760849237442,-0.7984827756881714
1761414009712001800,3.054001708984375,0.06728197634220123,-0.4995773732662201,-0.9496116042137146
1761414009722015000,3.064014892578125,0.1197938472032547,-0.34782445430755615,-0.8786853551864624
1761414009732027600,3.074027587890625,0.23881077766418457,0.005533583927899599,-0.5976089835166931
1761414009742039800,3.084039794921875,0.40314334630966187,0.4587929844856262,-0.2667429447174072
1761414009752052700,3.094052734375,0.5466863512992859,0.7688999772071838,-0.13758817315101624
1761414009762066000,3.10406591796875,0.5719838738441467,0.7290160059928894,-0.3352711796760559
1761414009772078800,3.114078857421875,0.4148067533969879,0.4393692910671234,-0.7388439178466797
1761414009782091000,3.124091064453125,0.20318768918514252,0.16490493714809418,-1.0191514492034912
1761414009792103700,3.134103759765625,0.08942491561174393,-0.011278076097369194,-0.9815627932548523
1761414009802116900,3.144116943359375,0.07586667686700821,-0.10632913559675217,-0.6741107702255249
1761414009812128800,3.154128662109375,0.14120733737945557,-0.07792545109987259,-0.2184639275074005
1761414009822142000,3.164141845703125,0.2693834602832794,-0.03709172457456589,0.18032965064048767
1761414009832154600,3.174154541015625,0.4198664426803589,-0.07866499572992325,0.36434558033943176
1761414009842167800,3.184167724609375,0.5282467007637024,-0.11187794059515,0.38690483570098877
1761414009852179700,3.1941796875,0.5364654660224915,-0.1185491606593132,0.36877110600471497
1761414009862193000,3.20419287109375,0.4613005816936493,-0.09068576246500015,0.4312687814235687
1761414009872205800,3.214205810546875,0.3544872999191284,-0.0022392524406313896,0.6363487243652344
1761414009882218800,3.22421875,0.28731808066368103,0.15207666158676147,0.8982494473457336
1761414009892230700,3.234230712890625,0.28179123997688293,0.30178016424179077,1.0678240060806274
1761414009902243800,3.244243896484375,0.30652713775634766,0.41853067278862,1.0774426460266113
1761414009912256800,3.2542568359375,0.33435264229774475,0.5075631141662598,0.9574862122535706
1761414009922269000,3.26426904296875,0.32057544589042664,0.5104625821113586,0.7515233755111694
1761414009932281900,3.27428173828125,0.2371591329574585,0.3692324459552765,0.4825552999973297
1761414009942294800,3.284294677734375,0.0913279578089714,0.15827910602092743,0.2005196064710617
1761414009952306700,3.294306640625,-0.09226077795028687,-0.03157338500022888,-0.0116720050573349
1761414009962320000,3.30431982421875,-0.23462936282157898,-0.15562276542186737,-0.1303781270980835
1761414009972332800,3.314332763671875,-0.2854853570461273,-0.25517702102661133,-0.16626955568790436
1761414009982345700,3.324345703125,-0.23611575365066528,-0.44744133949279785,-0.1970490664243698
1761414009992357600,3.334357666015625,-0.15202005207538605,-0.6191587448120117,-0.27414172887802124
1761414010002370800,3.344370849609375,-0.11809507012367249,-0.6873928308486938,-0.4126920998096466
1761414010012384000,3.354384033203125,-0.13796359300613403,-0.604894757270813,-0.5444360375404358
1761414010022397000,3.36439697265625,-0.20386232435703278,-0.41924411058425903,-0.6344109177589417
1761414010032408800,3.374408935546875,-0.2930057644844055,-0.19886992871761322,-0.6813797950744629
1761414010042421800,3.384421875,-0.3949612081050873,-0.01784902811050415,-0.7131696343421936
1761414010052435000,3.39443505859375,-0.4857121706008911,0.09984911233186722,-0.7404558062553406
1761414010062446000,3.404446044921875,-0.5228897333145142,0.13638043403625488,-0.7354694604873657
1761414010072459300,3.414459228515625,-0.5121926069259644,0.07286590337753296,-0.6968719959259033
1761414010082472200,3.42447216796875,-0.4302051365375519,-0.025401581078767776,-0.5561221241950989
1761414010092485000,3.434485107421875,-0.2855773866176605,-0.1281319558620453,-0.3150745928287506
1761414010102497000,3.4444970703125,-0.11673042923212051,-0.20207442343235016,-0.05494019761681557
1761414010112510200,3.45451025390625,0.022430922836065292,-0.19506044685840607,0.1285526603460312
1761414010122523400,3.4645234375,0.09702392667531967,-0.11448211222887039,0.2151254564523697
1761414010132535300,3.474535400390625,0.08435207605361938,-0.017042113468050957,0.1859758198261261
1761414010142548000,3.4845478515625,0.03895149752497673,0.09405107796192169,0.05522189289331436
1761414010152561200,3.49456103515625,-0.018844954669475555,0.21794959902763367,-0.12257367372512817
1761414010162574300,3.50457421875,-0.09497837722301483,0.2851952016353607,-0.2912185788154602
1761414010172586200,3.514586181640625,-0.1646844893693924,0.27900147438049316,-0.3679647445678711
1761414010182599400,3.524599365234375,-0.20012077689170837,0.19928601384162903,-0.3597170114517212
1761414010192612000,3.534612060546875,-0.17645379900932312,0.07537870854139328,-0.27413472533226013
1761414010202625300,3.544625244140625,-0.0872957706451416,-0.05286385491490364,-0.13197888433933258
1761414010212637200,3.55463720703125,0.03107801266014576,-0.12217075377702713,0.03381701931357384
1761414010222650400,3.564650390625,0.12838970124721527,-0.12379179894924164,0.1802176982164383
1761414010232663000,3.5746630859375,0.18822133541107178,-0.0308418869972229,0.2806822657585144
1761414010242675200,3.58467529296875,0.20630982518196106,0.0883851870894432,0.28142815828323364
1761414010252688100,3.594688232421875,0.18654464185237885,0.14385856688022614,0.1839439570903778
1761414010262701300,3.604701416015625,0.14210496842861176,0.08837997168302536,0.06367599219083786
1761414010272714200,3.61471435546875,0.10007469356060028,-0.017489731311798096,-0.0028519018087536097
1761414010282726400,3.624726318359375,0.0933753252029419,-0.09358099848031998,-0.005170696415007114
1761414010292739000,3.634739013671875,0.11046509444713593,-0.0782579705119133,0.04238084331154823
1761414010302752300,3.644752197265625,0.1742902249097824,0.1069478765130043,0.10944102704524994
1761414010312764200,3.65476416015625,0.25652623176574707,0.20838527381420135,0.06310361623764038
1761414010322777300,3.66477734375,0.26614245772361755,-0.0020568622276186943,-0.06421410292387009
1761414010332790000,3.6747900390625,0.2204980105161667,-0.24739499390125275,-0.1403331160545349
1761414010342803200,3.68480322265625,0.20172899961471558,-0.47223028540611267,-0.17556165158748627
1761414010352815000,3.694815185546875,0.19875743985176086,-0.6361963152885437,-0.17212457954883575
1761414010362828300,3.704828369140625,0.1635504961013794,-0.699786365032196,-0.07977702468633652
1761414010372841200,3.71484130859375,0.112297423183918,-0.6674845814704895,0.05316292122006416
1761414010382853400,3.724853271484375,0.11041434109210968,-0.4785110354423523,0.1367889791727066
1761414010392866000,3.734865966796875,0.19789466261863708,-0.21846430003643036,0.09215466678142548
1761414010402879200,3.744879150390625,0.2988061308860779,-0.0706670805811882,-0.12388648837804794
1761414010412892200,3.75489208984375,0.33188045024871826,-0.03611922636628151,-0.42957425117492676
1761414010422904300,3.764904296875,0.2618304491043091,-0.09470614045858383,-0.6822163462638855
1761414010432917000,3.7749169921875,0.11771056801080704,-0.23484382033348083,-0.811876654624939
1761414010442930200,3.78493017578125,-0.03902604803442955,-0.38404154777526855,-0.7631711363792419
1761414010452942000,3.794942138671875,-0.1323232352733612,-0.4160327911376953,-0.5459309816360474
1761414010462955300,3.804955322265625,-0.14163105189800262,-0.22220662236213684,-0.17379087209701538
1761414010472968200,3.81496826171875,-0.09321559220552444,0.15590207278728485,0.35308703780174255
1761414010482981000,3.824981201171875,-0.025955861434340477,0.46496710181236267,0.8453580737113953
1761414010492993000,3.834992919921875,0.024970702826976776,0.4889499247074127,1.0887784957885742
1761414010503006200,3.845006103515625,0.006144360173493624,0.34720441699028015,1.1510651111602783
1761414010513019100,3.85501904296875,-0.08402840793132782,0.17011965811252594,1.1046379804611206
1761414010523032000,3.865031982421875,-0.23982983827590942,0.009023522026836872,1.0001647472381592
1761414010533044200,3.875044189453125,-0.3997739553451538,-0.11883804202079773,0.876663863658905
1761414010543057200,3.88505712890625,-0.5267384648323059,-0.20369522273540497,0.7797311544418335
1761414010553070300,3.8950703125,-0.6379574537277222,-0.2557022273540497,0.70356285572052
1761414010563082200,3.905082275390625,-0.7420770525932312,-0.3098416030406952,0.5987123847007751
1761414010573095400,3.915095458984375,-0.8478959202766418,-0.3493490517139435,0.4560583233833313
1761414010583108000,3.925108154296875,-0.952825129032135,-0.37590736150741577,0.3055761158466339
1761414010593121300,3.935121337890625,-1.0270318984985352,-0.362595796585083,0.22068414092063904
1761414010603133200,3.94513330078125,-1.0522738695144653,-0.2903796434402466,0.21311981976032257
1761414010613146400,3.955146484375,-1.0332189798355103,-0.2049691379070282,0.2653990089893341
1761414010623159300,3.9651591796875,-0.9816652536392212,-0.15395429730415344,0.3397628962993622
1761414010633171200,3.975171142578125,-0.8902759552001953,-0.19684050977230072,0.3973897099494934
1761414010643184000,3.98518408203125,-0.752214789390564,-0.33463460206985474,0.426413893699646
1761414010653197300,3.995197265625,-0.5946946740150452,-0.4652664065361023,0.4242921471595764
1761414010663210200,4.005210205078125,-0.44892436265945435,-0.5950222611427307,0.35394051671028137
1761414010673222400,4.015222412109375,-0.36157241463661194,-0.6255785226821899,0.24261851608753204
1761414010683235000,4.025235107421875,-0.3385428488254547,-0.46736979484558105,0.15705515444278717
1761414010693248300,4.035248291015625,-0.33749568462371826,-0.16619424521923065,0.1010584756731987
1761414010703260200,4.04526025390625,-0.30774807929992676,0.201986625790596,0.06926539540290833
1761414010713273300,4.0552734375,-0.238608717918396,0.49757084250450134,0.07164732366800308
1761414010723286300,4.065286376953125,-0.1444426327943802,0.6522586345672607,0.10302145034074783
1761414010733299200,4.07529931640625,-0.05632662773132324,0.6374421715736389,0.14266899228096008
1761414010743311000,4.08531103515625,0.011380324140191078,0.4535791575908661,0.1727708876132965
1761414010753324300,4.09532421875,0.07264581322669983,0.17516271770000458,0.1800684779882431
1761414010763337200,4.105337158203125,0.14322592318058014,-0.11527340114116669,0.12865129113197327
1761414010773349400,4.115349365234375,0.20745177567005157,-0.360827773809433,0.022780798375606537
1761414010783362000,4.125362060546875,0.22510001063346863,-0.5615102648735046,-0.09955203533172607
1761414010793375200,4.135375244140625,0.21170325577259064,-0.6571129560470581,-0.1774337887763977
1761414010803388200,4.14538818359375,0.1902337670326233,-0.6034864187240601,-0.17325131595134735
1761414010813400300,4.155400390625,0.17862717807292938,-0.4592656195163727,-0.11661919206380844
1761414010823413200,4.165413330078125,0.18610069155693054,-0.23444439470767975,-0.04670318588614464
1761414010833426200,4.17542626953125,0.20533990859985352,0.0004890244454145432,-0.02806425280869007
1761414010843438000,4.18543798828125,0.22179855406284332,0.12017934769392014,-0.1310396045446396
1761414010853451300,4.195451171875,0.23161575198173523,0.16060161590576172,-0.3433619737625122
1761414010863464200,4.205464111328125,0.23030923306941986,0.1474674642086029,-0.582160234451294
1761414010873477000,4.21547705078125,0.2296663522720337,0.16724862158298492,-0.7516916990280151
1761414010883489000,4.225489013671875,0.2540094554424286,0.3070564270019531,-0.8418334722518921
1761414010893502200,4.235502197265625,0.3305574953556061,0.44335728883743286,-0.9844963550567627
1761414010903515100,4.24551513671875,0.3889225125312805,0.38521140813827515,-1.2019892930984497
1761414010913527300,4.25552734375,0.3841748833656311,0.2538839876651764,-1.3590505123138428
1761414010923540200,4.265540283203125,0.3600883483886719,0.28789541125297546,-1.383978009223938
1761414010933553200,4.27555322265625,0.38052383065223694,0.5230011343955994,-1.1643524169921875
1761414010943566300,4.28556640625,0.4585234522819519,0.8290679454803467,-0.7099255323410034
1761414010953578200,4.295578125,0.4848826229572296,1.0431828498840332,-0.2121511548757553
1761414010963591200,4.305591064453125,0.48438379168510437,1.0110783576965332,-0.016623230651021004
1761414010973604000,4.31560400390625,0.5441906452178955,0.9501628279685974,-0.11321235448122025
1761414010983616000,4.325615966796875,0.6080964207649231,0.9921122789382935,-0.3406502604484558
1761414010993629200,4.335629150390625,0.6466459631919861,1.0782824754714966,-0.5130401253700256
1761414011003642400,4.345642333984375,0.6681262254714966,1.0710113048553467,-0.5845990180969238
1761414011013655300,4.3556552734375,0.6900064945220947,0.8124727606773376,-0.6302184462547302
1761414011023667200,4.365667236328125,0.6507254242897034,0.2520192861557007,-0.6920394897460938
1761414011033680100,4.37568017578125,0.5564146041870117,-0.4389090836048126,-0.732962429523468
1761414011043693300,4.385693359375,0.46610027551651,-1.0170344114303589,-0.6440541744232178
1761414011053706200,4.395706298828125,0.39969539642333984,-1.250441551208496,-0.356558233499527
1761414011063719000,4.405718994140625,0.35051193833351135,-0.9629114866256714,0.16860811412334442
1761414011073731600,4.415731689453125,0.36300376057624817,-0.3154507577419281,0.8243359327316284
1761414011083744800,4.425744873046875,0.4807949364185333,0.25591081380844116,1.2693631649017334
1761414011093756700,4.435756591796875,0.6378354430198669,0.5416211485862732,1.3026849031448364
1761414011103769900,4.445769775390625,0.6871734261512756,0.6064692735671997,1.095507025718689
1761414011113782500,4.455782470703125,0.5880889296531677,0.5654038190841675,0.8276481032371521
1761414011123795700,4.465795654296875,0.3959801495075226,0.507902979850769,0.5943723320960999
1761414011133807600,4.4758076171875,0.17325253784656525,0.4368402361869812,0.4605322480201721
1761414011143820800,4.48582080078125,-0.04538431018590927,0.3095012903213501,0.40979310870170593
1761414011153833700,4.495833740234375,-0.2265024185180664,0.13530975580215454,0.40846869349479675
1761414011163846000,4.505845947265625,-0.3510779142379761,-0.05514899268746376,0.38114723563194275
1761414011173858600,4.515858642578125,-0.45092836022377014,-0.21262836456298828,0.3499507009983063
1761414011183871700,4.525871826171875,-0.5332087278366089,-0.3341918885707855,0.343972772359848
1761414011193884700,4.535884765625,-0.5616379976272583,-0.3585694134235382,0.3650013506412506
1761414011203896800,4.545896728515625,-0.547753095626831,-0.27705568075180054,0.393557608127594
1761414011213909500,4.555909423828125,-0.5057979226112366,-0.16044196486473083,0.3595471680164337
1761414011223922700,4.565922607421875,-0.4597186744213104,-0.02894578129053116,0.2399938702583313
1761414011233934600,4.5759345703125,-0.4034298360347748,0.09555938839912415,0.029254471883177757
1761414011243947800,4.58594775390625,-0.36784395575523376,0.18346458673477173,-0.24571079015731812
1761414011253960700,4.595960693359375,-0.3723694682121277,0.19937191903591156,-0.5043186545372009
1761414011263973600,4.6059736328125,-0.3986707925796509,0.1415226012468338,-0.6475655436515808
1761414011273985500,4.615985595703125,-0.4143773317337036,0.08077563345432281,-0.6041269898414612
1761414011283998700,4.625998779296875,-0.3841547667980194,0.031107403337955475,-0.40518078207969666
1761414011294011600,4.63601171875,-0.322581946849823,-0.039662376046180725,-0.13629846274852753
1761414011304023800,4.64602392578125,-0.23619243502616882,-0.121331125497818,0.11576783657073975
1761414011314036500,4.656036376953125,-0.14545480906963348,-0.2224271148443222,0.2726597189903259
1761414011324049700,4.666049560546875,-0.07585753500461578,-0.32240334153175354,0.32154107093811035
1761414011334062800,4.676062744140625,-0.03576098009943962,-0.41774263978004456,0.25367918610572815
1761414011344074800,4.68607470703125,-0.01467281486839056,-0.48948970437049866,0.11521442979574203
1761414011354087700,4.696087646484375,-0.027024822309613228,-0.5476787090301514,-0.044196002185344696
1761414011364100600,4.7061005859375,-0.042123422026634216,-0.5790968537330627,-0.17593558132648468
1761414011374112500,4.716112548828125,-0.043194010853767395,-0.5800241827964783,-0.2546016275882721
1761414011384125700,4.726125732421875,-0.021157914772629738,-0.557935893535614,-0.27501800656318665
1761414011394139000,4.736138916015625,0.028068488463759422,-0.5451910495758057,-0.2715044915676117
1761414011404151600,4.746151611328125,0.09202004224061966,-0.559880793094635,-0.24765631556510925
1761414011414163700,4.756163818359375,0.1533220261335373,-0.6163208484649658,-0.2456062138080597
1761414011424176600,4.7661767578125,0.18374483287334442,-0.6554345488548279,-0.2908426821231842
1761414011434189800,4.77618994140625,0.1533600240945816,-0.6874001622200012,-0.37388351559638977
1761414011444201700,4.78620166015625,0.0825311616063118,-0.6512650847434998,-0.4219738245010376
1761414011454215000,4.79621484375,0.027790416032075882,-0.5061065554618835,-0.3972266614437103
1761414011464227600,4.8062275390625,0.03184690326452255,-0.17914479970932007,-0.33852729201316833
1761414011474240800,4.81624072265625,0.08039845526218414,0.04538283869624138,-0.3017610013484955
1761414011484252700,4.826252685546875,0.1577082723379135,-0.102081798017025,-0.3258918523788452
1761414011494265900,4.836265869140625,0.2686574459075928,-0.48956772685050964,-0.5119043588638306
1761414011504278800,4.84627880859375,0.38513869047164917,-0.7723914980888367,-0.7705661654472351
1761414011514290700,4.856290771484375,0.4975549876689911,-0.850756049156189,-0.9177468419075012
1761414011524303600,4.8663037109375,0.5532167553901672,-0.7885631918907166,-0.8571810126304626
1761414011534316800,4.87631689453125,0.4900154173374176,-0.7320274710655212,-0.6162732839584351
1761414011544329700,4.886329833984375,0.33747220039367676,-0.6745542287826538,-0.2703244686126709
1761414011554342000,4.896341796875,0.18270736932754517,-0.6249430179595947,-0.027166668325662613
1761414011564354600,4.9063544921875,0.08274843543767929,-0.5140767097473145,0.04980030655860901
1761414011574367700,4.91636767578125,-0.00242983759380877,-0.4103548526763916,0.031049789860844612
1761414011584379600,4.926379638671875,-0.09303458034992218,-0.32419919967651367,0.02489538863301277
1761414011594392800,4.936392822265625,-0.12709134817123413,-0.16610224545001984,0.12370505183935165
1761414011604405800,4.94640576171875,-0.09530229866504669,0.01098623126745224,0.240384042263031
1761414011614418700,4.956418701171875,-0.02951795607805252,0.12717756628990173,0.28996437788009644
1761414011624430600,4.9664306640625,0.052109602838754654,0.11375006288290024,0.3169465661048889
1761414011634443800,4.97644384765625,0.10812680423259735,-0.05476517975330353,0.3615931272506714
1761414011644456700,4.986456787109375,0.13096767663955688,-0.19226977229118347,0.49525436758995056
1761414011654468900,4.99646875,0.12179601192474365,-0.1762135773897171,0.7654479742050171
1761414011664481500,5.0064814453125,0.09960731118917465,-0.1653955727815628,1.024579405784607
1761414011674494700,5.01649462890625,0.0935363695025444,-0.2805258631706238,1.1133912801742554
1761414011684507600,5.026507568359375,0.07378507405519485,-0.40688833594322205,1.0362162590026855
1761414011694519800,5.036519775390625,0.013600561767816544,-0.34300389885902405,0.9288421869277954
1761414011704532700,5.04653271484375,-0.09167564660310745,-0.09677700698375702,0.8231845498085022
1761414011714545700,5.056545654296875,-0.21560558676719666,0.20661614835262299,0.6966801285743713
1761414011724557600,5.0665576171875,-0.32422688603401184,0.4468928277492523,0.547056257724762
1761414011734570800,5.07657080078125,-0.38930386304855347,0.5752257704734802,0.3806568384170532
1761414011744583700,5.086583740234375,-0.4293307065963745,0.5631075501441956,0.20725788176059723
1761414011754596600,5.0965966796875,-0.4496586322784424,0.4682678282260895,0.07743677496910095
1761414011764608500,5.1066083984375,-0.471892386674881,0.3069586753845215,-0.008247241377830505
1761414011774621700,5.11662158203125,-0.4953867793083191,0.12155312299728394,-0.07480655610561371
1761414011784634600,5.126634521484375,-0.5176337957382202,-0.04563800245523453,-0.11621162295341492
1761414011794647800,5.136647705078125,-0.5268179178237915,-0.16730211675167084,-0.12752874195575714
1761414011804659700,5.14665966796875,-0.526025116443634,-0.21831215918064117,-0.11932467669248581
1761414011814672600,5.156672607421875,-0.529832124710083,-0.1478760838508606,-0.09638261049985886
1761414011824685800,5.166685791015625,-0.5235911011695862,0.02428642474114895,-0.05876535922288895
1761414011834697700,5.17669775390625,-0.506659746170044,0.25325942039489746,-0.031010426580905914
1761414011844710700,5.186710693359375,-0.4758843779563904,0.48858681321144104,-0.03247622773051262
1761414011854723600,5.1967236328125,-0.41146036982536316,0.6836234331130981,-0.07496057450771332
1761414011864735500,5.206735595703125,-0.3409713804721832,0.8070314526557922,-0.12920963764190674
1761414011874748700,5.216748779296875,-0.27593111991882324,0.8570005893707275,-0.16733811795711517
1761414011884761900,5.226761962890625,-0.23259243369102478,0.8667924404144287,-0.18574054539203644
1761414011894774800,5.23677490234375,-0.19754762947559357,0.8152325749397278,-0.20893454551696777
1761414011904786700,5.24678662109375,-0.15926656126976013,0.721454381942749,-0.23505376279354095
1761414011914799600,5.256799560546875,-0.1244027391076088,0.6037309765815735,-0.24392007291316986
1761414011924812800,5.266812744140625,-0.07682646811008453,0.48538169264793396,-0.2098984271287918
1761414011934824700,5.27682470703125,-0.030015019699931145,0.3739454746246338,-0.13597439229488373
1761414011944838000,5.286837890625,0.03410373628139496,0.276956170797348,-0.03918061405420303
1761414011954850600,5.2968505859375,0.11771660298109055,0.21016331017017365,0.08300121873617172
1761414011964863700,5.30686376953125,0.1943553239107132,0.1371161788702011,0.19312149286270142
1761414011974875600,5.316875732421875,0.25247958302497864,0.08320368826389313,0.21918532252311707
1761414011984888800,5.326888916015625,0.3067530691623688,0.05127336084842682,0.19017066061496735
1761414011994901800,5.33690185546875,0.34782832860946655,-0.008796898648142815,0.12315968424081802
1761414012004914700,5.346914794921875,0.3464183509349823,-0.12768232822418213,0.010202361270785332
1761414012014926600,5.356926513671875,0.3159951865673065,-0.23655155301094055,-0.06892494857311249
1761414012024939800,5.366939697265625,0.27868375182151794,-0.29365161061286926,-0.073298878967762
1761414012034952700,5.37695263671875,0.25211843848228455,-0.2872602939605713,-0.03770413622260094
1761414012044964900,5.38696484375,0.25245654582977295,-0.22732949256896973,0.028055904433131218
1761414012054977500,5.3969775390625,0.2887040376663208,-0.045659832656383514,0.12603145837783813
1761414012064989700,5.40698974609375,0.35127782821655273,0.2379101812839508,0.21005026996135712
1761414012075001600,5.417001708984375,0.40165337920188904,0.4625084102153778,0.18789570033550262
1761414012085014800,5.427014892578125,0.441163569688797,0.5538462996482849,0.09072872996330261
1761414012095028000,5.437028076171875,0.4717254936695099,0.5168792605400085,-0.07737559080123901
1761414012105041000,5.447041015625,0.4726656377315521,0.33431774377822876,-0.31916528940200806
1761414012115053000,5.457052978515625,0.4295123219490051,0.07002963125705719,-0.5797369480133057
1761414012125065700,5.467065673828125,0.3613903522491455,-0.22536413371562958,-0.6973033547401428
1761414012135079000,5.477078857421875,0.3470367193222046,-0.5687172412872314,-0.5645144581794739
1761414012145090800,5.4870908203125,0.41263532638549805,-0.7819362282752991,-0.10146893560886383
1761414012155104000,5.49710400390625,0.5439594984054565,-0.6377438902854919,0.6189464926719666
1761414012165116700,5.50711669921875,0.642333447933197,-0.304977148771286,1.189650297164917
1761414012175129900,5.5171298828125,0.6675863265991211,-0.02034597098827362,1.3187958002090454
1761414012185141800,5.527141845703125,0.6309682130813599,0.06383713334798813,0.969035267829895
1761414012195155000,5.537155029296875,0.557952880859375,0.0640009194612503,0.38643449544906616
1761414012205167900,5.54716796875,0.4514480531215668,-0.0402546301484108,-0.1067451760172844
1761414012215180000,5.557179931640625,0.3280310332775116,-0.1504644900560379,-0.3492638170719147
1761414012225192700,5.567192626953125,0.25939762592315674,-0.27502188086509705,-0.4239276051521301
1761414012235206000,5.577205810546875,0.22452272474765778,-0.3606252074241638,-0.367229163646698
1761414012245218800,5.58721875,0.22260895371437073,-0.24413947761058807,-0.12292440980672836
1761414012255231000,5.59723095703125,0.24848662316799164,0.053889814764261246,0.2555086612701416
1761414012265243600,5.60724365234375,0.2624066174030304,0.3171333968639374,0.5969405174255371
1761414012275256800,5.6172568359375,0.2354053556919098,0.4507457911968231,0.7642666697502136
1761414012285268700,5.627268798828125,0.16187608242034912,0.443311870098114,0.7580115795135498
1761414012295282000,5.637281982421875,0.0462631992995739,0.3662506341934204,0.6380356550216675
1761414012305294800,5.647294921875,-0.07055617868900299,0.2698849141597748,0.4617575705051422
1761414012315307800,5.657307861328125,-0.17617076635360718,0.20311279594898224,0.28830084204673767
1761414012325319700,5.667319580078125,-0.2552676796913147,0.18969674408435822,0.15678702294826508
1761414012335332900,5.677332763671875,-0.29373252391815186,0.17986807227134705,0.09814422577619553
1761414012345345800,5.687345703125,-0.30088818073272705,0.14432287216186523,0.12205275148153305
1761414012355358000,5.69735791015625,-0.2791791558265686,0.11196120083332062,0.19786041975021362
1761414012365370600,5.70737060546875,-0.26209497451782227,0.10628467053174973,0.2776627540588379
1761414012375383800,5.7173837890625,-0.27424192428588867,0.11638683825731277,0.3397679328918457
1761414012385396700,5.727396728515625,-0.3068164885044098,0.14788225293159485,0.3838181495666504
1761414012395409000,5.737408935546875,-0.3436453342437744,0.2077181488275528,0.3807770907878876
1761414012405421800,5.747421875,-0.39422091841697693,0.28259769082069397,0.32913151383399963
1761414012415434800,5.757434814453125,-0.45932164788246155,0.4501608610153198,0.25732284784317017
1761414012425446700,5.76744677734375,-0.524179995059967,0.6935722231864929,0.1490628868341446
1761414012435459800,5.7774599609375,-0.566853940486908,0.954253077507019,0.009419513866305351
1761414012445472800,5.78747265625,-0.5680040121078491,1.1869693994522095,-0.1385554075241089
1761414012455485700,5.797485595703125,-0.5284797549247742,1.3519282341003418,-0.2895316183567047
1761414012465497900,5.807497802734375,-0.4627685546875,1.4304347038269043,-0.44171077013015747
1761414012475510800,5.8175107421875,-0.394034743309021,1.4146901369094849,-0.5473402738571167
1761414012485524000,5.82752392578125,-0.3214366137981415,1.3065794706344604,-0.5797792673110962
1761414012495535900,5.837535888671875,-0.2604457139968872,1.1189888715744019,-0.5213383436203003
1761414012505548800,5.847548828125,-0.21791937947273254,0.9045916199684143,-0.3990611135959625
1761414012515561700,5.857561767578125,-0.1980428695678711,0.7005335688591003,-0.24891875684261322
1761414012525575000,5.867574951171875,-0.17855283617973328,0.5153530836105347,-0.10557432472705841
1761414012535586800,5.8775869140625,-0.14627665281295776,0.3740462362766266,0.005645938217639923
1761414012545600000,5.88760009765625,-0.10257387161254883,0.26762863993644714,0.07596471905708313
1761414012555613000,5.897613037109375,-0.04602937027812004,0.1676943004131317,0.09455545246601105
1761414012565624800,5.907624755859375,0.00927786249667406,0.08238847553730011,0.07531726360321045
1761414012575637800,5.9176376953125,0.052895914763212204,0.012624848634004593,0.03001582808792591
1761414012585651000,5.92765087890625,0.07686048001050949,-0.057747792452573776,-0.04037393629550934
1761414012595664000,5.937663818359375,0.07138396054506302,-0.11538419127464294,-0.09394128620624542
1761414012605676000,5.947676025390625,0.05524985119700432,-0.1588064283132553,-0.08412116765975952
1761414012615688700,5.957688720703125,0.03226197883486748,-0.24999573826789856,-0.03538478910923004
1761414012625702000,5.967701904296875,0.025993086397647858,-0.39650624990463257,0.024222243577241898
1761414012635713800,5.9777138671875,0.07815668731927872,-0.548899233341217,0.09691669046878815
1761414012645727000,5.98772705078125,0.17025645077228546,-0.7137224674224854,0.16375073790550232
1761414012655740000,5.997739990234375,0.23529696464538574,-0.9248352646827698,0.18978926539421082
1761414012665752800,6.0077529296875,0.2417946606874466,-1.1712236404418945,0.16827808320522308
1761414012675764700,6.0177646484375,0.19971270859241486,-1.4769196510314941,0.06955684721469879
1761414012685778000,6.02777783203125,0.11938595771789551,-1.8713710308074951,-0.135748952627182
1761414012695790800,6.037790771484375,0.0008095124503597617,-2.2982566356658936,-0.3981699049472809
1761414012705803000,6.047802978515625,-0.0791725292801857,-2.4851388931274414,-0.5967039465904236
1761414012715815700,6.057815673828125,0.03363284841179848,-2.245272636413574,-0.6869904398918152
1761414012725828900,6.067828857421875,0.45994633436203003,-1.5404497385025024,-0.7869532108306885
1761414012735841800,6.077841796875,0.6610261797904968,-0.9679734110832214,-1.0613749027252197
1761414012745854000,6.08785400390625,0.6490534543991089,-0.3280571699142456,-1.1313247680664062
1761414012755867000,6.097866943359375,0.6733473539352417,0.34111371636390686,-0.8212236166000366
1761414012765879800,6.1078798828125,0.6168450713157654,0.647275984287262,-0.46766769886016846
1761414012775891700,6.1178916015625,0.4326467216014862,0.5402078628540039,-0.1976087987422943
1761414012785905000,6.12790478515625,0.2406076192855835,0.276025652885437,0.09581968933343887
1761414012795917800,6.137917724609375,0.09765711426734924,0.003733418881893158,0.43409255146980286
1761414012805930000,6.147929931640625,0.008918873965740204,-0.1093541830778122,0.7404552698135376
1761414012815942700,6.157942626953125,-0.025542430579662323,-0.14812980592250824,0.8941910266876221
1761414012825955800,6.167955810546875,0.009543082676827908,-0.2356058806180954,0.8228156566619873
1761414012835968800,6.17796875,0.07733011990785599,-0.3779401183128357,0.5737584233283997
1761414012845981000,6.18798095703125,0.10415690392255783,-0.4958312213420868,0.28072109818458557
1761414012855993900,6.197993896484375,0.049119479954242706,-0.5169063806533813,0.05435880273580551
1761414012866006800,6.2080068359375,-0.058076485991477966,-0.416203111410141,-0.0624883770942688
1761414012876018700,6.218018798828125,-0.1852397620677948,-0.27101796865463257,-0.10321582853794098
1761414012886032000,6.228031982421875,-0.3318188488483429,-0.16749076545238495,-0.12480433285236359
1761414012896044800,6.238044921875,-0.4833463430404663,-0.08207574486732483,-0.1740134358406067
1761414012906057700,6.2480576171875,-0.6089497804641724,-0.04596739262342453,-0.2298758625984192
1761414012916069600,6.258069580078125,-0.6957924962043762,-0.020984278991818428,-0.24996381998062134
1761414012926082800,6.268082763671875,-0.7477450370788574,0.06713101267814636,-0.2356259524822235
1761414012936095700,6.278095703125,-0.771174430847168,0.12895657122135162,-0.22802048921585083
1761414012946108000,6.28810791015625,-0.7603452801704407,0.09177853912115097,-0.24037496745586395
1761414012956120800,6.298120849609375,-0.7325056791305542,0.010003514587879181,-0.254177063703537
1761414012966133800,6.3081337890625,-0.6961417198181152,-0.049188531935214996,-0.2636420726776123
1761414012976147000,6.31814697265625,-0.651408851146698,-0.08308577537536621,-0.25985851883888245
1761414012986158800,6.328158935546875,-0.6167299151420593,-0.07618466764688492,-0.2122337967157364
1761414012996171800,6.338171875,-0.5945969223976135,0.009185092523694038,-0.12878896296024323
1761414013006184700,6.348184814453125,-0.5411111116409302,0.1104809120297432,-0.03809191286563873
1761414013016196600,6.358196533203125,-0.4565799832344055,0.16565389931201935,0.024540307000279427
1761414013026209800,6.368209716796875,-0.3506808876991272,0.17521587014198303,0.04330823943018913
1761414013036223000,6.378222900390625,-0.2576848864555359,0.16984640061855316,-0.0012075636768713593
1761414013046236000,6.38823583984375,-0.18921540677547455,0.20710690319538116,-0.09018881618976593
1761414013056247800,6.398247802734375,-0.14374060928821564,0.3154173791408539,-0.2053937017917633
1761414013066260700,6.4082607421875,-0.13011574745178223,0.4779990315437317,-0.3104613423347473
1761414013076274000,6.41827392578125,-0.15443839132785797,0.6583581566810608,-0.36768388748168945
1761414013086285800,6.428285888671875,-0.22341369092464447,0.8077857494354248,-0.3729575574398041
1761414013096299000,6.438299072265625,-0.315772145986557,0.8496251106262207,-0.32291409373283386
1761414013106311700,6.448311767578125,-0.4274853765964508,0.7837592363357544,-0.21699108183383942
1761414013116324900,6.458324951171875,-0.4271354377269745,0.7605801224708557,-0.04145892709493637
1761414013126336800,6.468336669921875,-0.3324247896671295,0.6618120670318604,0.11037095636129379
1761414013136350000,6.478349853515625,-0.197129026055336,0.49453601241111755,0.1863972693681717
1761414013146363000,6.48836279296875,-0.07534255087375641,0.3774179518222809,0.25023218989372253
1761414013156375000,6.498375,0.015185747295618057,0.2753693461418152,0.3224847912788391
1761414013166387700,6.5083876953125,0.051996249705553055,0.19208645820617676,0.42019122838974
1761414013176401000,6.51840087890625,0.046941567212343216,0.16239780187606812,0.5431365966796875
1761414013186412800,6.528412841796875,0.004853942431509495,0.15752550959587097,0.6742309331893921
1761414013196426000,6.538426025390625,-0.035189613699913025,0.17897886037826538,0.8149571418762207
1761414013206438700,6.548438720703125,-0.06204812601208687,0.17642010748386383,0.9243465065956116
1761414013216451800,6.558451904296875,-0.05875273048877716,0.13822025060653687,0.9499338865280151
1761414013226463700,6.568463623046875,-0.015396823175251484,0.11544844508171082,0.9119095802307129
1761414013236477000,6.578476806640625,0.05836475268006325,0.15733623504638672,0.8659365177154541
1761414013246489900,6.58848974609375,0.15882858633995056,0.22010047733783722,0.8313475847244263
1761414013256502000,6.598501953125,0.2849782705307007,0.2823832929134369,0.7857595682144165
1761414013266514700,6.6085146484375,0.41246989369392395,0.350522518157959,0.6964078545570374
1761414013276527900,6.61852783203125,0.5179534554481506,0.41370096802711487,0.531971275806427
1761414013286541000,6.628541015625,0.5528627038002014,0.48236283659935,0.3124305009841919
1761414013296553000,6.638552978515625,0.5208304524421692,0.5547046661376953,0.11236345022916794
1761414013306566000,6.64856591796875,0.43885865807533264,0.5832824110984802,-0.0012280911905691028
1761414013316578800,6.658578857421875,0.3805176019668579,0.6074522137641907,0.024565955623984337
1761414013326590700,6.6685908203125,0.3974025249481201,0.625228226184845,0.18929705023765564
1761414013336604000,6.67860400390625,0.47191378474235535,0.5248230695724487,0.3856295645236969
1761414013346617000,6.6886171875,0.5757241249084473,0.1950293630361557,0.49402499198913574
1761414013356629800,6.698629638671875,0.661457359790802,-0.1468648612499237,0.3388926684856415
1761414013366641700,6.7086416015625,0.5769435167312622,-0.6199555993080139,-0.3422493636608124
1761414013376654800,6.71865478515625,0.3518446087837219,-1.4295427799224854,-1.2387527227401733
1761414013386668000,6.72866796875,0.17960608005523682,-1.424409031867981,-1.6362076997756958
1761414013396680000,6.738679931640625,0.058706820011138916,-0.7828202843666077,-1.6504985094070435
1761414013406692900,6.74869287109375,0.05271496623754501,0.09103304147720337,-1.3746061325073242
1761414013416705800,6.758705810546875,0.2374536693096161,0.7339441180229187,-0.9033815860748291
1761414013426719000,6.768718994140625,0.4579824209213257,0.9853934049606323,-0.47113513946533203
1761414013436731000,6.77873095703125,0.5470422506332397,0.9261282682418823,-0.17149625718593597
1761414013446744000,6.788744140625,0.5729145407676697,0.6006225347518921,0.028437146916985512
1761414013456756700,6.7987568359375,0.593515157699585,0.16983655095100403,0.16621844470500946
1761414013466769000,6.808768798828125,0.6010244488716125,-0.16268840432167053,0.2866140902042389
1761414013476781800,6.81878173828125,0.5879749655723572,-0.39486411213874817,0.38069745898246765
1761414013486795000,6.828794921875,0.5606157183647156,-0.48305952548980713,0.40754732489585876
1761414013496808000,6.838807861328125,0.5371561646461487,-0.44267669320106506,0.3369080424308777
1761414013506819800,6.84881982421875,0.5072072744369507,-0.34738805890083313,0.17025643587112427
1761414013516832800,6.858832763671875,0.445091187953949,-0.2417321801185608,-0.026756497099995613
1761414013526846000,6.868845947265625,0.3331690728664398,-0.18803609907627106,-0.19197724759578705
1761414013536857900,6.87885791015625,0.1874084174633026,-0.19434912502765656,-0.2889016568660736
1761414013546871000,6.88887109375,0.07467352598905563,-0.2859416604042053,-0.31249570846557617
1761414013556883700,6.8988837890625,-0.00004491832805797458,-0.4357692301273346,-0.32110515236854553
1761414013566895900,6.908895751953125,-0.05283797159790993,-0.5596245527267456,-0.31852564215660095
1761414013576908800,6.91890869140625,-0.0683378353714943,-0.5817578434944153,-0.3294443190097809
1761414013586922000,6.928921875,-0.05032774806022644,-0.5435598492622375,-0.3552076518535614
1761414013596935000,6.938934814453125,0.006467357277870178,-0.4826517701148987,-0.4173424243927002
1761414013606947000,6.948947021484375,0.09622496366500854,-0.3686387538909912,-0.5085729360580444
1761414013616959700,6.958959716796875,0.1890670359134674,-0.22227969765663147,-0.6036834716796875
1761414013626973000,6.968972900390625,0.22830645740032196,-0.08804577589035034,-0.6860277652740479
1761414013636984800,6.97898486328125,0.17250923812389374,0.05962517112493515,-0.7239999175071716
1761414013646998000,6.988998046875,0.024798911064863205,0.24038365483283997,-0.697699785232544
1761414013657010700,6.9990107421875,-0.16768024861812592,0.43968716263771057,-0.5954421758651733
1761414013667024000,7.00902392578125,-0.3563973903656006,0.6135488748550415,-0.43420201539993286
1761414013677035800,7.019035888671875,-0.5178454518318176,0.7274426817893982,-0.24764971435070038
1761414013687049000,7.029049072265625,-0.6257120370864868,0.7807306051254272,-0.07609221339225769
1761414013697062000,7.039061767578125,-0.6568662524223328,0.7834286093711853,0.07143812626600266
1761414013707074000,7.049073974609375,-0.6114081144332886,0.7427558302879333,0.1891470104455948
1761414013717086700,7.059086669921875,-0.5137529373168945,0.6924359202384949,0.27522358298301697
1761414013727100000,7.069099853515625,-0.3926992118358612,0.6573757529258728,0.34593185782432556
1761414013737112800,7.07911279296875,-0.28534477949142456,0.6343383193016052,0.3950546681880951
1761414013747125000,7.089125,-0.21025291085243225,0.6060180068016052,0.39985066652297974
1761414013757137700,7.0991376953125,-0.1703457087278366,0.5481752157211304,0.36443808674812317
1761414013767150800,7.10915087890625,-0.1516985446214676,0.4415743350982666,0.3009280562400818
1761414013777162800,7.119162841796875,-0.12420806288719177,0.3252978026866913,0.2410372942686081
1761414013787176000,7.129176025390625,-0.07518893480300903,0.23068855702877045,0.19543534517288208
1761414013797188900,7.13918896484375,-0.012408902868628502,0.15414024889469147,0.1741337925195694
1761414013807201800,7.149201904296875,0.04284723848104477,0.07451296597719193,0.17118816077709198
1761414013817213700,7.159213623046875,0.0745585635304451,0.010646633803844452,0.1697380691766739
1761414013827227000,7.169226806640625,0.07713943719863892,-0.023976055905222893,0.1663137823343277
1761414013837240000,7.179239990234375,0.066897451877594,-0.048302169889211655,0.14560984075069427
1761414013847252000,7.189251953125,0.04921557009220123,-0.03892708942294121,0.12675116956233978
1761414013857264600,7.1992646484375,0.05276050418615341,0.011248731054365635,0.11245346814393997
1761414013867277800,7.20927783203125,0.08089246600866318,0.12022137641906738,0.141592338681221
1761414013877289700,7.219289794921875,0.13260306417942047,0.2372065931558609,0.19486914575099945
1761414013887303000,7.229302978515625,0.16635234653949738,0.21885892748832703,0.22271893918514252
1761414013897316000,7.239316162109375,0.15765686333179474,0.06790296733379364,0.2045671045780182
1761414013907328800,7.249328857421875,0.1507636159658432,0.10384291410446167,0.23088368773460388
1761414013917340700,7.259340576171875,0.22153232991695404,0.47299855947494507,0.35301172733306885
1761414013927353900,7.269353759765625,0.35937049984931946,0.728727400302887,0.43119674921035767
1761414013937367000,7.279366943359375,0.4212394654750824,0.4007580280303955,0.1491916924715042
1761414013947379000,7.28937890625,0.2693154215812683,-0.39009445905685425,-0.4707968533039093
1761414013957392000,7.299391845703125,0.02872144803404808,-0.9454604983329773,-0.9832271933555603
1761414013967404800,7.30940478515625,-0.16878922283649445,-0.8970686793327332,-1.0917898416519165
1761414013977418000,7.31941796875,-0.32853493094444275,-0.6455518007278442,-0.8037344813346863
1761414013987430000,7.329429931640625,-0.5204724073410034,-0.6311560273170471,-0.28084325790405273
1761414013997443000,7.339443115234375,-0.6875939965248108,-0.8169431686401367,0.30855289101600647
1761414014007455700,7.349455810546875,-0.7103588581085205,-1.0384317636489868,0.8874800205230713
1761414014017468000,7.359468017578125,-0.5522387027740479,-1.0778870582580566,1.2941972017288208
1761414014027480800,7.369480712890625,-0.2843027710914612,-0.9072023034095764,1.354854702949524
1761414014037494000,7.379493896484375,-0.05839800834655762,-0.7556551098823547,1.2482054233551025
1761414014047506700,7.389506591796875,0.027251116931438446,-0.8251258134841919,0.9367921352386475
1761414014057518800,7.399518798828125,-0.019201070070266724,-0.8352564573287964,0.5761918425559998
1761414014067532800,7.40953271484375,-0.10783830285072327,-0.608841061592102,0.28758975863456726
1761414014077545700,7.419545654296875,-0.16537590324878693,-0.28563186526298523,0.04468097537755966
1761414014087558000,7.429557861328125,-0.1639948934316635,0.014174258336424828,-0.21036824584007263
1761414014097570600,7.439570556640625,-0.11257084459066391,0.18535426259040833,-0.5734372138977051
1761414014107583700,7.449583740234375,-0.03907828778028488,0.24444127082824707,-0.9228032231330872
1761414014117595600,7.459595703125,0.0003079985035583377,0.20385175943374634,-1.176114559173584
1761414014127608800,7.46960888671875,-0.012598331086337566,0.06368474662303925,-1.3221662044525146
1761414014137621800,7.479621826171875,-0.06174324080348015,-0.26486092805862427,-1.3731473684310913
1761414014147634700,7.489634765625,-0.15958920121192932,-0.7064676880836487,-1.2976244688034058
1761414014157646600,7.499646484375,-0.2837143540382385,-0.9538915753364563,-1.0549430847167969
1761414014167659800,7.50965966796875,-0.39275839924812317,-0.948409378528595,-0.6933642029762268
1761414014177673000,7.5196728515625,-0.48850518465042114,-0.7509106993675232,-0.3170025050640106
1761414014187684900,7.529684814453125,-0.5643705725669861,-0.4583361744880676,0.014462392777204514
1761414014197697500,7.539697509765625,-0.6372405290603638,-0.18492992222309113,0.23465228080749512
1761414014207710700,7.549710693359375,-0.6770309805870056,-0.01854492910206318,0.33731114864349365
1761414014217724000,7.559723876953125,-0.663404643535614,0.06924804300069809,0.35994985699653625
1761414014227735800,7.56973583984375,-0.6087546348571777,0.1043349876999855,0.3401546776294708
1761414014237748700,7.579748779296875,-0.5274999737739563,0.098543681204319,0.31498780846595764
1761414014247761700,7.58976171875,-0.42086294293403625,0.07617568969726562,0.3209996223449707
1761414014257773600,7.599773681640625,-0.3348335027694702,0.056310370564460754,0.36904650926589966
1761414014267786800,7.609786865234375,-0.29490867257118225,0.05723411217331886,0.438314288854599
1761414014277800000,7.619800048828125,-0.29263460636138916,0.08263640850782394,0.5178769826889038
1761414014287812600,7.6298125,-0.31314772367477417,0.12098229676485062,0.5902795791625977
1761414014297824800,7.63982470703125,-0.33492279052734375,0.17905758321285248,0.637551486492157
1761414014307837700,7.649837646484375,-0.33774322271347046,0.282429963350296,0.6625200510025024
1761414014317851000,7.659850830078125,-0.3317444324493408,0.417972594499588,0.6830333471298218
1761414014327862800,7.66986279296875,-0.32293450832366943,0.5139535665512085,0.6960771083831787
1761414014337876000,7.6798759765625,-0.3031408190727234,0.5749812722206116,0.7166351079940796
1761414014347888600,7.689888671875,-0.23803073167800903,0.6221470236778259,0.7344477772712708
1761414014357900800,7.69990087890625,-0.1459175944328308,0.6654218435287476,0.7499881386756897
1761414014367913700,7.709913818359375,-0.046017881482839584,0.6885108947753906,0.7535418272018433
1761414014377927000,7.719927001953125,0.04144938290119171,0.683327317237854,0.754524827003479
1761414014387939600,7.729939697265625,0.11246220022439957,0.6383321285247803,0.7585007548332214
1761414014397951700,7.73995166015625,0.15865924954414368,0.5547413229942322,0.776027262210846
1761414014407964700,7.749964599609375,0.18942593038082123,0.47498297691345215,0.8032045960426331
1761414014417977900,7.759977783203125,0.2160934954881668,0.44686850905418396,0.8391769528388977
1761414014427989800,7.76998974609375,0.24049563705921173,0.472775936126709,0.8662931323051453
1761414014438003000,7.7800029296875,0.2734980583190918,0.516943633556366,0.8825509548187256
1761414014448015600,7.790015625,0.3043428957462311,0.5531894564628601,0.8832215666770935
1761414014458028800,7.80002880859375,0.3424724340438843,0.5860118865966797,0.8736951947212219
1761414014468040700,7.810040771484375,0.40284258127212524,0.6023170351982117,0.8617562055587769
1761414014478054000,7.820053955078125,0.48458167910575867,0.5688661932945251,0.8539062738418579
1761414014488066600,7.830066650390625,0.5380482077598572,0.48094943165779114,0.8129139542579651
1761414014498078700,7.84007861328125,0.5623383522033691,0.3563896417617798,0.7275441884994507
1761414014508091600,7.850091552734375,0.5841583609580994,0.2244632989168167,0.6315914988517761
1761414014518104800,7.860104736328125,0.6163778305053711,0.12665577232837677,0.5603545904159546
1761414014528117800,7.87011767578125,0.6422368884086609,0.1402118057012558,0.4972042441368103
1761414014538130000,7.8801298828125,0.6688562631607056,0.3326326608657837,0.4340929388999939
1761414014548142600,7.890142578125,0.7306334972381592,0.6727199554443359,0.3467837870121002
1761414014558155800,7.90015576171875,0.7436296939849854,0.8019919395446777,0.13890144228935242
1761414014568167700,7.910167724609375,0.6379547715187073,0.2828463315963745,-0.38468137383461
1761414014578180900,7.920180908203125,0.47348731756210327,-0.4997967779636383,-1.0724155902862549
1761414014588193500,7.930193603515625,0.30559682846069336,-1.2319226264953613,-1.7082644701004028
1761414014598205700,7.940205810546875,0.09531176835298538,-1.8758782148361206,-2.2531464099884033
1761414014608218600,7.950218505859375,-0.11915987730026245,-2.1322171688079834,-2.579312801361084
