time,seconds_elapsed,z,y,x
1761414060585457200,0.08045703125,-0.0186376441270113,0.03320859372615814,-0.2556426525115967
1761414060595470000,0.090469970703125,-0.04723227024078369,0.09322719275951385,-0.2865752577781677
1761414060605482000,0.10048193359375,-0.05047786608338356,0.18524979054927826,-0.2858351767063141
1761414060615495200,0.1104951171875,-0.02262820489704609,0.2917424738407135,-0.25728434324264526
1761414060625508400,0.12050830078125,0.029035499319434166,0.42794400453567505,-0.18720266222953796
1761414060635520300,0.130520263671875,0.08781705796718597,0.5750932693481445,-0.08397801220417023
1761414060645533200,0.140533203125,0.11642978340387344,0.6595794558525085,0.06778039038181305
1761414060655546000,0.150546142578125,0.07878413796424866,0.6621254682540894,0.26694703102111816
1761414060665558000,0.16055810546875,-0.02464957721531391,0.5734837651252747,0.5020610094070435
1761414060675571200,0.1705712890625,-0.16757850348949432,0.4039866328239441,0.7358729839324951
1761414060685583000,0.1805830078125,-0.32003647089004517,0.2264750748872757,0.9544824957847595
1761414060695596300,0.19059619140625,-0.49561095237731934,0.05117756128311157,1.1457043886184692
1761414060705609200,0.200609130859375,-0.7019220590591431,-0.09821715950965881,1.343634843826294
1761414060715621000,0.21062109375,-0.8639690279960632,-0.14461581408977509,1.558603286743164
1761414060725634000,0.220634033203125,-0.7716217637062073,-0.13817815482616425,1.7997355461120605
1761414060735647200,0.230647216796875,-0.6825422644615173,-0.19248932600021362,1.869645595550537
1761414060745659100,0.2406591796875,-0.5696680545806885,-0.3197427988052368,1.8313798904418945
1761414060755672300,0.25067236328125,-0.4310765564441681,-0.2591569423675537,1.889396071434021
1761414060765684200,0.260684326171875,-0.30472320318222046,-0.04369113966822624,2.0604801177978516
1761414060775697200,0.270697265625,-0.18110112845897675,-0.021869733929634094,2.153451919555664
1761414060785710000,0.2807099609375,-0.006030794233083725,-0.22497661411762238,2.1101746559143066
1761414060795722200,0.29072216796875,0.2117508053779602,-0.41227009892463684,1.9778578281402588
1761414060805735200,0.300735107421875,0.37140989303588867,-0.5538073182106018,1.761778473854065
1761414060815748000,0.310748046875,0.4384691119194031,-0.7470508217811584,1.4957104921340942
1761414060825760000,0.320760009765625,0.3971174359321594,-1.000879168510437,1.2342499494552612
1761414060835773200,0.330773193359375,0.2580362558364868,-1.1909689903259277,0.998477041721344
1761414060845785000,0.34078515625,0.038572508841753006,-1.223048448562622,0.7462038993835449
1761414060855798300,0.35079833984375,-0.20170454680919647,-1.023031234741211,0.48932260274887085
1761414060865811200,0.360811279296875,-0.39901959896087646,-0.5743476748466492,0.177555650472641
1761414060875823400,0.3708232421875,-0.48635903000831604,0.048160381615161896,-0.22516144812107086
1761414060885836000,0.3808359375,-0.35647985339164734,0.5667042136192322,-0.7629425525665283
1761414060895849200,0.39084912109375,-0.023924818262457848,0.9235659241676331,-1.4037045240402222
1761414060905861000,0.400861083984375,0.3574383854866028,1.2746208906173706,-2.001697063446045
1761414060915874300,0.410874267578125,0.9421783089637756,1.3472920656204224,-2.436474323272705
1761414060925886200,0.42088623046875,2.0268607139587402,1.5579826831817627,-2.5785341262817383
1761414060935899100,0.430899169921875,2.872931718826294,1.5615966320037842,-2.498236656188965
1761414060945912000,0.440912109375,2.8113954067230225,1.1414493322372437,-2.4688496589660645
1761414060955924200,0.45092431640625,2.020561456680298,0.6820759177207947,-2.5541629791259766
1761414060965937200,0.460937255859375,0.8434162735939026,0.5678426623344421,-2.3650641441345215
1761414060975949300,0.47094921875,-0.11224126070737839,0.9939206838607788,-1.7774527072906494
1761414060985962200,0.480962158203125,-0.3132498562335968,1.740795612335205,-0.9442218542098999
1761414060995975200,0.49097509765625,0.025813953951001167,2.245645761489868,-0.3075156509876251
1761414061005987000,0.500987060546875,0.41235387325286865,2.2599048614501953,0.013054778799414635
1761414061016000300,0.511000244140625,0.6514545679092407,1.980191707611084,0.20099511742591858
1761414061026013200,0.52101318359375,0.8055994510650635,1.4849574565887451,0.3344990909099579
1761414061036025300,0.531025390625,0.930113673210144,0.9302582740783691,0.39167314767837524
1761414061046038300,0.541038330078125,1.0760650634765625,0.3849921226501465,0.29810190200805664
1761414061056051200,0.55105126953125,1.2381964921951294,-0.11530664563179016,-0.0006938353180885315
1761414061066063000,0.56106298828125,1.317705512046814,-0.640642523765564,-0.44124048948287964
1761414061076076300,0.571076171875,1.2166441679000854,-1.1851184368133545,-0.846272349357605
1761414061086088200,0.581088134765625,0.9789571166038513,-1.527540922164917,-1.0005971193313599
1761414061096101400,0.591101318359375,0.7154679894447327,-1.6208651065826416,-0.9167217016220093
1761414061106114000,0.601114013671875,0.49675098061561584,-1.5245652198791504,-0.7041429281234741
1761414061116126200,0.611126220703125,0.3470957279205322,-1.2603044509887695,-0.48679518699645996
1761414061126139400,0.621139404296875,0.2835052013397217,-0.9586071968078613,-0.3241719603538513
1761414061136152300,0.63115234375,0.2709079086780548,-0.6995031833648682,-0.24360546469688416
1761414061146164500,0.64116455078125,0.30046412348747253,-0.5354407429695129,-0.23196998238563538
1761414061156177400,0.651177490234375,0.3545827567577362,-0.5149192214012146,-0.2621374726295471
1761414061166189300,0.661189208984375,0.44142982363700867,-0.6643280386924744,-0.3335358798503876
1761414061176202200,0.6712021484375,0.49221229553222656,-0.8935405015945435,-0.3694984018802643
1761414061186215400,0.68121533203125,0.5005028247833252,-0.9523211121559143,-0.22951655089855194
1761414061196227300,0.691227294921875,0.4906963109970093,-0.8451496362686157,0.07586894184350967
1761414061206240500,0.701240478515625,0.4749741852283478,-0.6126095056533813,0.4587990939617157
1761414061216252400,0.71125244140625,0.48178309202194214,-0.3493029773235321,0.8250296115875244
1761414061226265300,0.721265380859375,0.48778584599494934,-0.10010914504528046,1.0867815017700195
1761414061236278300,0.7312783203125,0.5076831579208374,0.11734621226787567,1.2170745134353638
1761414061246290400,0.74129052734375,0.556751012802124,0.2969951629638672,1.2300636768341064
1761414061256303400,0.751303466796875,0.6354913711547852,0.39269718527793884,1.1641408205032349
1761414061266316300,0.76131640625,0.7118698358535767,0.37647977471351624,1.054842233657837
1761414061276328400,0.771328369140625,0.785075843334198,0.24653641879558563,0.8695688247680664
1761414061286341400,0.78134130859375,0.8515830039978027,0.02430121973156929,0.6204601526260376
1761414061296354300,0.791354248046875,0.8452430963516235,-0.24081780016422272,0.40242502093315125
1761414061306366500,0.801366455078125,0.7647023797035217,-0.41794103384017944,0.3412029445171356
1761414061316379400,0.81137939453125,0.6918119192123413,-0.514132559299469,0.4388139247894287
1761414061326391300,0.821391357421875,0.6221460700035095,-0.5796789526939392,0.6196066737174988
1761414061336404200,0.831404296875,0.5300664305686951,-0.6218639612197876,0.8172308206558228
1761414061346417400,0.84141748046875,0.45125752687454224,-0.6443603038787842,0.9488065838813782
1761414061356429300,0.85142919921875,0.3820936679840088,-0.6498900651931763,0.9777466058731079
1761414061366442500,0.8614423828125,0.29644784331321716,-0.6404722332954407,0.8994166851043701
1761414061376455400,0.871455322265625,0.21560627222061157,-0.6069651246070862,0.765004575252533
1761414061386467300,0.88146728515625,0.16306400299072266,-0.6191287040710449,0.5875548720359802
1761414061396480300,0.891480224609375,0.13126958906650543,-0.7101792693138123,0.3632386326789856
1761414061406492200,0.9014921875,0.14508716762065887,-0.8078408241271973,0.12582999467849731
1761414061416505300,0.91150537109375,0.1882506161928177,-0.8641054630279541,-0.061706602573394775
1761414061426518500,0.9215185546875,0.20936298370361328,-0.8746631741523743,-0.19808262586593628
1761414061436530400,0.931530517578125,0.22515633702278137,-0.8066415190696716,-0.2625841200351715
1761414061446543000,0.941543212890625,0.26276183128356934,-0.747628390789032,-0.27213752269744873
1761414061456555300,0.95155517578125,0.3327009677886963,-0.6705016493797302,-0.2070312201976776
1761414061466568200,0.961568115234375,0.3803432583808899,-0.5558418035507202,-0.10285299271345139
1761414061476581400,0.971581298828125,0.3660343587398529,-0.37050867080688477,-0.0774293914437294
1761414061486593300,0.98159326171875,0.2622298300266266,-0.1480504870414734,-0.22135843336582184
1761414061496606500,0.9916064453125,0.09976422041654587,0.05381897836923599,-0.5553342700004578
1761414061506619100,1.001619140625,-0.03525932878255844,0.26034900546073914,-0.998511791229248
1761414061516631300,1.01163134765625,-0.11315625160932541,0.4837978184223175,-1.4763609170913696
1761414061526644200,1.021644287109375,-0.15833039581775665,0.6025869846343994,-1.9210593700408936
1761414061536656400,1.031656494140625,-0.18186607956886292,0.7194137573242188,-2.2679507732391357
1761414061546669300,1.04166943359375,-0.21609969437122345,0.8702135682106018,-2.4187417030334473
1761414061556682200,1.05168212890625,-0.20581936836242676,1.1619271039962769,-2.1859078407287598
1761414061566694100,1.061694091796875,-0.028879007324576378,1.6575125455856323,-1.5497429370880127
1761414061576707300,1.071707275390625,0.2517300248146057,2.1071534156799316,-0.7363473773002625
1761414061586720300,1.08172021484375,0.4757472276687622,2.3303587436676025,0.008412622846662998
1761414061596732400,1.091732421875,0.6260421872138977,2.2583322525024414,0.47147828340530396
1761414061606745300,1.101745361328125,0.6448619961738586,1.9335929155349731,0.6485580801963806
1761414061616757500,1.111757568359375,0.5682172775268555,1.541914701461792,0.6749369502067566
1761414061626770200,1.121770263671875,0.47146075963974,1.193131446838379,0.6242669820785522
1761414061636783400,1.131783447265625,0.377541720867157,0.9614558815956116,0.510273814201355
1761414061646795300,1.141795166015625,0.31833043694496155,0.8227253556251526,0.34135276079177856
1761414061656808400,1.151808349609375,0.3055472671985626,0.7425010800361633,0.13305307924747467
1761414061666821000,1.161821044921875,0.3113578259944916,0.632754385471344,-0.1043473333120346
1761414061676833300,1.171833251953125,0.3174996078014374,0.4609738886356354,-0.35925018787384033
1761414061686846200,1.18184619140625,0.31762707233428955,0.21328720450401306,-0.6223932504653931
1761414061696858400,1.1918583984375,0.30630409717559814,-0.08535994589328766,-0.8567439913749695
1761414061706871300,1.201871337890625,0.26460450887680054,-0.42551422119140625,-1.029962420463562
1761414061716884500,1.211884521484375,0.16405153274536133,-0.7362555861473083,-1.1151057481765747
1761414061726896400,1.221896484375,0.03192643076181412,-0.9224265813827515,-1.1074782609939575
1761414061736909300,1.231909423828125,-0.1233249381184578,-0.9731947183609009,-1.05221426486969
1761414061746922200,1.241922119140625,-0.2862701416015625,-0.8636404275894165,-0.9540662169456482
1761414061756934400,1.251934326171875,-0.4261620044708252,-0.6328269243240356,-0.8257138133049011
1761414061766947300,1.261947265625,-0.5200399160385132,-0.32792481780052185,-0.690771222114563
1761414061776959500,1.27195947265625,-0.5699930787086487,-0.022203247994184494,-0.5813331007957458
1761414061786972200,1.28197216796875,-0.5885778665542603,0.2708590626716614,-0.5021122694015503
1761414061796985300,1.2919853515625,-0.5758570432662964,0.5153055787086487,-0.4448486566543579
1761414061806997200,1.301997314453125,-0.5356780886650085,0.682502806186676,-0.40540120005607605
1761414061817010400,1.312010498046875,-0.4675171971321106,0.7788631916046143,-0.3651408851146698
1761414061827023400,1.3220234375,-0.36498525738716125,0.8354349136352539,-0.3318060338497162
1761414061837035500,1.332035400390625,-0.2075117528438568,0.9115440845489502,-0.278217613697052
1761414061847048200,1.342048095703125,0.022750895470380783,1.0235761404037476,-0.19479252398014069
1761414061857060400,1.352060302734375,0.2744923233985901,1.1233253479003906,-0.08947436511516571
1761414061867073300,1.3620732421875,0.4881135821342468,1.1588913202285767,0.01872202940285206
1761414061877086500,1.37208642578125,0.6594112515449524,1.0708210468292236,0.101211316883564
1761414061887098400,1.382098388671875,0.7992973327636719,0.8794074058532715,0.15753962099552155
1761414061897111300,1.392111328125,0.8899720907211304,0.5978665351867676,0.20831145346164703
1761414061907124200,1.402124267578125,0.9050130248069763,0.24194931983947754,0.27233707904815674
1761414061917136400,1.412136474609375,0.8419904112815857,-0.15616637468338013,0.34176966547966003
1761414061927149300,1.4221494140625,0.7483172416687012,-0.5456602573394775,0.3880315124988556
1761414061937161500,1.432161376953125,0.6714912056922913,-0.8706178069114685,0.3829810917377472
1761414061947174400,1.44217431640625,0.6452098488807678,-1.1001708507537842,0.3250562250614166
1761414061957187300,1.452187255859375,0.6364496350288391,-1.2053593397140503,0.22148722410202026
1761414061967199200,1.46219921875,0.6181613206863403,-1.1965943574905396,0.08466053754091263
1761414061977212400,1.47221240234375,0.5833426713943481,-1.0726096630096436,-0.04756780341267586
1761414061987224300,1.482224365234375,0.5263055562973022,-0.8852207660675049,-0.18735115230083466
1761414061997237500,1.492237548828125,0.4157947301864624,-0.7540110945701599,-0.3557390868663788
1761414062007250400,1.50225048828125,0.27685651183128357,-0.6591644883155823,-0.49075010418891907
1761414062017262300,1.512262451171875,0.19955240190029144,-0.5407536625862122,-0.5231908559799194
1761414062027275300,1.522275146484375,0.18142662942409515,-0.4221259653568268,-0.5076600313186646
1761414062037288400,1.532288330078125,0.19785088300704956,-0.3535487651824951,-0.5213491916656494
1761414062047300400,1.54230029296875,0.27893516421318054,-0.29493898153305054,-0.5256423950195312
1761414062057313500,1.5523134765625,0.43847420811653137,-0.27534955739974976,-0.48518043756484985
1761414062067325400,1.562325439453125,0.6122487187385559,-0.2576633393764496,-0.3595227301120758
1761414062077338000,1.572338134765625,0.7839163541793823,-0.29414597153663635,-0.17302662134170532
1761414062087351300,1.582351318359375,0.8924347162246704,-0.4830140769481659,-0.02368938736617565
1761414062097363200,1.59236328125,0.8870745301246643,-0.8397799730300903,0.028478475287556648
1761414062107376400,1.60237646484375,0.7814723253250122,-1.2308895587921143,-0.009026523679494858
1761414062117389600,1.6123896484375,0.6733472347259521,-1.4558744430541992,-0.0915064811706543
1761414062127401700,1.622401611328125,0.5596645474433899,-1.4167571067810059,-0.2258918285369873
1761414062137414700,1.63241455078125,0.452330082654953,-0.9907311797142029,-0.3176763355731964
1761414062147426800,1.6424267578125,0.3918113112449646,-0.22702546417713165,-0.23075895011425018
1761414062157439700,1.652439697265625,0.45900338888168335,0.6638298630714417,0.07087253779172897
1761414062167453000,1.662452880859375,0.6132736802101135,1.4042226076126099,0.5087945461273193
1761414062177464800,1.67246484375,0.7447382211685181,1.8984472751617432,1.0213371515274048
1761414062187477800,1.682477783203125,0.8322717547416687,1.9417554140090942,1.3839644193649292
1761414062197490700,1.69249072265625,0.8019481897354126,1.559743046760559,1.5674439668655396
1761414062207502800,1.7025029296875,0.7330228090286255,1.0000392198562622,1.6102375984191895
1761414062217515800,1.712515869140625,0.6656458973884583,0.516783595085144,1.5814491510391235
1761414062227528000,1.72252783203125,0.6082372665405273,0.1577686369419098,1.5117225646972656
1761414062237540600,1.73254052734375,0.5323513150215149,-0.04479218274354935,1.3920807838439941
1761414062247553800,1.7425537109375,0.45696428418159485,-0.1085958406329155,1.218095302581787
1761414062257565700,1.752565673828125,0.3690301477909088,-0.12391594052314758,1.0232576131820679
1761414062267579000,1.762578857421875,0.23941358923912048,-0.11521326005458832,0.8168177008628845
1761414062277590800,1.7725908203125,0.09912040084600449,-0.09069780260324478,0.6259436011314392
1761414062287604000,1.78260400390625,-0.03613210469484329,-0.05068761855363846,0.4560227394104004
1761414062297616600,1.79261669921875,-0.14760644733905792,-0.00674120057374239,0.3084825575351715
1761414062307628500,1.802628662109375,-0.20625561475753784,0.01682830974459648,0.17671088874340057
1761414062317641700,1.812641845703125,-0.2208516001701355,0.036517057567834854,0.06722354888916016
1761414062327655000,1.822655029296875,-0.21302160620689392,0.06302793323993683,0.008635529316961765
1761414062337666800,1.832666748046875,-0.19735556840896606,0.1110822781920433,-0.010006065480411053
1761414062347679700,1.8426796875,-0.17656788229942322,0.16429108381271362,-0.03268735110759735
1761414062357691600,1.852691650390625,-0.1639048308134079,0.23530960083007812,-0.042458225041627884
1761414062367704600,1.86270458984375,-0.1445324867963791,0.3080126643180847,-0.020499054342508316
1761414062377717800,1.8727177734375,-0.11719115078449249,0.34697872400283813,0.020904045552015305
1761414062387729700,1.882729736328125,-0.08783731609582901,0.36322423815727234,0.06087689846754074
1761414062397742800,1.892742919921875,-0.06548194587230682,0.3590542674064636,0.0845944732427597
1761414062407755800,1.902755859375,-0.05152685567736626,0.31674906611442566,0.08302189409732819
1761414062417767700,1.912767578125,-0.041639603674411774,0.24526983499526978,0.045755479484796524
1761414062427780600,1.922780517578125,-0.02804134041070938,0.15135033428668976,-0.0006829163758084178
1761414062437792800,1.932792724609375,-0.005286494269967079,0.06616301089525223,-0.042415715754032135
1761414062447805700,1.9428056640625,0.013718437403440475,-0.0321468710899353,-0.07977869361639023
1761414062457818600,1.952818603515625,0.011781521141529083,-0.10649753361940384,-0.09998409450054169
1761414062467830800,1.962830810546875,-0.014901755377650261,-0.165797621011734,-0.1001896932721138
1761414062477843700,1.97284375,-0.047407232224941254,-0.20878610014915466,-0.08769653737545013
1761414062487855600,1.982855712890625,-0.07043495029211044,-0.24700039625167847,-0.07718205451965332
1761414062497868800,1.992868896484375,-0.0710567981004715,-0.2722322642803192,-0.06777417659759521
1761414062507881700,2.0028818359375,-0.0542462095618248,-0.277618944644928,-0.057255856692790985
1761414062517894000,2.012893798828125,-0.039303481578826904,-0.2807353734970093,-0.05445314571261406
1761414062527906600,2.022906494140625,-0.046252116560935974,-0.28578826785087585,-0.04936640337109566
1761414062537919700,2.032919677734375,-0.08023032546043396,-0.2978942096233368,-0.04960475489497185
1761414062547931600,2.042931640625,-0.1263899803161621,-0.3132127821445465,-0.06775791943073273
1761414062557944800,2.05294482421875,-0.1812758594751358,-0.35325607657432556,-0.10183732211589813
1761414062567956700,2.062956787109375,-0.23913832008838654,-0.42554423213005066,-0.1806027740240097
1761414062577969700,2.0729697265625,-0.3020957112312317,-0.5336933732032776,-0.32581135630607605
1761414062587982600,2.082982666015625,-0.3556513786315918,-0.6452133655548096,-0.5215848088264465
1761414062597994800,2.092994873046875,-0.3883044123649597,-0.7034409642219543,-0.7423387169837952
1761414062608007700,2.103007568359375,-0.39795511960983276,-0.7266971468925476,-0.9852330088615417
1761414062618019800,2.113019775390625,-0.40190112590789795,-0.6917833685874939,-1.178800106048584
1761414062628032800,2.12303271484375,-0.40798357129096985,-0.5965708494186401,-1.2296327352523804
1761414062638045700,2.133045654296875,-0.43413153290748596,-0.45755383372306824,-1.1351542472839355
1761414062648057600,2.1430576171875,-0.46228718757629395,-0.3422892689704895,-0.988693356513977
1761414062658070800,2.15307080078125,-0.4421837627887726,-0.3315519392490387,-0.8192619681358337
1761414062668083700,2.163083740234375,-0.38632333278656006,-0.4701949656009674,-0.6325322389602661
1761414062678096000,2.173095947265625,-0.33987781405448914,-0.7120547294616699,-0.47114071249961853
1761414062688108800,2.18310888671875,-0.32215866446495056,-1.070479154586792,-0.4410127103328705
1761414062698121000,2.193120849609375,-0.3332377076148987,-1.4686169624328613,-0.6123154759407043
1761414062708133600,2.203133544921875,-0.3514290750026703,-1.8859705924987793,-0.9157475829124451
1761414062718146800,2.213146728515625,-0.22347509860992432,-2.0711631774902344,-1.1868106126785278
1761414062728158700,2.22315869140625,-0.16489045321941376,-1.760915756225586,-1.2305223941802979
1761414062738172000,2.233171875,-0.06261201947927475,-0.8263949751853943,-0.8731980323791504
1761414062748184600,2.2431845703125,0.1487390697002411,0.31419041752815247,-0.28568410873413086
1761414062758196700,2.25319677734375,0.3282555639743805,1.2571520805358887,0.410025417804718
1761414062768209700,2.263209716796875,0.5182582139968872,1.7795964479446411,0.9933669567108154
1761414062778221800,2.273221923828125,0.643650472164154,1.7625322341918945,1.3587909936904907
1761414062788234800,2.28323486328125,0.6773506999015808,1.252508521080017,1.5579134225845337
1761414062798248000,2.293248046875,0.6519652009010315,0.5107256770133972,1.5878281593322754
1761414062808259800,2.303259765625,0.5992476940155029,-0.04761291667819023,1.4766696691513062
1761414062818272800,2.313272705078125,0.5509970784187317,-0.2593262195587158,1.2809184789657593
1761414062828284700,2.32328466796875,0.5430276989936829,-0.255367249250412,1.0338472127914429
1761414062838297900,2.3332978515625,0.5888577699661255,-0.20838376879692078,0.8153931498527527
1761414062848310800,2.343310791015625,0.6883078217506409,-0.25304755568504333,0.6567279696464539
1761414062858323000,2.353322998046875,0.7652745246887207,-0.39414048194885254,0.5637487769126892
1761414062868335600,2.363335693359375,0.7260372042655945,-0.5399788618087769,0.569129467010498
1761414062878348800,2.373348876953125,0.5793718695640564,-0.5645054578781128,0.6445291042327881
1761414062888360700,2.383360595703125,0.3977520763874054,-0.4462684094905853,0.7258270382881165
1761414062898374000,2.393373779296875,0.21493461728096008,-0.27558615803718567,0.7260534167289734
1761414062908385800,2.4033857421875,0.06411511451005936,-0.06212669610977173,0.6272509694099426
1761414062918399000,2.41339892578125,0.008363966830074787,0.2331334352493286,0.4431370496749878
1761414062928411600,2.42341162109375,0.01849973388016224,0.526951253414154,0.2633562982082367
1761414062938423600,2.433423583984375,0.04268363490700722,0.8165862560272217,0.1682308465242386
1761414062948436700,2.443436767578125,0.05462826043367386,1.0374181270599365,0.16328281164169312
1761414062958448600,2.45344873046875,0.04959062486886978,1.1368746757507324,0.21845844388008118
1761414062968461800,2.4634619140625,0.0371767096221447,1.1393864154815674,0.3143082559108734
1761414062978474800,2.473474853515625,0.03737085312604904,1.072715163230896,0.4127733111381531
1761414062988486700,2.483486572265625,0.047891177237033844,0.9469313621520996,0.4828689694404602
1761414062998499600,2.49349951171875,0.07013682276010513,0.7961940169334412,0.49682021141052246
1761414063008512800,2.5035126953125,0.08489004522562027,0.6436176896095276,0.45978766679763794
1761414063018524700,2.513524658203125,0.06910762190818787,0.5180073380470276,0.39492690563201904
1761414063028537900,2.523537841796875,0.03140008822083473,0.44341450929641724,0.3228209614753723
1761414063038549800,2.5335498046875,0.005849985871464014,0.4262555241584778,0.2774185836315155
1761414063048562700,2.543562744140625,-0.01382434368133545,0.44777509570121765,0.23702369630336761
1761414063058575600,2.55357568359375,-0.03458528220653534,0.4610559940338135,0.17373287677764893
1761414063068587800,2.563587890625,-0.049792010337114334,0.43718618154525757,0.08834889531135559
1761414063078600700,2.5736005859375,-0.08262985199689865,0.3923502564430237,0.005825790576636791
1761414063088613600,2.583613525390625,-0.13276183605194092,0.30831751227378845,-0.04693122208118439
1761414063098625500,2.59362548828125,-0.1861499547958374,0.20021338760852814,-0.03928768262267113
1761414063108638700,2.603638671875,-0.23556643724441528,0.08785001933574677,0.00810070801526308
1761414063118651000,2.61365087890625,-0.28065401315689087,-0.02790428325533867,0.07134784758090973
1761414063128664000,2.6236640625,-0.32669880986213684,-0.14028586447238922,0.1165924146771431
1761414063138677000,2.633677001953125,-0.3752785921096802,-0.1883884072303772,0.11335960775613785
1761414063148689200,2.643689208984375,-0.4081893861293793,-0.13590922951698303,0.05330505222082138
1761414063158701800,2.653701904296875,-0.42100346088409424,0.02678915113210678,-0.05374683067202568
1761414063168714000,2.6637138671875,-0.4261913001537323,0.24366366863250732,-0.18063366413116455
1761414063178727000,2.673726806640625,-0.44988271594047546,0.44618457555770874,-0.2880012094974518
1761414063188740000,2.683739990234375,-0.4911344349384308,0.5821009278297424,-0.3675861060619354
1761414063198752000,2.693751953125,-0.5230202078819275,0.6259701251983643,-0.41596826910972595
1761414063208765000,2.703764892578125,-0.5703732371330261,0.5514454245567322,-0.49134013056755066
1761414063218777900,2.71377783203125,-0.6086497902870178,0.3338276743888855,-0.5887324810028076
1761414063228790000,2.7237900390625,-0.6366583704948425,0.024578016251325607,-0.7048546671867371
1761414063238803000,2.733802978515625,-0.6471309661865234,-0.22477854788303375,-0.7911913990974426
1761414063248815000,2.743815185546875,-0.6078576445579529,-0.2711414098739624,-0.775055468082428
1761414063258828000,2.753828125,-0.574905276298523,-0.23022647202014923,-0.7019585967063904
1761414063268841000,2.763841064453125,-0.5718641877174377,-0.260344535112381,-0.7668628692626953
1761414063278852900,2.773852783203125,-0.5981626510620117,-0.5927792191505432,-1.1582791805267334
1761414063288866000,2.783865966796875,-0.7088326811790466,-1.254173755645752,-1.8315800428390503
1761414063298878000,2.7938779296875,-0.8018872737884521,-1.763893961906433,-2.4331881999969482
1761414063308891100,2.80389111328125,-0.755431056022644,-1.8740519285202026,-2.656278371810913
1761414063318903800,2.81390380859375,-0.705220639705658,-1.5076794624328613,-2.2990334033966064
1761414063328915700,2.823915771484375,-0.6047953367233276,-0.7050250172615051,-1.4802318811416626
1761414063338929000,2.833928955078125,-0.3565746247768402,0.05620233714580536,-0.6849648356437683
1761414063348942000,2.843942138671875,-0.01677471399307251,0.6024176478385925,-0.02102760598063469
1761414063358954000,2.8539541015625,0.2770177721977234,0.9691940546035767,0.6075809597969055
1761414063368967200,2.86396728515625,0.48528212308883667,1.08823561668396,1.1474615335464478
1761414063378979000,2.87397900390625,0.5650768876075745,1.0056030750274658,1.5564788579940796
1761414063388992000,2.883991943359375,0.5239648222923279,0.7503935098648071,1.673123836517334
1761414063399005000,2.8940048828125,0.4221567213535309,0.5007794499397278,1.4928033351898193
1761414063409016800,2.904016845703125,0.288623183965683,0.3352123200893402,1.1682713031768799
1761414063419030000,2.914030029296875,0.1825215071439743,0.16293376684188843,0.881391704082489
1761414063429042000,2.9240419921875,0.09690872579813004,-0.13682252168655396,0.666885256767273
1761414063439054800,2.934054931640625,0.0406704843044281,-0.4602911174297333,0.46199336647987366
1761414063449068000,2.944068115234375,0.026816537603735924,-0.724374532699585,0.281421035528183
1761414063459080000,2.954079833984375,0.04501551389694214,-0.8719304203987122,0.1954006552696228
1761414063469092900,2.9640927734375,0.09111610800027847,-0.8809749484062195,0.2258111536502838
1761414063479106000,2.97410595703125,0.13212771713733673,-0.7958357930183411,0.3163463771343231
1761414063489118000,2.984117919921875,0.11881261318922043,-0.7122851610183716,0.3788304924964905
1761414063499131000,2.994130859375,0.05310230702161789,-0.6641772985458374,0.35449716448783875
1761414063509142800,3.004142822265625,-0.031328462064266205,-0.654512882232666,0.20630058646202087
1761414063519156000,3.014156005859375,-0.10176374018192291,-0.6484478116035461,-0.0493980348110199
1761414063529169000,3.0241689453125,-0.15804436802864075,-0.6175863146781921,-0.32993799448013306
1761414063539181000,3.03418115234375,-0.17681992053985596,-0.5393266677856445,-0.5229678750038147
1761414063549194000,3.044194091796875,-0.1550084352493286,-0.47397059202194214,-0.5921502709388733
1761414063559206000,3.054205810546875,-0.10769898444414139,-0.39727768301963806,-0.5159790515899658
1761414063569218800,3.06421875,-0.06050664559006691,-0.32232871651649475,-0.39954766631126404
1761414063579232000,3.07423193359375,-0.024235723540186882,-0.23762154579162598,-0.3179377615451813
1761414063589244000,3.084243896484375,-0.02526606060564518,-0.19271595776081085,-0.2770348787307739
1761414063599257000,3.094257080078125,-0.06724973022937775,-0.2103106677532196,-0.30491551756858826
1761414063609269800,3.104269775390625,-0.10247819125652313,-0.24411973357200623,-0.3841298818588257
1761414063619282000,3.114281982421875,-0.11533486098051071,-0.3003992438316345,-0.4999707341194153
1761414063629294800,3.124294921875,-0.11122439801692963,-0.2940954566001892,-0.5812245607376099
1761414063639307000,3.13430712890625,-0.05030298978090286,-0.15601402521133423,-0.556549072265625
1761414063649320000,3.14431982421875,0.09133844077587128,0.05055360496044159,-0.4521997570991516
1761414063659332900,3.154332763671875,0.2871233820915222,0.18396812677383423,-0.34383946657180786
1761414063669345000,3.164344970703125,0.40887442231178284,0.07899767905473709,-0.3052847981452942
1761414063679358000,3.17435791015625,0.40087267756462097,-0.1974317729473114,-0.3133946657180786
1761414063689369900,3.184369873046875,0.3009442687034607,-0.4782131016254425,-0.3018238842487335
1761414063699383000,3.194383056640625,0.20764735341072083,-0.6099570393562317,-0.22112448513507843
1761414063709396000,3.20439599609375,0.14946074783802032,-0.6408268213272095,-0.10232700407505035
1761414063719408000,3.214408203125,0.12333646416664124,-0.552542507648468,0.03869163617491722
1761414063729420800,3.2244208984375,0.11900176107883453,-0.3583899438381195,0.09764713048934937
1761414063739434000,3.23443408203125,0.09991541504859924,-0.18181651830673218,0.011982026509940624
1761414063749446000,3.24444580078125,0.03134981542825699,-0.1122586578130722,-0.2013387829065323
1761414063759459000,3.254458984375,-0.0664459839463234,-0.03973625600337982,-0.3820694386959076
1761414063769471000,3.264470947265625,-0.13440322875976562,0.0898042544722557,-0.40417036414146423
1761414063779484200,3.274484130859375,-0.13059943914413452,0.2347494661808014,-0.26603859663009644
1761414063789496800,3.284496826171875,-0.08600044995546341,0.31640738248825073,-0.08401734381914139
1761414063799509000,3.294509033203125,-0.03746620938181877,0.32266369462013245,0.01222983468323946
1761414063809522000,3.30452197265625,-0.03545740246772766,0.16218222677707672,-0.15354286134243011
1761414063819534000,3.3145341796875,-0.13649959862232208,-0.10160787403583527,-0.6339662075042725
1761414063829547000,3.324547119140625,-0.31748726963996887,-0.39792200922966003,-1.1467056274414062
1761414063839560000,3.334559814453125,-0.44751185178756714,-0.5374383926391602,-1.2431551218032837
1761414063849571800,3.34457177734375,-0.45328500866889954,-0.4508266746997833,-0.7190589904785156
1761414063859585000,3.3545849609375,-0.4113956093788147,-0.1977936327457428,0.24462153017520905
1761414063869598000,3.364597900390625,-0.32307031750679016,0.08779612928628922,1.0989006757736206
1761414063879610000,3.374610107421875,-0.18581555783748627,0.39824163913726807,1.4509528875350952
1761414063889623000,3.384623046875,-0.07420291751623154,0.6998631954193115,1.407641053199768
1761414063899635000,3.394635009765625,-0.028352338820695877,0.9129743576049805,1.2403583526611328
1761414063909648000,3.40464794921875,-0.005053404252976179,0.9810741543769836,1.1348146200180054
1761414063919661000,3.4146611328125,0.05113103613257408,0.9104087352752686,1.1109699010849
1761414063929673000,3.4246728515625,0.12238841503858566,0.8289600610733032,1.145630955696106
1761414063939686100,3.43468603515625,0.1429688036441803,0.7920478582382202,1.2311387062072754
1761414063949698000,3.444697998046875,0.1284368485212326,0.8228498101234436,1.371347427368164
1761414063959710700,3.454710693359375,0.13419726490974426,0.8141756057739258,1.458083152770996
1761414063969724000,3.464723876953125,0.1213216483592987,0.6681665778160095,1.3263952732086182
1761414063979735800,3.47473583984375,0.08170287311077118,0.42806047201156616,0.9823774695396423
1761414063989749000,3.4847490234375,0.04657129570841789,0.2602517306804657,0.563051700592041
1761414063999762200,3.49476220703125,0.013704427517950535,0.14630331099033356,0.1619199812412262
1761414064009774000,3.504774169921875,-0.0642474889755249,0.04344385862350464,-0.1953079253435135
1761414064019786800,3.514786865234375,-0.18078315258026123,0.041987910866737366,-0.45737549662590027
1761414064029799000,3.524798828125,-0.26849743723869324,0.17589828372001648,-0.576388955116272
1761414064039811800,3.534811767578125,-0.29432475566864014,0.33107322454452515,-0.5900927782058716
1761414064049825000,3.544824951171875,-0.2910671830177307,0.426440954208374,-0.5512407422065735
1761414064059837000,3.5548369140625,-0.2780885398387909,0.4389176070690155,-0.5111689567565918
1761414064069849900,3.564849853515625,-0.297171026468277,0.418239027261734,-0.48996642231941223
1761414064079861800,3.57486181640625,-0.3011002540588379,0.3805374801158905,-0.5144248604774475
1761414064089875000,3.584875,-0.3390645682811737,0.3971391022205353,-0.5449825525283813
1761414064099887900,3.594887939453125,-0.3748803734779358,0.43926045298576355,-0.5788672566413879
1761414064109900000,3.604900146484375,-0.3882538378238678,0.5287373661994934,-0.5876143574714661
1761414064119912700,3.61491259765625,-0.3810790181159973,0.6153111457824707,-0.5679951310157776
1761414064129925600,3.624925537109375,-0.35079818964004517,0.6881290078163147,-0.5219772458076477
1761414064139937500,3.6349375,-0.3093322515487671,0.7259400486946106,-0.4679819643497467
1761414064149950700,3.64495068359375,-0.2668362557888031,0.7335681319236755,-0.40289124846458435
1761414064159962600,3.654962646484375,-0.22823934257030487,0.6786995530128479,-0.3503502607345581
1761414064169975800,3.664975830078125,-0.20662198960781097,0.5889282822608948,-0.3056199550628662
1761414064179988700,3.67498876953125,-0.20792214572429657,0.47797250747680664,-0.2518309950828552
1761414064190001000,3.6850009765625,-0.21747030317783356,0.3564523756504059,-0.20961792767047882
1761414064200013600,3.695013671875,-0.22653277218341827,0.23709402978420258,-0.17921873927116394
1761414064210025700,3.705025634765625,-0.22153203189373016,0.1259841024875641,-0.15433281660079956
1761414064220038700,3.71503857421875,-0.19248680770397186,0.055722180753946304,-0.12430194020271301
1761414064230051800,3.7250517578125,-0.15176676213741302,-0.016892362385988235,-0.09771861881017685
1761414064240063700,3.735063720703125,-0.09509709477424622,-0.08231078833341599,-0.04075920209288597
1761414064250076700,3.74507666015625,-0.012103264220058918,-0.14107653498649597,0.03925146162509918
1761414064260088600,3.755088623046875,0.06209453195333481,-0.23197954893112183,0.10306666791439056
1761414064270101800,3.765101806640625,0.10100040584802628,-0.381477952003479,0.12329225242137909
1761414064280114700,3.77511474609375,0.10653498768806458,-0.5536342859268188,0.13345567882061005
1761414064290126800,3.785126953125,0.0948774516582489,-0.6912853121757507,0.1065768301486969
1761414064300139800,3.795139892578125,0.06925118714570999,-0.7935088872909546,0.020256053656339645
1761414064310152700,3.805152587890625,0.03726043552160263,-0.8637267351150513,-0.08247846364974976
1761414064320164600,3.81516455078125,0.005487858317792416,-0.9166083335876465,-0.16001532971858978
1761414064330177800,3.825177734375,-0.03656617924571037,-0.8923572897911072,-0.23100894689559937
1761414064340189700,3.835189697265625,-0.07729896157979965,-0.8150856494903564,-0.3001677691936493
1761414064350203000,3.845202880859375,-0.10455995798110962,-0.7808696031570435,-0.37183326482772827
1761414064360215600,3.855215576171875,-0.07874434441328049,-0.7101104855537415,-0.3788680136203766
1761414064370227700,3.865227783203125,0.00839463621377945,-0.6199060678482056,-0.3345835506916046
1761414064380240600,3.87524072265625,0.0676070898771286,-0.5568671822547913,-0.29392480850219727
1761414064390252500,3.88525244140625,0.0787481814622879,-0.4561696946620941,-0.30560302734375
1761414064400265700,3.895265625,-0.004329130984842777,-0.5734963417053223,-0.5857431292533875
1761414064410279000,3.90527880859375,-0.1623942255973816,-0.962799072265625,-1.1474534273147583
1761414064420290800,3.915290771484375,-0.35110583901405334,-1.3548240661621094,-1.7777562141418457
1761414064430303700,3.9253037109375,-0.467979371547699,-1.288686990737915,-2.1693596839904785
1761414064440316700,3.935316650390625,-0.40464407205581665,-0.6852445006370544,-2.0573978424072266
1761414064450328600,3.94532861328125,-0.29575636982917786,0.21855558454990387,-1.4386054277420044
1761414064460341800,3.955341796875,-0.250802218914032,0.8817561864852905,-0.6797155737876892
1761414064470353700,3.965353759765625,-0.2439669370651245,1.1927932500839233,-0.08388257026672363
1761414064480366600,3.97536669921875,-0.25511547923088074,1.2508759498596191,0.2467677891254425
1761414064490379800,3.9853798828125,-0.2574995458126068,1.1347788572311401,0.4421573281288147
1761414064500391700,3.9953916015625,-0.20611706376075745,0.9605894684791565,0.6376996636390686
1761414064510404600,4.005404541015625,-0.11075412482023239,0.8605188131332397,0.9315133690834045
1761414064520416800,4.015416748046875,-0.0505717433989048,0.8068563938140869,1.3454740047454834
1761414064530429700,4.0254296875,-0.05545626953244209,0.6982125639915466,1.7654707431793213
1761414064540442600,4.035442626953125,-0.08791301399469376,0.5283915400505066,2.0177226066589355
1761414064550454500,4.04545458984375,-0.16089105606079102,0.38098257780075073,2.055921792984009
1761414064560467700,4.0554677734375,-0.3353955149650574,0.165311798453331,1.8761181831359863
1761414064570480600,4.065480712890625,-0.6152436137199402,-0.16614682972431183,1.5565072298049927
1761414064580492800,4.075492919921875,-0.908143937587738,-0.5013560056686401,1.2221033573150635
1761414064590505500,4.08550537109375,-1.0870015621185303,-0.6525734663009644,0.8898058533668518
1761414064600517600,4.095517578125,-1.061236023902893,-0.4793020784854889,0.613788902759552
1761414064610530600,4.105530517578125,-0.9213454723358154,-0.09891186654567719,0.5065454840660095
1761414064620543700,4.115543701171875,-0.7894324660301208,0.16827376186847687,0.5310457944869995
1761414064630555600,4.1255556640625,-0.7274795174598694,0.22468049824237823,0.588444709777832
1761414064640568800,4.13556884765625,-0.7325379252433777,0.22163783013820648,0.6309612989425659
1761414064650580700,4.145580810546875,-0.7574126124382019,0.2295593023300171,0.6142557263374329
1761414064660593700,4.15559375,-0.7732040882110596,0.2829146683216095,0.5161094665527344
1761414064670606600,4.165606689453125,-0.7480766177177429,0.36069896817207336,0.3271300792694092
1761414064680618800,4.17561865234375,-0.6948027610778809,0.474412739276886,0.12280356884002686
1761414064690631700,4.185631591796875,-0.6240810751914978,0.574988603591919,-0.04645984619855881
1761414064700644600,4.19564453125,-0.5523680448532104,0.6340308785438538,-0.139194056391716
1761414064710656800,4.20565673828125,-0.4578810930252075,0.6585166454315186,-0.11180819571018219
1761414064720669700,4.215669677734375,-0.34828615188598633,0.5474278926849365,-0.01146694365888834
1761414064730681600,4.225681640625,-0.24201177060604095,0.29996931552886963,0.09686508774757385
1761414064740694800,4.23569482421875,-0.156365305185318,0.02959427423775196,0.17283974587917328
1761414064750707700,4.245707763671875,-0.10900834202766418,-0.20455263555049896,0.21130812168121338
1761414064760720000,4.255719970703125,-0.09558680653572083,-0.34251317381858826,0.21862676739692688
1761414064770732500,4.265732666015625,-0.09110089391469955,-0.3718245327472687,0.20422369241714478
1761414064780744700,4.27574462890625,-0.06667092442512512,-0.34980764985084534,0.15235623717308044
1761414064790757600,4.285757568359375,-0.03268163278698921,-0.31601008772850037,0.05872686207294464
1761414064800770800,4.295770751953125,-0.015089321881532669,-0.3050090968608856,-0.053480103611946106
1761414064810782700,4.30578271484375,0.0006490166997537017,-0.2960272431373596,-0.14203470945358276
1761414064820795600,4.315795654296875,0.014229007065296173,-0.275607705116272,-0.18538936972618103
1761414064830807800,4.325807861328125,0.04063859209418297,-0.29375511407852173,-0.1821008026599884
1761414064840820700,4.33582080078125,0.08795950561761856,-0.36436083912849426,-0.15043102204799652
1761414064850833700,4.345833740234375,0.12961377203464508,-0.4938400089740753,-0.13522787392139435
1761414064860845800,4.355845703125,0.15718360245227814,-0.6383993625640869,-0.12711428105831146
1761414064870858800,4.365858642578125,0.186890110373497,-0.7277092337608337,-0.11836473643779755
1761414064880871700,4.37587158203125,0.20751921832561493,-0.7881712913513184,-0.10851503908634186
1761414064890883600,4.385883544921875,0.18540772795677185,-0.8647964596748352,-0.11285640299320221
1761414064900896800,4.395896728515625,0.1431947648525238,-0.8972105979919434,-0.13020716607570648
1761414064910908700,4.40590869140625,0.08270426839590073,-0.8566738963127136,-0.1914106160402298
1761414064920921900,4.415921875,0.012479637749493122,-0.6901432275772095,-0.3084064722061157
1761414064930934800,4.425934814453125,-0.03708606958389282,-0.45074623823165894,-0.45252344012260437
1761414064940947000,4.435947021484375,-0.06293471157550812,-0.26092225313186646,-0.5868857502937317
1761414064950959600,4.445959716796875,-0.13449271023273468,-0.24844489991664886,-0.6658642888069153
1761414064960971500,4.455971435546875,-0.23798155784606934,-0.4275834858417511,-0.6479441523551941
1761414064970984700,4.465984619140625,-0.3172098398208618,-0.863335907459259,-0.6551042795181274
1761414064980998000,4.475997802734375,-0.3486628532409668,-1.4902299642562866,-0.8365854024887085
1761414064991009800,4.486009765625,-0.32298025488853455,-2.0093843936920166,-1.1150784492492676
1761414065001022700,4.496022705078125,-0.2853436768054962,-2.0757551193237305,-1.2127496004104614
1761414065011035600,4.50603564453125,-0.3139406442642212,-1.7613763809204102,-1.0775823593139648
1761414065021047600,4.516047607421875,-0.44044026732444763,-1.2306016683578491,-0.8789193630218506
1761414065031060700,4.526060791015625,-0.5214211940765381,-0.5996882915496826,-0.6963746547698975
1761414065041072600,4.53607275390625,-0.4802852272987366,-0.02576318196952343,-0.4183387756347656
1761414065051085800,4.5460859375,-0.3421766757965088,0.2618905305862427,0.011512614786624908
1761414065061098800,4.5560986328125,-0.16724030673503876,0.3091672360897064,0.5588998198509216
1761414065071110700,4.566110595703125,-0.04339243471622467,0.35330843925476074,1.175511360168457
1761414065081123600,4.57612353515625,0.013681236654520035,0.3711335062980652,1.755527377128601
1761414065091135700,4.5861357421875,-0.03707566484808922,0.32551753520965576,2.1156229972839355
1761414065101148700,4.596148681640625,-0.158454030752182,0.24485252797603607,2.164294481277466
1761414065111161000,4.6061611328125,-0.26691126823425293,0.23689872026443481,1.8911919593811035
1761414065121173000,4.616173095703125,-0.26440709829330444,0.31405049562454224,1.3288744688034058
1761414065131186000,4.62618603515625,-0.19033552706241608,0.32067325711250305,0.6335874199867249
1761414065141197800,4.63619775390625,-0.2112586498260498,0.20713071525096893,0.028524648398160934
1761414065151211000,4.6462109375,-0.14998678863048553,0.28524574637413025,-0.2985423803329468
1761414065161224000,4.656223876953125,-0.02329196222126484,0.22803546488285065,-0.6561732292175293
1761414065171236000,4.666236083984375,0.09584653377532959,0.18170958757400513,-0.8947527408599854
1761414065181249000,4.6762490234375,0.17192265391349792,0.2334500104188919,-0.9273847341537476
1761414065191262000,4.686261962890625,0.13852573931217194,0.298069030046463,-0.7836846113204956
1761414065201273900,4.69627392578125,0.029434407129883766,0.4245537519454956,-0.49145597219467163
1761414065211287000,4.706287109375,-0.1536782830953598,0.549453616142273,-0.2147759646177292
1761414065221299000,4.716298828125,-0.3236963450908661,0.6634925603866577,-0.040622808039188385
1761414065231312100,4.72631201171875,-0.4360100328922272,0.661733090877533,-0.03527452424168587
1761414065241324800,4.73632470703125,-0.4911465048789978,0.5745177268981934,-0.15486350655555725
1761414065251337000,4.7463369140625,-0.4476436376571655,0.5000556707382202,-0.28602874279022217
1761414065261350000,4.756349853515625,-0.34335798025131226,0.4480130076408386,-0.35761985182762146
1761414065271362000,4.766362060546875,-0.23893620073795319,0.40526118874549866,-0.3527050316333771
1761414065281375000,4.776375,-0.16581857204437256,0.4017048180103302,-0.27265438437461853
1761414065291388200,4.78638818359375,-0.11344289034605026,0.4158032238483429,-0.13312065601348877
1761414065301400000,4.796400146484375,-0.0955195501446724,0.4099027216434479,0.017451535910367966
1761414065311413000,4.8064130859375,-0.10776546597480774,0.3472873568534851,0.14982697367668152
1761414065321425000,4.8164248046875,-0.14140838384628296,0.2685281038284302,0.2325303703546524
1761414065331438000,4.82643798828125,-0.17536310851573944,0.22142167389392853,0.2591370940208435
1761414065341451000,4.836450927734375,-0.17740574479103088,0.2091439813375473,0.24065476655960083
1761414065351463200,4.846463134765625,-0.1692197620868683,0.17024317383766174,0.18765927851200104
1761414065361475800,4.856475830078125,-0.14530111849308014,0.08352027088403702,0.10838495939970016
1761414065371489000,4.866489013671875,-0.08788908272981644,-0.03169545531272888,0.03798481822013855
1761414065381501000,4.8765009765625,0.010940290987491608,-0.11307260394096375,0.004773336928337812
1761414065391514000,4.88651416015625,0.10987874865531921,-0.1732732653617859,0.028083395212888718
1761414065401526000,4.896526123046875,0.17266570031642914,-0.2360178679227829,0.08332161605358124
1761414065411539200,4.906539306640625,0.18494728207588196,-0.2987516522407532,0.14991392195224762
1761414065421551900,4.9165517578125,0.1576293706893921,-0.3509107232093811,0.19471149146556854
1761414065431564000,4.92656396484375,0.09659633785486221,-0.3938470184803009,0.1851569563150406
1761414065441577000,4.936576904296875,0.01733933389186859,-0.4009605646133423,0.1240515261888504
1761414065451589000,4.946589111328125,-0.05102665349841118,-0.3676871955394745,0.0103352852165699
1761414065461602000,4.95660205078125,-0.10392235964536667,-0.29575178027153015,-0.14812812209129333
1761414065471615000,4.966614990234375,-0.14725783467292786,-0.20225439965724945,-0.3487246334552765
1761414065481627000,4.976626953125,-0.17263242602348328,-0.07881102710962296,-0.5410522818565369
1761414065491640000,4.98664013671875,-0.14947867393493652,0.033390071243047714,-0.7032551765441895
1761414065501652000,4.99665185546875,-0.07279109209775925,0.06865857541561127,-0.8002658486366272
1761414065511665200,5.0066650390625,0.12691642343997955,-0.02440372109413147,-0.8245384693145752
1761414065521678000,5.016677978515625,0.34774523973464966,-0.31043174862861633,-0.8332568407058716
1761414065531690000,5.02668994140625,0.4948238730430603,-0.5764995813369751,-0.8212348222732544
1761414065541703000,5.036702880859375,0.6002365350723267,-0.7275785803794861,-0.8448179364204407
1761414065551716000,5.046716064453125,0.6932434439659119,-0.8093395233154297,-0.9634060263633728
1761414065561728000,5.05672802734375,0.7037879228591919,-0.9276843070983887,-1.2067230939865112
1761414065571741200,5.0667412109375,0.6491371989250183,-1.1785149574279785,-1.5233334302902222
1761414065581753000,5.076753173828125,0.5805101990699768,-1.3577417135238647,-1.8317573070526123
1761414065591765800,5.086765869140625,0.5343160033226013,-1.1458088159561157,-2.0004143714904785
1761414065601779000,5.096779052734375,0.4901525676250458,-0.5165778398513794,-1.9473575353622437
1761414065611790800,5.106790771484375,0.48936954140663147,0.31039637327194214,-1.648953914642334
1761414065621804000,5.116803955078125,0.640738844871521,1.0872968435287476,-1.1184756755828857
1761414065631816000,5.12681591796875,0.8140513896942139,1.5363019704818726,-0.3985975682735443
1761414065641829000,5.1368291015625,1.0190540552139282,1.5045936107635498,0.4057218134403229
1761414065651841800,5.146841796875,1.1893242597579956,1.095416784286499,1.0946557521820068
1761414065661854000,5.15685400390625,1.2649891376495361,0.5554606318473816,1.6009514331817627
1761414065671867000,5.166866943359375,1.2102470397949219,0.06822715699672699,1.8512959480285645
1761414065681879000,5.176879150390625,1.0893067121505737,-0.3098815381526947,1.8656237125396729
1761414065691892000,5.18689208984375,0.9772390723228455,-0.4758017957210541,1.661548376083374
1761414065701905000,5.19690478515625,0.8984193801879883,-0.4974903166294098,1.3265727758407593
1761414065711916800,5.206916748046875,0.8757292032241821,-0.46503835916519165,0.9875348210334778
1761414065721930000,5.216929931640625,0.8985311985015869,-0.3900621235370636,0.7071516513824463
1761414065731943000,5.22694287109375,0.9264384508132935,-0.311092734336853,0.5349599123001099
1761414065741955000,5.236955078125,0.9166778922080994,-0.20053799450397491,0.4780016541481018
1761414065751968000,5.246968017578125,0.8748066425323486,-0.13058064877986908,0.5194440484046936
1761414065761980200,5.256980224609375,0.8000122904777527,-0.06992929428815842,0.6085619330406189
1761414065771992800,5.266992919921875,0.6870086193084717,-0.03484313562512398,0.706600546836853
1761414065782006000,5.277006103515625,0.5301707983016968,-0.0002920827828347683,0.7827621698379517
1761414065792018000,5.287017822265625,0.3448103070259094,0.06773065030574799,0.8119657039642334
1761414065802031000,5.297031005859375,0.16909225285053253,0.15447886288166046,0.7795947194099426
1761414065812043000,5.30704296875,0.013600461184978485,0.2645062208175659,0.7075246572494507
1761414065822056000,5.317055908203125,-0.10482871532440186,0.4220716059207916,0.6075136065483093
1761414065832068900,5.32706884765625,-0.1912911981344223,0.5944048166275024,0.49123743176460266
1761414065842081000,5.3370810546875,-0.25119850039482117,0.8090388178825378,0.38486891984939575
1761414065852094000,5.347093994140625,-0.2651870846748352,1.0688949823379517,0.3025188744068146
1761414065862106000,5.357106201171875,-0.23061394691467285,1.3440139293670654,0.24724522233009338
1761414065872119000,5.367119140625,-0.16516709327697754,1.5428098440170288,0.20761778950691223
1761414065882132000,5.377132080078125,-0.0882030725479126,1.6289864778518677,0.18187834322452545
1761414065892143900,5.387143798828125,-0.02761177346110344,1.6014591455459595,0.15332314372062683
1761414065902157000,5.397156982421875,-0.009723851457238197,1.466465711593628,0.1265096515417099
1761414065912170000,5.407169921875,-0.04883565008640289,1.2745585441589355,0.09746481478214264
1761414065922182100,5.41718212890625,-0.11240930110216141,1.0493539571762085,0.07963202148675919
1761414065932195000,5.427195068359375,-0.17984503507614136,0.8146443367004395,0.08640307933092117
1761414065942207000,5.43720703125,-0.23784469068050385,0.552418053150177,0.09375207126140594
1761414065952220000,5.447219970703125,-0.24928294122219086,0.2944548726081848,0.10739754885435104
1761414065962233000,5.457233154296875,-0.2654353082180023,0.08602575957775116,0.107848159968853
1761414065972245000,5.467244873046875,-0.1932767927646637,0.04376956820487976,0.13308051228523254
1761414065982258200,5.477258056640625,-0.182643860578537,0.08650025725364685,0.1397663801908493
1761414065992270000,5.48727001953125,-0.2561643719673157,0.03704898804426193,0.08437889814376831
1761414066002283000,5.497282958984375,-0.31681546568870544,-0.04021037742495537,-0.04011908173561096
1761414066012296000,5.5072958984375,-0.2827511131763458,-0.03399384766817093,-0.18554465472698212
1761414066022308000,5.51730810546875,-0.22177325189113617,0.042322225868701935,-0.3161836266517639
1761414066032321000,5.527321044921875,-0.21562354266643524,0.1000833585858345,-0.457572340965271
1761414066042333000,5.5373330078125,-0.2743145525455475,0.025580624118447304,-0.6365870833396912
1761414066052346000,5.54734619140625,-0.3809451460838318,-0.20940223336219788,-0.8779616951942444
1761414066062359000,5.557359130859375,-0.5203245878219604,-0.4208742678165436,-1.0390783548355103
1761414066072371000,5.567370849609375,-0.5368595123291016,-0.6891522407531738,-1.066731572151184
1761414066082384100,5.577384033203125,-0.29752200841903687,-1.150651454925537,-1.0926332473754883
1761414066092397000,5.58739697265625,0.0672982856631279,-1.5526162385940552,-1.1812727451324463
1761414066102409000,5.597408935546875,0.3424723446369171,-1.4898083209991455,-1.1453895568847656
1761414066112422000,5.607421875,0.5120113492012024,-1.200652003288269,-0.9760650396347046
1761414066122434000,5.61743408203125,0.6857194900512695,-1.1426867246627808,-1.002522587776184
1761414066132447000,5.627447021484375,0.4977811872959137,-1.109073281288147,-1.2500107288360596
1761414066142460200,5.637460205078125,0.059701044112443924,-0.48927685618400574,-1.6256802082061768
1761414066152472000,5.64747216796875,-0.25396618247032166,0.10283651947975159,-1.9214900732040405
1761414066162485200,5.6574853515625,-0.4271124005317688,0.44330036640167236,-1.697596549987793
1761414066172497200,5.6674970703125,-0.4579261541366577,0.9301000833511353,-0.9960564374923706
1761414066182510000,5.677510009765625,-0.26930537819862366,1.3221843242645264,-0.08390030264854431
1761414066192523000,5.68752294921875,0.058994635939598083,1.3425981998443604,0.9373319149017334
1761414066202535200,5.69753515625,0.352839857339859,1.0928829908370972,1.8754911422729492
1761414066212548000,5.707548095703125,0.48247113823890686,0.6988819241523743,2.492865800857544
1761414066222560300,5.717560302734375,0.5024150609970093,0.23825977742671967,2.70719838142395
1761414066232573000,5.727572998046875,0.5988584756851196,-0.13577497005462646,2.5672388076782227
1761414066242586000,5.737586181640625,0.7424635887145996,-0.316438227891922,2.1419107913970947
1761414066252598000,5.747597900390625,0.822851836681366,-0.37046968936920166,1.4799153804779053
1761414066262611200,5.757611083984375,0.8526211977005005,-0.34660854935646057,0.7239840030670166
1761414066272623000,5.767623046875,0.8258538246154785,-0.19387689232826233,0.048403993248939514
1761414066282636300,5.77763623046875,0.7550209164619446,-0.021410584449768066,-0.46743062138557434
1761414066292649000,5.78764892578125,0.6990028619766235,0.11212306469678879,-0.823264479637146
1761414066302661000,5.7976611328125,0.6814653873443604,0.18627239763736725,-1.0628925561904907
1761414066312674000,5.807674072265625,0.6773416996002197,0.20790214836597443,-1.2392743825912476
1761414066322687200,5.817687255859375,0.6567736268043518,0.22364383935928345,-1.3538368940353394
1761414066332699100,5.82769921875,0.6172364354133606,0.1978173851966858,-1.397830843925476
1761414066342712000,5.837712158203125,0.5995725393295288,0.14035062491893768,-1.377441644668579
1761414066352724000,5.847723876953125,0.588192343711853,0.08179188519716263,-1.3099175691604614
1761414066362737200,5.857737060546875,0.5688295960426331,0.04975911229848862,-1.1760993003845215
1761414066372750000,5.86775,0.4719129502773285,0.10388750582933426,-0.9626451730728149
1761414066382762200,5.87776220703125,0.27012282609939575,0.2710256278514862,-0.6720796823501587
1761414066392775200,5.887775146484375,-0.00526985852047801,0.49618178606033325,-0.2977830171585083
1761414066402787000,5.897787109375,-0.12570706009864807,0.39220160245895386,0.01200810819864273
1761414066412800000,5.907800048828125,-0.07661547511816025,0.10087369382381439,0.2582171857357025
1761414066422813200,5.917813232421875,0.00801046472042799,-0.05322851985692978,0.4995081126689911
1761414066432825000,5.9278251953125,0.04949440062046051,-0.09230020642280579,0.6895959973335266
1761414066442838300,5.93783837890625,0.052654244005680084,-0.10757476091384888,0.8295451402664185
1761414066452850200,5.94785009765625,0.033408600836992264,-0.10046173632144928,0.9257652759552002
1761414066462862800,5.95786279296875,0.015280998311936855,-0.04842117056250572,0.9792436361312866
1761414066472876000,5.9678759765625,0.006081537343561649,0.022323226556181908,0.9739987254142761
1761414066482888000,5.977887939453125,0.0009032868547365069,0.09528931230306625,0.907288670539856
1761414066492901000,5.987901123046875,-0.011627540923655033,0.16001805663108826,0.810899555683136
1761414066502914300,5.997914306640625,-0.01952940598130226,0.17407742142677307,0.7202175855636597
1761414066512926200,6.00792626953125,-0.02238372340798378,0.110756516456604,0.6634633541107178
1761414066522939000,6.01793896484375,-0.009830912575125694,-0.008039913140237331,0.6055052876472473
1761414066532951000,6.027950927734375,0.016561076045036316,-0.13636015355587006,0.5292266011238098
1761414066542964000,6.0379638671875,0.0474737174808979,-0.247395858168602,0.4277026355266571
1761414066552977200,6.04797705078125,0.07834510505199432,-0.3106379508972168,0.31881019473075867
1761414066562989000,6.057989013671875,0.1160229742527008,-0.2890370488166809,0.25575321912765503
1761414066573002000,6.068001953125,0.15624089539051056,-0.2135191261768341,0.25565242767333984
1761414066583014000,6.078013916015625,0.20435328781604767,-0.1459275633096695,0.2807213068008423
1761414066593027000,6.088027099609375,0.2543293535709381,-0.12271935492753983,0.27253207564353943
1761414066603040000,6.0980400390625,0.2888908088207245,-0.12848857045173645,0.22414936125278473
1761414066613052200,6.10805224609375,0.30843386054039,-0.16747164726257324,0.17804130911827087
1761414066623065000,6.118065185546875,0.3073180019855499,-0.2481558471918106,0.12927429378032684
1761414066633077200,6.1280771484375,0.31168466806411743,-0.2916906177997589,0.10551029443740845
1761414066643090000,6.13808984375,0.3513500690460205,-0.21596123278141022,0.17082113027572632
1761414066653103000,6.14810302734375,0.43984073400497437,-0.09666281193494797,0.3029553294181824
1761414066663115000,6.158114990234375,0.580415666103363,-0.002456152578815818,0.4628768265247345
1761414066673128200,6.168128173828125,0.6725861430168152,0.02313646674156189,0.5668209195137024
1761414066683140000,6.17814013671875,0.634579062461853,-0.3008978068828583,0.6289692521095276
1761414066693153000,6.188153076171875,0.43997856974601746,-0.9865984916687012,0.6246864199638367
1761414066703166000,6.198166015625,0.07809119671583176,-1.7667547464370728,0.5287114381790161
1761414066713178000,6.20817822265625,-0.28042373061180115,-2.1175589561462402,0.47984039783477783
1761414066723191000,6.21819091796875,-0.36241474747657776,-1.9419565200805664,0.4680798649787903
1761414066733204200,6.228204345703125,-0.1495569497346878,-1.4024637937545776,0.42688482999801636
1761414066743216000,6.238216064453125,0.2298782616853714,-0.6177829504013062,0.3311324715614319
1761414066753229000,6.24822900390625,0.516595721244812,0.18801330029964447,0.24299867451190948
1761414066763241000,6.258240966796875,0.6468647718429565,0.6001347899436951,0.16752468049526215
1761414066773254100,6.268254150390625,0.6543329358100891,0.8138715028762817,0.14586716890335083
1761414066783267000,6.27826708984375,0.5490912199020386,0.8859680891036987,0.14689913392066956
1761414066793279200,6.288279296875,0.34920960664749146,0.8314841389656067,0.12371958792209625
1761414066803292200,6.298292236328125,0.14974576234817505,0.7180963158607483,0.08684706687927246
1761414066813304000,6.308303955078125,0.018238846212625504,0.641369640827179,0.029483135789632797
1761414066823317000,6.31831689453125,-0.05627480149269104,0.6562921404838562,-0.07625048607587814
1761414066833330200,6.328330078125,-0.09042374044656754,0.7639709711074829,-0.22122734785079956
1761414066843342000,6.338342041015625,-0.08823541551828384,0.9709534645080566,-0.36464041471481323
1761414066853355300,6.348355224609375,-0.056489862501621246,1.2159183025360107,-0.4686078727245331
1761414066863367200,6.3583671875,0.0003177596954628825,1.4570289850234985,-0.4899504482746124
1761414066873380000,6.368380126953125,0.11240597069263458,1.6503363847732544,-0.4089246094226837
1761414066883393000,6.37839306640625,0.26726052165031433,1.7550345659255981,-0.23791958391666412
1761414066893405000,6.388405029296875,0.39467087388038635,1.7730457782745361,-0.016972631216049194
1761414066903418000,6.398418212890625,0.4660685956478119,1.6436718702316284,0.19220295548439026
1761414066913430000,6.408429931640625,0.5027945041656494,1.3906892538070679,0.35699623823165894
1761414066923443200,6.418443115234375,0.5461491942405701,1.081732988357544,0.4775380790233612
1761414066933456100,6.4284560546875,0.6224609613418579,0.7976577281951904,0.5841483473777771
1761414066943468000,6.438468017578125,0.726163387298584,0.5774326920509338,0.6785228252410889
1761414066953481000,6.44848095703125,0.8275617957115173,0.39849206805229187,0.7370173335075378
1761414066963493000,6.4584931640625,0.8959171175956726,0.32904988527297974,0.7719122171401978
1761414066973506000,6.468506103515625,0.9475558996200562,0.3012317419052124,0.7776186466217041
1761414066983519000,6.47851904296875,0.9811878800392151,0.24617701768875122,0.7610258460044861
1761414066993531000,6.48853076171875,0.9741175770759583,0.15221190452575684,0.7338574528694153
1761414067003544000,6.4985439453125,0.9422901272773743,0.04047631472349167,0.69800865650177
1761414067013557200,6.50855712890625,0.8946987986564636,-0.06526307761669159,0.6438138484954834
1761414067023569200,6.518569091796875,0.815165102481842,-0.09496664255857468,0.5810508728027344
1761414067033582000,6.52858203125,0.7143235802650452,-0.0651344582438469,0.5154110789299011
1761414067043594200,6.53859423828125,0.6050738096237183,-0.029119733721017838,0.45759227871894836
1761414067053607000,6.54860693359375,0.4947091042995453,0.018706832081079483,0.4002774655818939
1761414067063620000,6.5586201171875,0.39736950397491455,0.08475109934806824,0.3683514893054962
1761414067073632000,6.568632080078125,0.3217523992061615,0.1630430519580841,0.35949039459228516
1761414067083645200,6.578645263671875,0.26175108551979065,0.23144741356372833,0.3740594685077667
1761414067093657000,6.588656982421875,0.22582118213176727,0.2717393636703491,0.4165579378604889
1761414067103670000,6.598669921875,0.22114306688308716,0.22352682054042816,0.49274566769599915
1761414067113683700,6.60868359375,0.26742905378341675,0.08948459476232529,0.584378182888031
1761414067123695600,6.618695556640625,0.32947057485580444,-0.046281494200229645,0.6890132427215576
1761414067133708800,6.628708740234375,0.3603283762931824,-0.11182960122823715,0.7874934077262878
1761414067143720700,6.638720703125,0.34864935278892517,-0.14006391167640686,0.8753268718719482
1761414067153733600,6.648733642578125,0.3211917281150818,-0.11696896702051163,0.9227458834648132
1761414067163746600,6.65874658203125,0.3190164566040039,-0.10667718201875687,0.920527458190918
1761414067173758500,6.668758544921875,0.3394966721534729,-0.13041456043720245,0.8514666557312012
1761414067183771600,6.678771728515625,0.3482725918292999,-0.18327538669109344,0.7046055793762207
1761414067193783600,6.688783447265625,0.31843116879463196,-0.22431877255439758,0.4829351007938385
1761414067203796700,6.698796630859375,0.22620826959609985,-0.2279910147190094,0.22051465511322021
1761414067213809700,6.7088095703125,0.09628874063491821,-0.14200198650360107,0.009235730394721031
1761414067223821600,6.718821533203125,-0.049434371292591095,-0.03963593766093254,-0.1409178227186203
1761414067233834500,6.72883447265625,-0.1800418198108673,-0.026336364448070526,-0.30456051230430603
1761414067243847700,6.73884765625,-0.281379371881485,-0.014421114698052406,-0.47192686796188354
1761414067253859600,6.748859619140625,-0.3102822005748749,0.12085168063640594,-0.5613172650337219
1761414067263872500,6.75887255859375,-0.25540831685066223,0.4345376789569855,-0.5049472451210022
1761414067273884400,6.768884521484375,-0.14631561934947968,0.5717297792434692,-0.4015446901321411
1761414067283897600,6.778897705078125,-0.0600033700466156,0.2661038339138031,-0.415265828371048
1761414067293910500,6.78891064453125,-0.0074709015898406506,-0.1976185441017151,-0.5712810754776001
1761414067303922700,6.798922607421875,0.012660199776291847,-0.6548234224319458,-0.8830157518386841
1761414067313935600,6.808935546875,-0.08367720991373062,-0.9346825480461121,-1.3071478605270386
1761414067323947800,6.81894775390625,-0.3004012405872345,-0.6797083020210266,-1.664422869682312
1761414067333960400,6.82896044921875,-0.3934624493122101,-0.21449188888072968,-1.854081630706787
1761414067343973600,6.8389736328125,-0.17447765171527863,0.2680337429046631,-1.8923605680465698
1761414067353985500,6.848985595703125,0.3155548572540283,0.6835380792617798,-1.7783982753753662
1761414067363998700,6.858998779296875,0.8231258988380432,0.957583487033844,-1.5581800937652588
1761414067374010600,6.8690107421875,1.149172067642212,0.9905636310577393,-1.3273415565490723
1761414067384023600,6.8790234375,1.241455078125,0.7682924866676331,-1.1288177967071533
1761414067394036500,6.889036376953125,1.1271477937698364,0.36093154549598694,-1.0111790895462036
1761414067404048600,6.899048583984375,0.9312275648117065,-0.11936154961585999,-0.9995535612106323
1761414067414061600,6.9090615234375,0.6986120939254761,-0.5362268686294556,-1.0951470136642456
1761414067424073700,6.91907373046875,0.4033154547214508,-0.8700354695320129,-1.2660279273986816
1761414067434086700,6.929086669921875,0.07063604891300201,-1.0038176774978638,-1.487403154373169
1761414067444099600,6.939099609375,-0.1644933819770813,-0.9434570670127869,-1.6583775281906128
1761414067454111500,6.949111572265625,-0.21297715604305267,-0.7369555830955505,-1.7248197793960571
1761414067464124700,6.959124755859375,-0.09567955136299133,-0.48484233021736145,-1.6966938972473145
1761414067474136600,6.969136474609375,0.07497851550579071,-0.2546377182006836,-1.5876352787017822
1761414067484149800,6.979149658203125,0.20593494176864624,0.008896992541849613,-1.4072660207748413
1761414067494162400,6.989162353515625,0.28711071610450745,0.22239232063293457,-1.1872910261154175
1761414067504174600,6.999174560546875,0.3352065980434418,0.34652385115623474,-0.9470472931861877
1761414067514187500,7.0091875,0.3615506887435913,0.3598461449146271,-0.7084963917732239
1761414067524199700,7.01919970703125,0.3735085427761078,0.23597826063632965,-0.4907345473766327
1761414067534212600,7.029212646484375,0.36028918623924255,0.07279599457979202,-0.268647164106369
1761414067544225800,7.039225830078125,0.36138081550598145,-0.12075962871313095,-0.009794054552912712
1761414067554237700,7.04923779296875,0.38276779651641846,-0.35559210181236267,0.26157820224761963
1761414067564250600,7.059250732421875,0.37899303436279297,-0.45428913831710815,0.4990014135837555
1761414067574262500,7.069262451171875,0.32832592725753784,-0.417547345161438,0.6861578226089478
1761414067584275700,7.079275634765625,0.2546309232711792,-0.3381044566631317,0.8142632842063904
1761414067594288600,7.08928857421875,0.15539522469043732,-0.2304120808839798,0.8921198844909668
1761414067604300800,7.09930078125,0.04834120720624924,-0.12896056473255157,0.9099454879760742
1761414067614313700,7.109313720703125,-0.04848116263747215,-0.08276662230491638,0.8730321526527405
1761414067624326700,7.11932666015625,-0.1292596310377121,-0.10363488644361496,0.8005906939506531
1761414067634338600,7.129338623046875,-0.1968054175376892,-0.19009627401828766,0.726434051990509
1761414067644351700,7.139351806640625,-0.2516109049320221,-0.29899799823760986,0.6754661798477173
1761414067654363600,7.14936376953125,-0.2914215922355652,-0.3938097059726715,0.643203616142273
1761414067664376800,7.159376953125,-0.301069438457489,-0.4518314599990845,0.6136055588722229
1761414067674389500,7.169389404296875,-0.28895193338394165,-0.4938967227935791,0.5639051795005798
1761414067684401400,7.1794013671875,-0.27019184827804565,-0.5136270523071289,0.49448534846305847
1761414067694414600,7.18941455078125,-0.2574724555015564,-0.4424669146537781,0.4396926760673523
1761414067704426500,7.199426513671875,-0.24425412714481354,-0.3304487466812134,0.3918308913707733
1761414067714439700,7.209439697265625,-0.22863271832466125,-0.22930598258972168,0.33807265758514404
1761414067724452600,7.21945263671875,-0.19616985321044922,-0.1954984813928604,0.26507142186164856
1761414067734464800,7.22946484375,-0.14832688868045807,-0.21371379494667053,0.1769706755876541
1761414067744477400,7.2394775390625,-0.08008870482444763,-0.1575021892786026,0.11632917076349258
1761414067754489600,7.249489501953125,-0.0062765758484601974,-0.06621036678552628,0.07355622947216034
1761414067764502500,7.25950244140625,0.07518526166677475,0.0023798816837370396,0.06765946000814438
1761414067774515700,7.269515625,0.1967322826385498,-0.0936703085899353,0.10910820215940475
1761414067784527600,7.279527587890625,0.3504304885864258,-0.15217755734920502,0.2539095878601074
1761414067794540500,7.28954052734375,0.47885486483573914,0.019113309681415558,0.5836135745048523
1761414067804552400,7.299552490234375,0.5447484254837036,0.05383160710334778,0.9438806772232056
1761414067814565600,7.309565673828125,0.5441331267356873,-0.14980486035346985,1.1643877029418945
1761414067824578600,7.31957861328125,0.5016434192657471,-0.7443057894706726,1.0901989936828613
1761414067834590700,7.3295908203125,0.34604206681251526,-1.514011263847351,0.734796941280365
1761414067844603600,7.339603759765625,0.01649906300008297,-1.8190526962280273,0.3575439453125
1761414067854615800,7.34961572265625,-0.48652568459510803,-1.5778356790542603,0.0138221625238657
1761414067864628500,7.35962841796875,-0.992850661277771,-1.118801236152649,-0.3014497756958008
1761414067874641700,7.3696416015625,-1.1282514333724976,-0.7885887622833252,-0.5108080506324768
1761414067884653600,7.379653564453125,-0.9292710423469543,-0.5005968809127808,-0.7502840161323547
1761414067894666800,7.389666748046875,-0.4808565676212311,-0.09730515629053116,-0.9293406009674072
1761414067904678700,7.3996787109375,0.018885578960180283,0.27463752031326294,-1.0928051471710205
1761414067914691600,7.409691650390625,0.3464534878730774,0.503257691860199,-1.304740071296692
1761414067924704500,7.41970458984375,0.47264471650123596,0.6455903649330139,-1.4876748323440552
1761414067934716700,7.429716552734375,0.5047422647476196,0.7434067726135254,-1.551448106765747
1761414067944729600,7.4397294921875,0.4482838213443756,0.7392340898513794,-1.490958333015442
1761414067954741800,7.44974169921875,0.30633360147476196,0.5584880113601685,-1.363702416419983
1761414067964754700,7.459754638671875,0.10465668141841888,0.2773714065551758,-1.1795099973678589
1761414067974767600,7.469767578125,-0.13164451718330383,-0.05531119927763939,-0.9925656914710999
1761414067984779500,7.479779541015625,-0.3795291483402252,-0.4126831889152527,-0.8500357270240784
1761414067994792700,7.489792724609375,-0.5758032202720642,-0.6684977412223816,-0.7537886500358582
1761414068004805600,7.4998056640625,-0.7008786201477051,-0.7703149318695068,-0.6874485015869141
1761414068014817800,7.50981787109375,-0.7424943447113037,-0.6768183708190918,-0.6300342679023743
1761414068024830500,7.51983056640625,-0.7394229173660278,-0.3270872235298157,-0.5054659843444824
1761414068034842600,7.529842529296875,-0.6835353970527649,0.15926767885684967,-0.31756699085235596
1761414068044855600,7.53985546875,-0.5625884532928467,0.6161446571350098,-0.12481166422367096
1761414068054868700,7.54986865234375,-0.39581766724586487,0.9827190041542053,0.06998705863952637
1761414068064880600,7.559880615234375,-0.2011944055557251,1.2063480615615845,0.2583410143852234
1761414068074893800,7.569893798828125,-0.01735559105873108,1.2163221836090088,0.3924117088317871
1761414068084905700,7.57990576171875,0.15448547899723053,1.0012894868850708,0.45304664969444275
1761414068094918700,7.589918701171875,0.3373839855194092,0.7276983857154846,0.48521888256073
1761414068104931600,7.599931640625,0.5176658630371094,0.5916593074798584,0.5242016911506653
1761414068114943200,7.609943115234375,0.6757650375366211,0.6325400471687317,0.5946544408798218
1761414068124956200,7.6199560546875,0.8069033026695251,0.7689729928970337,0.6787756681442261
1761414068134968300,7.62996826171875,0.9239451289176941,0.9049126505851746,0.771730899810791
1761414068144981200,7.639981201171875,1.0356471538543701,1.0132859945297241,0.8455396294593811
1761414068154994200,7.649994140625,1.1478551626205444,1.0798676013946533,0.872741162776947
1761414068165006000,7.660006103515625,1.2491780519485474,1.0922893285751343,0.8561686277389526
1761414068175019300,7.670019287109375,1.2972991466522217,1.083308458328247,0.7861441373825073
1761414068185031200,7.68003125,1.2786948680877686,1.0364184379577637,0.6886264085769653
1761414068195044400,7.69004443359375,1.2292149066925049,0.870506763458252,0.5728152394294739
1761414068205057000,7.70005712890625,1.1578187942504883,0.6003530025482178,0.45175567269325256
1761414068215069200,7.710069091796875,1.0849461555480957,0.31246015429496765,0.3465096950531006
1761414068225082000,7.72008203125,1.009638786315918,0.1302405595779419,0.29764601588249207
1761414068235094300,7.73009423828125,0.9630817770957947,0.10468529909849167,0.301574170589447
1761414068245107200,7.740107177734375,0.9934995770454407,0.15955626964569092,0.34595388174057007
1761414068255120400,7.750120361328125,1.0715324878692627,0.26021650433540344,0.40857499837875366
1761414068265132300,7.76013232421875,1.0752912759780884,0.38574859499931335,0.4540593922138214
1761414068275145200,7.770145263671875,1.011563777923584,0.48432663083076477,0.45773449540138245
1761414068285157000,7.7801572265625,0.9705100655555725,0.5675320625305176,0.4816962778568268
1761414068295170300,7.79017041015625,0.965538740158081,0.6463757157325745,0.5176782608032227
1761414068305183200,7.800183349609375,0.9510874152183533,0.6567056179046631,0.5343375205993652
1761414068315195400,7.8101953125,0.9127518534660339,0.5616762042045593,0.4887412488460541
1761414068325208000,7.8202080078125,0.8462157249450684,0.3596234917640686,0.3801300823688507
1761414068335220200,7.83022021484375,0.7659987211227417,0.14594309031963348,0.251161128282547
1761414068345233200,7.840233154296875,0.6800054907798767,-0.09371397644281387,0.17544665932655334
1761414068355246300,7.850246337890625,0.6371328830718994,-0.3102538287639618,0.22383201122283936
1761414068365258200,7.86025830078125,0.6094546914100647,-0.5437435507774353,0.4576210379600525
1761414068375271400,7.870271484375,0.599398136138916,-0.8866051435470581,0.7681640386581421
1761414068385283300,7.880283447265625,0.6922212839126587,-0.49396783113479614,0.6400241851806641
1761414068395296000,7.8902958984375,0.9057500958442688,0.5524619221687317,0.4676116704940796
1761414068405309200,7.90030908203125,1.1591639518737793,0.9597742557525635,0.7092908620834351
1761414068415321000,7.910321044921875,1.4216488599777222,0.9731215238571167,1.0140880346298218
1761414068425334300,7.920334228515625,1.453494668006897,0.6942025423049927,0.8389462232589722
1761414068435346200,7.93034619140625,1.2592310905456543,0.1444806456565857,0.3265080153942108
1761414068445359000,7.940359130859375,0.9476386308670044,-0.5092830657958984,-0.33060622215270996
1761414068455372000,7.9503720703125,0.6370150446891785,-0.8955439925193787,-1.0138192176818848
1761414068465384200,7.96038427734375,0.3921821713447571,-0.9597358107566833,-1.5583237409591675
1761414068475397000,7.970397216796875,0.18917155265808105,-0.7928671836853027,-1.8605358600616455
1761414068485410300,7.980410400390625,0.06577982753515244,-0.2932472229003906,-1.8495543003082275
1761414068495422200,7.990422119140625,0.04142434522509575,0.2634677588939667,-1.6075034141540527
1761414068505435100,8.00043505859375,0.09373601526021957,0.7012168765068054,-1.260999321937561
1761414068515447000,8.010447021484374,0.19147643446922302,0.8814387321472168,-0.9641034007072449
1761414068525460200,8.020460205078125,0.2423100471496582,0.7677134871482849,-0.8276441097259521
1761414068535473200,8.03047314453125,0.20277869701385498,0.42982494831085205,-0.8473953604698181
1761414068545485300,8.0404853515625,0.07093677669763565,-0.0660921186208725,-0.9332309365272522
1761414068555498200,8.050498291015625,-0.12176258862018585,-0.517099142074585,-0.9471518397331238
1761414068565510400,8.060510498046876,-0.3069817125797272,-0.7740686535835266,-0.7764672040939331
1761414068575523000,8.070523193359374,-0.44103068113327026,-0.8001052737236023,-0.47442084550857544
1761414068585536300,8.080536376953125,-0.5380725860595703,-0.7023459672927856,-0.19007304310798645
1761414068595548200,8.090548095703125,-0.5910455584526062,-0.5323560237884521,-0.016334855929017067
1761414068605561300,8.100561279296874,-0.598302960395813,-0.3493316173553467,0.00542796403169632
1761414068615573200,8.1105732421875,-0.5692150592803955,-0.16462792456150055,-0.08781372755765915
1761414068625586200,8.120586181640626,-0.535700261592865,-0.028245311230421066,-0.24802763760089874
1761414068635599000,8.13059912109375,-0.5045161247253418,0.002363639883697033,-0.4031909704208374
1761414068645611300,8.140611328125,-0.4625660479068756,-0.10334121435880661,-0.5303763747215271
1761414068655624200,8.150624267578126,-0.4119531810283661,-0.2624020576477051,-0.6066914200782776
1761414068665636400,8.16063623046875,-0.3613901138305664,-0.40943437814712524,-0.6279788613319397
1761414068675649300,8.170649169921875,-0.318494588136673,-0.467122882604599,-0.5813834071159363
1761414068685662200,8.180662109375,-0.2696503698825836,-0.38381949067115784,-0.47958457469940186
1761414068695674000,8.190674072265624,-0.20443479716777802,-0.21016904711723328,-0.35360923409461975
1761414068705687300,8.200687255859375,-0.12207839637994766,-0.016588397324085236,-0.23443622887134552
1761414068715699200,8.21069921875,-0.023667410016059875,0.15530915558338165,-0.13329817354679108
1761414068725712400,8.22071240234375,0.09174227714538574,0.2866850197315216,-0.06610636413097382
1761414068735725000,8.23072509765625,0.20193707942962646,0.38563913106918335,-0.0448569655418396
1761414068745737200,8.2407373046875,0.27766433358192444,0.46279996633529663,-0.05781830474734306
1761414068755750100,8.250750244140624,0.31617307662963867,0.5402652621269226,-0.08810640871524811
1761414068765762000,8.260761962890625,0.32639962434768677,0.6154564023017883,-0.12805649638175964
1761414068775775200,8.270775146484375,0.323011189699173,0.6925866007804871,-0.1573995053768158
1761414068785788400,8.280788330078124,0.3165988326072693,0.7806674838066101,-0.1730988323688507
1761414068795800300,8.29080029296875,0.32894381880760193,0.8721168041229248,-0.16001318395137787
1761414068805813200,8.300813232421875,0.3395026922225952,0.9285649061203003,-0.1038798838853836
1761414068815825200,8.3108251953125,0.3347679376602173,0.9660512804985046,0.006718401797115803
1761414068825838000,8.320838134765625,0.322387158870697,0.9929710030555725,0.14543074369430542
1761414068835851300,8.330851318359375,0.3063393831253052,0.9924424886703491,0.2788691818714142
1761414068845863200,8.34086328125,0.2832130491733551,0.931706964969635,0.37052667140960693
1761414068855876000,8.3508759765625,0.24765704572200775,0.7626900672912598,0.4155428409576416
1761414068865888000,8.360887939453125,0.20125092566013336,0.4753752052783966,0.46307361125946045
1761414068875901200,8.370901123046876,0.14653855562210083,0.22650140523910522,0.5731889009475708
1761414068885914000,8.3809140625,0.07140146195888519,0.07580350339412689,0.7185423970222473
1761414068895926300,8.39092626953125,-0.013627616688609123,-0.038433417677879333,0.8568127751350403
1761414068905939200,8.400939208984376,-0.08895006775856018,-0.0955214723944664,0.9736546874046326
1761414068915951400,8.410951416015624,-0.11251389980316162,-0.10693134367465973,1.0660218000411987
1761414068925964000,8.420964111328125,-0.06886309385299683,-0.06596127152442932,1.1903650760650635
1761414068935977200,8.430977294921876,-0.021471550688147545,-0.004571142140775919,1.2554227113723755
1761414068945989000,8.440989013671874,-0.11802764981985092,-0.10151313245296478,1.0672943592071533
1761414068956002300,8.451002197265625,-0.4192672669887543,-0.29156023263931274,0.634548544883728
1761414068966014200,8.46101416015625,-0.7280877232551575,-0.5467272400856018,0.19556879997253418
1761414068976027100,8.471027099609374,-0.771552562713623,-0.5834082961082458,0.07054447382688522
1761414068986040000,8.4810400390625,-0.5912683010101318,-0.34706395864486694,0.23962697386741638
1761414068996052200,8.49105224609375,-0.33123812079429626,0.03781377524137497,0.5537096858024597
1761414069006065200,8.501065185546874,-0.12327878922224045,0.42096996307373047,0.8040550947189331
1761414069016077300,8.511077392578125,0.010369855910539627,0.6053208708763123,0.8596072196960449
1761414069026090200,8.52109033203125,0.04655715823173523,0.5593717694282532,0.6762222051620483
1761414069036103200,8.531103271484374,-0.05957905203104019,0.2293519675731659,0.2745148241519928
1761414069046115000,8.541114990234375,-0.28664258122444153,-0.3025966286659241,-0.25324007868766785
1761414069056128300,8.551128173828126,-0.6040170192718506,-0.8800452947616577,-0.7818924784660339
1761414069066140200,8.56114013671875,-0.9592640995979309,-1.3152660131454468,-1.1706714630126953
1761414069076153300,8.5711533203125,-1.1948332786560059,-1.3338698148727417,-1.2358475923538208
1761414069086166000,8.581166015625,-1.1546235084533691,-0.8924399614334106,-0.95309978723526
1761414069096178200,8.59117822265625,-0.9232944250106812,-0.21073061227798462,-0.5528386831283569
1761414069106191000,8.601191162109375,-0.5789682269096375,0.35372158885002136,-0.26384782791137695
1761414069116203300,8.611203369140625,-0.30164751410484314,0.5797726511955261,-0.238468199968338
1761414069126216400,8.621216552734374,-0.20125460624694824,0.5120945572853088,-0.43754827976226807
1761414069136229400,8.6312294921875,-0.2387603372335434,0.20369745790958405,-0.7017979621887207
1761414069146241500,8.641241455078125,-0.3239189088344574,-0.20558619499206543,-0.8749857544898987
1761414069156254200,8.651254150390624,-0.4287928342819214,-0.57225501537323,-0.864188015460968
1761414069166266400,8.661266357421875,-0.5435436367988586,-0.859682023525238,-0.6809436082839966
1761414069176279300,8.671279296875,-0.6668850779533386,-1.089350938796997,-0.38980892300605774
1761414069186292500,8.68129248046875,-0.799107015132904,-1.2299250364303589,-0.09284888952970505
1761414069196304400,8.691304443359375,-0.8992903828620911,-1.2865570783615112,0.13428078591823578
1761414069206317300,8.7013173828125,-0.9441220164299011,-1.2915468215942383,0.28938648104667664
1761414069216330200,8.711330322265624,-0.9386343359947205,-1.282172441482544,0.3755514621734619
1761414069226342400,8.72134228515625,-0.8937501907348633,-1.2691065073013306,0.43115612864494324
1761414069236355300,8.731355224609375,-0.8308976888656616,-1.2785062789916992,0.4907349944114685
1761414069246367200,8.7413671875,-0.7660305500030518,-1.315216064453125,0.5970803499221802
1761414069256380400,8.75138037109375,-0.7194589376449585,-1.3489841222763062,0.7534518241882324
1761414069266392300,8.761392333984375,-0.6918289065361023,-1.453894853591919,0.9206480383872986
1761414069276405200,8.7714052734375,-0.6953185200691223,-1.5146076679229736,1.0423964262008667
1761414069286418400,8.78141845703125,-0.7021452784538269,-1.4355700016021729,1.124045968055725
1761414069296430300,8.791430419921875,-0.6822616457939148,-1.1964175701141357,1.147722840309143
1761414069306443300,8.801443359375,-0.6283661723136902,-0.812800943851471,1.1182382106781006
1761414069316455400,8.811455322265624,-0.5445980429649353,-0.3467765152454376,1.0326093435287476
1761414069326468400,8.82146826171875,-0.4067322909832001,0.139976367354393,0.9026196599006653
1761414069336481300,8.831481201171876,-0.2506997585296631,0.5929112434387207,0.7472480535507202
1761414069346493200,8.8414931640625,-0.10481631010770798,0.9733366370201111,0.5732845067977905
1761414069356506400,8.85150634765625,0.026802359148859978,1.2645610570907593,0.40426552295684814
1761414069366518300,8.861518310546876,0.12707063555717468,1.4478105306625366,0.26293689012527466
1761414069376531500,8.871531494140624,0.19127540290355682,1.510986566543579,0.14943017065525055
1761414069386544000,8.881544189453125,0.22108283638954163,1.495072841644287,0.06616111844778061
1761414069396556300,8.891556396484376,0.24157805740833282,1.446385383605957,0.019628873094916344
1761414069406569200,8.9015693359375,0.2566092014312744,1.3714238405227661,0.005135951563715935
1761414069416582400,8.91158251953125,0.265592098236084,1.2963991165161133,0.0030495398677885532
1761414069426594300,8.92159423828125,0.23947739601135254,1.2391767501831055,0.02388611249625683
1761414069436607500,8.931607421875,0.18766286969184875,1.121333122253418,0.05518320947885513
1761414069446619400,8.941619384765625,0.1258796602487564,0.9914949536323547,0.08745379745960236
1761414069456632300,8.95163232421875,0.07168201357126236,0.827650785446167,0.10978024452924728
1761414069466645200,8.961645263671874,0.023574670776724815,0.6175326704978943,0.09729001671075821
1761414069476657400,8.971657470703125,-0.03768400102853775,0.3908236026763916,0.05885813385248184
1761414069486670300,8.98167041015625,-0.0953451618552208,0.04333193972706795,-0.00403960607945919
1761414069496682500,8.9916826171875,-0.15289461612701416,-0.41404804587364197,-0.02922428771853447
1761414069506695200,9.001695068359375,-0.20103710889816284,-0.679029643535614,0.038372863084077835
1761414069516707300,9.011707275390625,-0.2084142118692398,-0.6361259818077087,0.17395921051502228
1761414069526720300,9.02172021484375,-0.1678803712129593,-0.45706722140312195,0.18917730450630188
1761414069536733400,9.0317333984375,-0.17589499056339264,-0.3547821640968323,-0.05241965129971504
1761414069546745300,9.041745361328125,-0.30852651596069336,-0.4509366452693939,-0.4456566870212555
1761414069556758500,9.051758544921874,-0.47025924921035767,-0.6254663467407227,-0.80474454164505
1761414069566770400,9.0617705078125,-0.5347633957862854,-0.5467358827590942,-0.8981966972351074
1761414069576783400,9.071783447265625,-0.46248331665992737,-0.3373839855194092,-0.8181772828102112
1761414069586796300,9.08179638671875,-0.3918339014053345,-0.16163372993469238,-0.7471321225166321
1761414069596808400,9.091808349609375,-0.40336015820503235,-0.1390918493270874,-0.7887945175170898
1761414069606821400,9.1018212890625,-0.4884377717971802,-0.3323260247707367,-0.850056529045105
1761414069616833300,9.111833251953126,-0.6163579821586609,-0.6600508093833923,-0.8513608574867249
1761414069626846200,9.12184619140625,-0.7610105276107788,-0.9493662714958191,-0.7326938509941101
1761414069636859400,9.131859375,-0.8866167068481445,-1.197493076324463,-0.472100168466568
1761414069646871300,9.141871337890626,-0.9213566184043884,-1.3237762451171875,-0.13208293914794922
