time,seconds_elapsed,z,y,x
1761413718895854300,0.073854248046875,0.2030389390796423,-0.463730879574269,-0.40994412513338024
1761413718905868000,0.083867919921875,0.13101064470112322,-0.35776144488826395,-0.3793891931980848
1761413718915881200,0.093881103515625,0.06437339571118354,-0.24940672250092027,-0.3410176692277193
1761413718925894100,0.10389404296875,0.07319967624545097,-0.1461804490432143,-0.2697052680335939
1761413718935907000,0.113906982421875,0.0719955611526966,-0.10126111086457967,-0.19780531274247914
1761413718945921300,0.12392138671875,0.12250234407484531,-0.0733517980672419,-0.11959442073889076
1761413718955934000,0.133933837890625,0.16107202096581458,-0.0821346778512001,-0.09649122958164662
1761413718965947100,0.143947021484375,0.16494272491931913,-0.12000395138785243,-0.13229169748760758
1761413718975961000,0.153961181640625,0.09953998616039753,-0.1701959692724049,-0.22877068864218889
1761413718985974000,0.16397412109375,0.009378653720021248,-0.24767609931603074,-0.3292586962424218
1761413718995987200,0.1739873046875,-0.07071662725806235,-0.2620059457026422,-0.38518626210428775
1761413719006000000,0.184000244140625,-0.11770634196996688,-0.3044515872441232,-0.4535434667546302
1761413719016014000,0.19401416015625,-0.1688093372195959,-0.3495825223468244,-0.47371111591663206
1761413719026027300,0.20402734375,-0.18159224642515182,-0.3955886328488588,-0.47850507219489663
1761413719036040200,0.214040283203125,-0.13974632434248924,-0.3743348324179649,-0.47856144202463324
1761413719046053000,0.22405322265625,-0.11121990256011485,-0.3763957104705274,-0.4229739948373288
1761413719056067300,0.2340673828125,-0.06874912657737732,-0.3909177184283733,-0.32747626980505884
1761413719066080000,0.244080078125,0.018846154767274855,-0.4292493487797677,-0.2722492168953642
1761413719076093200,0.25409326171875,0.08456102821528912,-0.4767530043631792,-0.2374840103212744
1761413719086106000,0.264106201171875,0.12469430116117,-0.5251506861768662,-0.250112605747953
1761413719096120000,0.2741201171875,0.09479074580669403,-0.58706207568869,-0.2215453039659187
1761413719106133200,0.28413330078125,0.029804186633229254,-0.6356513345517217,-0.21327760716248303
1761413719116146200,0.294146240234375,-0.018281506621837616,-0.6597087942264974,-0.18290975876450538
1761413719126160100,0.30416015625,-0.023102058646082876,-0.6589759499073028,-0.14403452305570244
1761413719136173300,0.31417333984375,-0.0013736264407634734,-0.6724288673289119,-0.09471263906918466
1761413719146186200,0.324186279296875,0.03749707922339439,-0.6750536628745496,-0.07358483963813632
1761413719156199200,0.33419921875,0.031551322561502455,-0.6805886467784643,-0.11094963425137101
1761413719166213400,0.34421337890625,0.01141454346179962,-0.6318848216250539,-0.1384011568112299
1761413719176226000,0.35422607421875,-0.01913140144944191,-0.6570083030961453,-0.12373005923889577
1761413719186239200,0.3642392578125,-0.06479717408120632,-0.6536189529187977,-0.10997779354453086
1761413719196252200,0.374252197265625,-0.08139701122641563,-0.6654245415247977,-0.08593432586248964
1761413719206266000,0.38426611328125,-0.06217617792785168,-0.734845356818661,-0.10024250840656458
1761413719216279300,0.394279296875,0.022309446963667868,-0.7459195624101906,-0.1502072568738833
1761413719226292200,0.404292236328125,0.11395721856951713,-0.7629363828584551,-0.16839016195945442
1761413719236305200,0.41430517578125,0.13364099320471287,-0.8317341708831488,-0.1596059670012444
1761413719246319000,0.424319091796875,0.11780746425688265,-0.8764102748904377,-0.20098226227816193
1761413719256332000,0.43433203125,0.08688099559545516,-0.8640149036977439,-0.24961875781640408
1761413719266345200,0.44434521484375,0.09683774146437645,-0.8385342793520539,-0.2559436134563759
1761413719276358100,0.454358154296875,0.08126023310422897,-0.896973535773903,-0.23739410354811696
1761413719286372000,0.4643720703125,0.11887363218367099,-0.8751553063932805,-0.25058793164212256
1761413719296385000,0.474385009765625,0.1998141318142414,-0.8601420077871531,-0.21306381828133017
1761413719306398200,0.484398193359375,0.30843583457469936,-0.8563933227781206,-0.19421791924238205
1761413719316412200,0.494412109375,0.45798868266046044,-0.8660151376042514,-0.17598332050219176
1761413719326425000,0.504425048828125,0.661124067851901,-0.8791460565298795,-0.1394395599482581
1761413719336438300,0.514438232421875,0.8213602225154638,-0.9156615043047815,-0.11994159020874648
1761413719346451000,0.524450927734375,0.8738935428291559,-0.994126480667293,-0.07360990101415664
1761413719356465200,0.534465087890625,0.8242612046539783,-1.062633249856159,-0.04957556648664176
1761413719366478000,0.54447802734375,0.7635030768305063,-1.0888459878686816,-0.11265895891990511
1761413719376491000,0.554490966796875,0.7649965302586555,-1.0705430731326342,-0.15648191669657827
1761413719386504200,0.564504150390625,0.7492775676012039,-1.0736848052244632,-0.15053177612051366
1761413719396518100,0.57451806640625,0.729051356652379,-1.168561402683705,-0.10216401452105492
1761413719406531000,0.584531005859375,0.7193465397179126,-1.2472878795266151,-0.017786416581273078
1761413719416544300,0.594544189453125,0.6562737052112817,-1.3492762817524373,0.07414057382475585
1761413719426557200,0.60455712890625,0.5786579660892486,-1.4097232978001235,0.1418853091325611
1761413719436571100,0.614571044921875,0.4022422455191612,-1.4411995092988013,0.23422453360129147
1761413719446584300,0.624584228515625,0.018847908332943916,-1.5197206728279589,0.2742381622228771
1761413719456597000,0.634596923828125,-0.49936815627515313,-1.5127631087750195,0.19411602977048603
1761413719466610200,0.644610107421875,-0.9853530993640423,-1.4086135829925537,0.13313746412936597
1761413719476624100,0.6546240234375,-1.4066466668337583,-1.25364294764176,0.1139671919742599
1761413719486637000,0.664636962890625,-1.7207307364284992,-1.099913179197535,0.1316193511839956
1761413719496650200,0.674650146484375,-1.8845669614106415,-0.9809929313931613,0.15327490081619471
1761413719506664200,0.684664306640625,-1.8751409614175556,-0.9139491474289446,0.16521818085983395
1761413719516677000,0.694677001953125,-1.7030074482113122,-0.8194882911637424,0.1350447955880314
1761413719526690300,0.704690185546875,-1.4330278932809828,-0.7224875411573797,0.126090979683958
1761413719536703200,0.714703125,-1.1174001013755797,-0.6568382802914827,0.08631916046161205
1761413719546717200,0.72471728515625,-0.8536907127559185,-0.66849043190144,-0.0010214520022273064
1761413719556730400,0.73473046875,-0.7463812616378068,-0.700755894081667,-0.14249069114718585
1761413719566743000,0.744742919921875,-0.7405816354483366,-0.6770772776566445,-0.345438079485856
1761413719576756200,0.754756103515625,-0.7315893506973982,-0.5578912185229361,-0.5363398599175736
1761413719586770200,0.764770263671875,-0.6168821905434131,-0.5020205704800784,-0.5321335308015346
1761413719596783000,0.774783203125,-0.35314006869792935,-0.6300638898082077,-0.26957937663160264
1761413719606796300,0.78479638671875,-0.0649941579580307,-0.7710992310479283,-0.04900912824291736
1761413719616809200,0.794809326171875,0.26011691708564755,-0.7972127464696764,-0.03345083603989333
1761413719626823200,0.8048232421875,0.5435176791250705,-0.7860134531937539,-0.05144947059974074
1761413719636836000,0.814836181640625,0.7496329569101333,-0.7817576954454183,-0.07899849871732294
1761413719646849300,0.824849365234375,0.8438958794504403,-0.8085143310762941,-0.11544131964743137
1761413719656862200,0.8348623046875,0.8507213415563106,-0.793360454955697,-0.17369944734871387
1761413719666876200,0.844876220703125,0.7697352492183447,-0.6953779273703694,-0.29461941760294136
1761413719676889000,0.85488916015625,0.6501040766656399,-0.5252877565599978,-0.45756179901789873
1761413719686902000,0.864902099609375,0.5141378553837538,-0.29429186614900826,-0.5598341692842543
1761413719696916200,0.874916259765625,0.389862656417489,-0.09322788040414452,-0.5436948988554999
1761413719706929200,0.88492919921875,0.2729331440389156,0.06600961861088872,-0.3953293973907828
1761413719716942000,0.894942138671875,0.18218378257751464,0.19970731043890116,-0.27975433182846754
1761413719726955300,0.904955322265625,0.161671740424633,0.33183541486263274,-0.21606588617414235
1761413719736969200,0.91496923828125,0.2333148348778486,0.4510100758194923,-0.15809439339451492
1761413719746982100,0.924982177734375,0.38648178180754184,0.5246493125259876,-0.11229684760924429
1761413719756995300,0.934995361328125,0.5557768567174672,0.563230825985223,-0.09665909696184098
1761413719767008000,0.945008056640625,0.6533212851464748,0.5529550772950053,-0.06579356470741331
1761413719777022200,0.955022216796875,0.6483610323905944,0.5693912483111023,-0.027137780435569584
1761413719787035100,0.96503515625,0.6335299584835767,0.6048680737532675,-0.01527841581571847
1761413719797047800,0.9750478515625,0.5788625487506389,0.6636370735861361,0.004885726214945316
1761413719807061000,0.98506103515625,0.5853343751132488,0.7100795296788215,0.07116747629810125
1761413719817075000,0.995074951171875,0.6421130779117346,0.7031028225339949,0.14050645852740853
1761413719827088000,1.005087890625,0.7364864750891923,0.6558095948308705,0.1948218764849007
1761413719837101000,1.01510107421875,0.8777735991328954,0.585652939543128,0.25362894330583513
1761413719847113700,1.02511376953125,0.9554746784508228,0.4907958505019545,0.2830761697275564
1761413719857128000,1.0351279296875,1.0326917736440897,0.40663112812787294,0.300779255406931
1761413719867141000,1.04514111328125,1.0210901831775903,0.35315351270139217,0.29611813172809776
1761413719877153800,1.05515380859375,0.9140899441391229,0.34175635876581073,0.316187800408341
1761413719887167000,1.0651669921875,0.6983388230025768,0.35410862146914,0.2947601412478834
1761413719897180700,1.0751806640625,0.43412908364534375,0.37158202657848594,0.3240782613972202
1761413719907193900,1.08519384765625,0.15584113457500934,0.39375761802941556,0.3126017951477319
1761413719917207000,1.09520703125,-0.10154898789525031,0.3707119657456875,0.3782084589809179
1761413719927220700,1.105220703125,-0.29788755255341526,0.3547349366739392,0.42130569629892706
1761413719937234000,1.11523388671875,-0.4160340395063162,0.3971691800385713,0.4324709046421572
1761413719947246800,1.125246826171875,-0.45155192761123175,0.4376286161988973,0.4509187442742288
1761413719957259800,1.135259765625,-0.4494119929730892,0.40899610369354483,0.4612753031156957
1761413719967274000,1.14527392578125,-0.42962300439774986,0.4193585077539086,0.43235042006764557
1761413719977287000,1.155286865234375,-0.4455038796186447,0.41182168250828977,0.4223896190781146
1761413719987299800,1.1652998046875,-0.5647825854718684,0.377455740917474,0.390460841506347
1761413719997313000,1.17531298828125,-0.723534639057517,0.34148514060899615,0.35750396299585696
1761413720007326700,1.18532666015625,-0.8069710471570491,0.31630773699358106,0.3587036211092025
1761413720017340000,1.19533984375,-0.795473501586914,0.29825521682202816,0.37747495707459744
1761413720027352800,1.205352783203125,-0.7179220598727464,0.2755743061974644,0.4226361411850899
1761413720037366000,1.215365966796875,-0.5619798030108213,0.22564430024996399,0.4710225344197824
1761413720047380000,1.2253798828125,-0.3645972822576761,0.15641498894020914,0.4407561005696654
1761413720057393000,1.235392822265625,-0.13405951087772847,0.09516177107617259,0.3802088390178978
1761413720067405800,1.24540576171875,0.0817383720099926,0.014534721308946608,0.3332367330279201
1761413720077418800,1.255418701171875,0.2503910573631525,-0.058209173993021245,0.27704015923263503
1761413720087433000,1.265432861328125,0.3674731299549341,-0.1162334929384291,0.23488787461454047
1761413720097446000,1.27544580078125,0.4391904586881399,-0.17535788208022712,0.19273712436640633
1761413720107458800,1.285458740234375,0.44621173562705513,-0.19161840426847337,0.16256527346456423
1761413720117472000,1.295471923828125,0.47102410532236094,-0.1719809529930353,0.12727708419598638
1761413720127486000,1.30548583984375,0.48715574043393134,-0.12533406036943195,0.1557987019390799
1761413720137499000,1.315498779296875,0.5377396802455187,-0.054052638835459944,0.17392434214577077
1761413720147512000,1.325511962890625,0.600149666929245,-0.05547916450724005,0.23055048473104833
1761413720157524700,1.335524658203125,0.6959545582145452,-0.06231032570153475,0.24053634709659963
1761413720167539000,1.3455390625,0.8014666045218706,-0.09261391322426497,0.27878961498215793
1761413720177552000,1.3555517578125,0.8983236352086067,-0.13191884558722375,0.28222269470337774
1761413720187564800,1.365564697265625,0.9391261857181787,-0.18840017287433147,0.25346834591664374
1761413720197578000,1.375577880859375,0.9072066143661737,-0.24972492160461843,0.21082959295585751
1761413720207592000,1.385592041015625,0.8259007885545492,-0.29948198213800786,0.18184676917549222
1761413720217604900,1.39560498046875,0.7210247020632028,-0.303153948649019,0.1713093373417854
1761413720227618000,1.4056181640625,0.581749502363801,-0.303055529775843,0.1598786464627832
1761413720237631700,1.4156318359375,0.4674509230107069,-0.27987127273902296,0.16019768581669777
1761413720247645000,1.42564501953125,0.3482213169962168,-0.27049627228081224,0.20068021059166638
1761413720257658000,1.435658203125,0.19736849222779274,-0.2854620054181665,0.23556705251773818
1761413720267670800,1.4456708984375,0.04190203618407249,-0.27316578375101086,0.25431714476570483
1761413720277685000,1.45568505859375,-0.12752806328237057,-0.27312632852345703,0.2513933845398016
1761413720287698000,1.465697998046875,-0.3462953173696995,-0.3095451109908521,0.235332366979029
1761413720297710800,1.4757109375,-0.5235679470300674,-0.36951493798084556,0.2268456205974333
1761413720307724000,1.48572412109375,-0.6431617101818323,-0.4012377446517348,0.2122917744629085
1761413720317737700,1.49573779296875,-0.7785206132203341,-0.470740612205863,0.18384718574509024
1761413720327751000,1.5057509765625,-0.8906751662820577,-0.5645783681366592,0.12661410850891844
1761413720337764000,1.51576416015625,-0.9000824615746736,-0.5909580602139234,0.04613610269040801
1761413720347776800,1.52577685546875,-0.8556056064665317,-0.5681577609933912,-0.06688717319697607
1761413720357791000,1.535791015625,-0.8002566442102194,-0.5794544502291828,-0.10860685225119814
1761413720367804000,1.545803955078125,-0.810080119088292,-0.5718613647516817,-0.16742480579232796
1761413720377816800,1.55581689453125,-0.8173281905204057,-0.582336946862936,-0.24152634451463817
1761413720387830000,1.565830078125,-0.7842255468636751,-0.5678357624974102,-0.23213883163472637
1761413720397843700,1.57584375,-0.7570669063031673,-0.5995783698473125,-0.20372465632148085
1761413720407857000,1.58585693359375,-0.7369973472207785,-0.6422655650597066,-0.1842283670824021
1761413720417869800,1.595869873046875,-0.6840694746315479,-0.695265845298022,-0.03569708059672266
1761413720427883000,1.605883056640625,-0.58397068554461,-0.9554832270834595,0.3135066350329667
1761413720437897000,1.61589697265625,-0.4178589168459177,-1.258994683933258,0.5716266061477363
1761413720447910000,1.625909912109375,-0.3481277934938669,-1.353710610938072,0.47691089833863076
1761413720457922800,1.6359228515625,-0.3240501678138971,-1.3173831600159407,0.1676796208036132
1761413720467935700,1.645935791015625,-0.3953314432173967,-1.211504033961892,-0.06963403791943565
1761413720477950000,1.655949951171875,-0.6352011065661907,-1.1424386810421943,-0.15254728066138923
1761413720487963000,1.665962890625,-0.9524199670553207,-1.0234717445518822,-0.24336472065662965
1761413720497975800,1.675975830078125,-1.224396833282709,-0.7996163735453039,-0.3499540956055745
1761413720507989000,1.685989013671875,-1.3892700000971554,-0.527155523193255,-0.45327122568450867
1761413720518003000,1.6960029296875,-1.3586404685556888,-0.24106011524237692,-0.496291598374024
1761413720528016000,1.706015869140625,-1.1462386578470467,0.008054054052755236,-0.4382913909565657
1761413720538029000,1.716029052734375,-0.7775280950516462,0.19503756506219505,-0.3058795924869366
1761413720548041700,1.726041748046875,-0.412447997713089,0.31602840859554704,-0.2134011604769155
1761413720558056000,1.736055908203125,-0.12149287477135658,0.3653128831811249,-0.23087156991157678
1761413720568068900,1.74606884765625,0.03390519221127033,0.3741964468605816,-0.2878330453984439
1761413720578081800,1.756081787109375,0.11384674393236636,0.3395495694365352,-0.3321227439040318
1761413720588095000,1.766094970703125,0.12139935126900672,0.29133009373396634,-0.3563652047568932
1761413720598109000,1.77610888671875,0.1466021815866232,0.22707594048827887,-0.3735487600741908
1761413720608121900,1.786121826171875,0.17891162903904914,0.2317749119594693,-0.3921032018858939
1761413720618135000,1.796135009765625,0.2784767496407032,0.259182704975456,-0.41023507090397177
1761413720628148000,1.80614794921875,0.3925046953588724,0.3121361503973603,-0.4376757798088714
1761413720638162000,1.816161865234375,0.5432891310662031,0.4179052402056753,-0.4739959242073819
1761413720648175000,1.826175048828125,0.6870341696560383,0.5264589922964572,-0.43787327514234925
1761413720658187800,1.836187744140625,0.7965116124629974,0.6568005055643618,-0.38510724205132574
1761413720668201000,1.846200927734375,0.8613882815212011,0.7794361206300556,-0.2883466574763879
1761413720678215000,1.85621484375,0.8521218560039997,0.8727434960111975,-0.21946787663735448
1761413720688227800,1.866227783203125,0.7840040130674839,0.9724721366114913,-0.16117402003556489
1761413720698241000,1.876240966796875,0.6745750855773687,0.9895615108393132,-0.08776771530210971
1761413720708254700,1.886254638671875,0.5335767153471708,0.9705936293885111,-0.03838785405065864
1761413720718268000,1.896267822265625,0.3505997365653515,0.9516831772133707,-0.03316401845514774
1761413720728281000,1.906281005859375,0.20088965209126472,0.95650095275864,-0.09226619576513767
1761413720738293800,1.916293701171875,0.048119011002779,0.9741723646581172,-0.141541829457134
1761413720748308000,1.926307861328125,-0.04922492641806602,0.9665475688681006,-0.13304594992101193
1761413720758321000,1.93632080078125,-0.10218787032067775,0.9293542948968708,-0.07869710461795329
1761413720768333800,1.946333740234375,-0.1609235524058342,0.8794662283949554,-0.008564049401506782
1761413720778347000,1.956346923828125,-0.16668460015058517,0.8683205650024115,0.07133645792314783
1761413720788361000,1.96636083984375,-0.13030278869271278,0.8990247692152857,0.10515470250332727
1761413720798373600,1.97637353515625,-0.09938099620640277,0.9016631548948586,0.12334443918848409
1761413720808386600,1.986386474609375,-0.08723580038249493,0.8966036795482039,0.14363739523058755
1761413720818399700,1.996399658203125,-0.036001872229576105,0.8964556493796407,0.18807347993692383
1761413720828413700,2.00641357421875,0.029791911673545834,0.894530526535958,0.1916094355107285
1761413720838426600,2.016426513671875,0.09400690195262432,0.8694454773791134,0.214635469778534
1761413720848439800,2.026439697265625,0.17792144895792006,0.8239940781503915,0.2059288701011799
1761413720858452500,2.036452392578125,0.27470482988655565,0.7909870038226247,0.18301714639542624
1761413720868466700,2.046466796875,0.361277782446146,0.7168595452077686,0.1756636235611513
1761413720878479600,2.056479736328125,0.45668169171512124,0.6363714655198156,0.19663948383349925
1761413720888492500,2.066492431640625,0.519495583024621,0.5165870021015405,0.2662048038982786
1761413720898505700,2.076505615234375,0.6100502986967563,0.40808600311130283,0.2771385233068839
1761413720908519700,2.086519775390625,0.7547136211752891,0.33593174426555633,0.2861902283611707
1761413720918532600,2.09653271484375,0.9626292263805866,0.28675109538063404,0.33723628752548246
1761413720928545800,2.1065458984375,1.133725797754526,0.1928695733733475,0.3541462135331705
1761413720938558500,2.116558349609375,1.2548416559070348,0.08213204750269651,0.36413116258326916
1761413720948572700,2.12657275390625,1.2946066800624132,-0.04252513651847839,0.34745800447352226
1761413720958585900,2.1365859375,1.269295128673315,-0.1365988200969994,0.2663858047546819
1761413720968598500,2.1465986328125,1.1811305230081082,-0.2358949144989252,0.19236692108083514
1761413720978611700,2.15661181640625,1.1139841554522514,-0.29723186512365934,0.16146313917525112
1761413720988625700,2.166625732421875,1.0625088197588919,-0.3690516313180327,0.1583103011675179
1761413720998638600,2.176638671875,1.0220838703900574,-0.4097770249381661,0.16313532843748108
1761413721008651800,2.18665185546875,1.0089859038859605,-0.42160730959400533,0.14950203121397643
1761413721018664700,2.196664794921875,1.0427157395303248,-0.44240430616810916,0.14973984029153362
1761413721028678700,2.2066787109375,0.9953998616039752,-0.4604759694315493,0.16259793362515046
1761413721038691800,2.21669189453125,0.968805284667015,-0.4735767124146223,0.12542716374667362
1761413721048704500,2.22670458984375,0.8968138151675462,-0.4585140217088163,0.0515167271496728
1761413721058717700,2.2367177734375,0.7975614137768745,-0.4682037872046232,0.017319895048066972
1761413721068731600,2.246731689453125,0.665820116713643,-0.4664581125810742,-0.012473916321620345
1761413721078744600,2.25674462890625,0.5028291103839874,-0.45088425748273725,-0.023262802165746686
1761413721088757800,2.2667578125,0.34352176100313664,-0.41915582478865976,-0.010826477908156811
1761413721098770700,2.276770751953125,0.17376900545358656,-0.38797713493183256,-0.0057011342510581015
1761413721108784600,2.28678466796875,0.08264028928577899,-0.4101933506540954,0.019381503752991556
1761413721118797600,2.296797607421875,0.05392331336736679,-0.4648572532556951,0.08772822354193777
1761413721128810800,2.306810791015625,0.06827507932484149,-0.5418316257342696,0.13679101820085196
1761413721138823700,2.31682373046875,0.11331132188141345,-0.6475976468026637,0.1600541126275435
1761413721148837600,2.326837646484375,0.18082067753076553,-0.7442012872502207,0.15941939492058008
1761413721158850600,2.3368505859375,0.1727782408505678,-0.8361873508997261,0.14741214626263827
1761413721168863700,2.34686376953125,0.08291501457393169,-0.9263948605693876,0.14462419604454188
1761413721178876700,2.356876708984375,-0.03717676122784614,-0.9553573356814682,0.11891137037817388
1761413721188890600,2.366890625,-0.1760907263994217,-0.9342577028989791,0.14602065537162123
1761413721198903600,2.376903564453125,-0.3309305749773979,-0.8976129296559839,0.1377490495780483
1761413721208916700,2.386916748046875,-0.4841898763656616,-0.8369809854954481,0.13503909649960696
1761413721218929700,2.3969296875,-0.5978156710237265,-0.7511204920541494,0.11595277630090713
1761413721228943600,2.406943603515625,-0.6631617111593484,-0.6719356039192527,0.07086980852577834
1761413721238956800,2.416956787109375,-0.6669891604930162,-0.6003546879820525,0.08816577470898627
1761413721248969500,2.426969482421875,-0.6998112336426973,-0.6785670778229832,0.31479028163533657
1761413721258982700,2.436982666015625,-0.6018319209277629,-0.9573192834042012,0.6010626901209354
1761413721268996600,2.44699658203125,-0.284271699655056,-1.142073281795904,0.6238214882872999
1761413721279009500,2.457009521484375,0.018287351840734482,-1.1064045870434491,0.293012585194502
1761413721289022700,2.467022705078125,0.045125674405694004,-0.9728425773590803,-0.04095903797922656
1761413721299035600,2.47703564453125,-0.14489537766873836,-0.8977898205928504,-0.26502911118241024
1761413721309049600,2.487049560546875,-0.6470031880408526,-0.8786625107966363,-0.3540125772161409
1761413721319062800,2.497062744140625,-1.2547849572837353,-0.7702150686245411,-0.34350543092284347
1761413721329075500,2.507075439453125,-1.7842296873927115,-0.5989583382528275,-0.3183779673963785
1761413721339088600,2.517088623046875,-2.2253011375218628,-0.38670207349471747,-0.309219641896151
1761413721349102800,2.527102783203125,-2.522497200679779,-0.1050789886523038,-0.21929363431530072
1761413721359115500,2.537115478515625,-2.5094296293139458,0.16741086859852075,-0.0936819169151131
1761413721369128700,2.547128662109375,-2.216584162580967,0.3406196098208427,0.045771155535266735
1761413721379141600,2.5571416015625,-1.669618973350525,0.4720619970027357,0.14581624624016695
1761413721389155600,2.567155517578125,-1.0528607014477251,0.504660271333903,0.10145383869139477
1761413721399168800,2.577168701171875,-0.4404004189997911,0.5676640591923147,0.004419065401132684
1761413721409181700,2.587181640625,0.03502221354246139,0.5520782213952392,-0.16611091018216684
1761413721419194600,2.597194580078125,0.2428232524573803,0.45312867540866136,-0.2839295351538807
1761413721429208800,2.607208740234375,0.20213293015062808,0.28375834330543875,-0.3870447129199281
1761413721439221500,2.617221435546875,0.029410218879580497,0.1962456256777048,-0.4059940723333508
1761413721449234700,2.627234619140625,-0.17712006944715974,0.19492957464307545,-0.35560342660415917
1761413721459247600,2.63724755859375,-0.29740064581930636,0.2935177399713546,-0.27214897139128297
1761413721469261600,2.647261474609375,-0.3216419376283884,0.37496180520989,-0.1049426397883799
1761413721479274800,2.657274658203125,-0.2469523150861263,0.43813422763347626,0.08626989622609689
1761413721489287700,2.66728759765625,-0.029534137520194053,0.5304500346940011,0.2326125683600083
1761413721499300600,2.677300537109375,0.23858196162581444,0.5837937215425074,0.33294344916976987
1761413721509314800,2.687314697265625,0.4812830490082502,0.5473053809702396,0.4455596649264916
1761413721519327700,2.69732763671875,0.6749953568160534,0.46992578869163987,0.5213004039568826
1761413721529340700,2.707340576171875,0.832635649767518,0.3931717809654772,0.5043259613456205
1761413721539353600,2.717353515625,0.9028893356889486,0.36510479338839646,0.4106700282551348
1761413721549367600,2.727367431640625,0.8689742066055536,0.3064309244930744,0.35492665985375643
1761413721559380700,2.737380615234375,0.7399906838178634,0.28411066387444733,0.31600751193799076
1761413721569393700,2.7473935546875,0.523654456269741,0.31185221888944503,0.3493303011514246
1761413721579406800,2.75740673828125,0.2748275794833898,0.343833457300812,0.36683713360633696
1761413721589420500,2.767420654296875,0.055925885361433024,0.4491236775510013,0.37922402923163023
1761413721599433700,2.777433837890625,-0.08570493755340576,0.5111144159093499,0.4258219316143542
1761413721609446700,2.78744677734375,-0.17412205667495725,0.5487384825132787,0.4937430464023724
1761413721619459600,2.79745947265625,-0.2163093395411968,0.6051074354670941,0.5297007872292772
1761413721629473800,2.807473876953125,-0.2278518932968378,0.6290260711930692,0.4927682465534657
1761413721639486500,2.817486572265625,-0.17407587944567202,0.617178835402429,0.47022853449787944
1761413721649499600,2.827499755859375,-0.13376724993288516,0.61326984526515,0.43531913368012753
1761413721659512800,2.837512939453125,-0.10516893195807933,0.5840243154279887,0.3968377926597371
1761413721669526500,2.847526611328125,-0.10209668490588665,0.5848999292187392,0.3233419464793056
1761413721679539700,2.857539794921875,-0.122943073579669,0.5894945635326206,0.2749730889013037
1761413721689552600,2.867552734375,-0.1552846697360277,0.6027909752182662,0.24303614628938958
1761413721699565600,2.877565673828125,-0.16933949857354164,0.5938989359714091,0.24097247349154202
1761413721709579800,2.887579833984375,-0.172099026414752,0.5399773761697113,0.25553492305763065
1761413721719592400,2.897592529296875,-0.17871347611844537,0.49754284054413433,0.23066950800083577
1761413721729605600,2.907605712890625,-0.12439151882231235,0.4225659254930913,0.16657339486107228
1761413721739618600,2.91761865234375,-0.03255845377743244,0.34351869226321574,0.0809953898892738
1761413721749632500,2.927632568359375,0.07550561510026454,0.25378975989073516,0.001753766598459333
1761413721759645700,2.937645751953125,0.1832347529351711,0.1679579810872674,-0.0588937039247714
1761413721769658600,2.94765869140625,0.2872510077267885,0.09319704687446355,-0.09827592104133218
1761413721779671600,2.957671630859375,0.3836380828142166,0.06245061095505953,-0.10509966611415147
1761413721789685800,2.967685791015625,0.45591538351774213,0.058477177279442544,-0.1261544368416071
1761413721799698400,2.977698486328125,0.5126818113565444,0.05837547047063708,-0.08011893584830686
1761413721809711400,2.98771142578125,0.556139260289073,0.05196706473305821,-0.06069372081775218
1761413721819724500,2.997724609375,0.5902361756801605,0.058726475865393875,-0.029831257303245363
1761413721829738500,3.007738525390625,0.6479015981853008,0.01943973674625158,-0.022122144230641422
1761413721839751400,3.01775146484375,0.736699825578928,-0.0037235505677759646,-0.03315320480018854
1761413721849764400,3.027764404296875,0.8227163132995367,-0.039051907449960704,-0.04381269211098551
1761413721859777500,3.037777587890625,0.9003191929399966,-0.14421294836252926,-0.06560732142031192
1761413721869791500,3.04779150390625,1.005204631781578,-0.22435849822312592,-0.11055493584536015
1761413721879804400,3.057804443359375,1.0991939980775116,-0.30509543810561296,-0.1482779327791184
1761413721889817600,3.067817626953125,1.1481921300023794,-0.40695334581956266,-0.11761585067491978
1761413721899830300,3.077830322265625,1.1684323694765568,-0.518097845055908,-0.10764777969438583
1761413721909843500,3.087843505859375,1.1288058770090341,-0.5984074994370341,-0.15485183127671479
1761413721919857400,3.097857421875,0.9872007730573416,-0.6701812345325946,-0.16587163979988545
1761413721929870300,3.107870361328125,0.7967828306198119,-0.7374323776371776,-0.16645999761447308
1761413721939883500,3.117883544921875,0.6159697518736124,-0.7975770497374236,-0.12307703869026154
1761413721949896400,3.127896484375,0.4355564860999584,-0.8462716686710715,-0.03983198844436556
1761413721959910400,3.137910400390625,0.22226620211899278,-0.8593158591613173,-0.02867149280887097
1761413721969923600,3.147923583984375,0.07644026560187339,-0.7774952156953513,-0.11364055383577942
1761413721979936300,3.157936279296875,0.05940554417073726,-0.6318808761022985,-0.24569639674089847
1761413721989949400,3.167949462890625,0.057138183760643,-0.548906678687036,-0.39956988450475034
1761413721999963600,3.177963623046875,-0.018608254358172416,-0.4727553130291402,-0.5067576089393347
1761413722009976300,3.187976318359375,-0.2502554482847452,-0.33850539414584635,-0.5651755303122102
1761413722019989500,3.197989501953125,-0.5528069009959697,-0.22402035230994224,-0.6000067513272166
1761413722030002400,3.20800244140625,-0.930291137355566,-0.1409510239571333,-0.6233792974777519
1761413722040016400,3.218016357421875,-1.3001000167816876,-0.0655984074614942,-0.5540301957132294
1761413722050029600,3.228029541015625,-1.5707383278816938,-0.07771174684241414,-0.3431301678696647
1761413722060042500,3.23804248046875,-1.5602286243051289,-0.2536630647711456,0.0003837934195064008
1761413722070055400,3.248055419921875,-1.2125275317907334,-0.41480464384183285,0.23626478899093342
1761413722080069600,3.258069580078125,-0.7737772180855274,-0.5227513699501752,0.19485018926393238
1761413722090082300,3.268082275390625,-0.45631461196839807,-0.5907292198941111,0.057872580716107035
1761413722100095500,3.278095458984375,-0.33292788627445696,-0.6931427156642079,-0.08633693358032032
1761413722110108400,3.2881083984375,-0.3928776203244924,-0.8473053956329822,-0.16402230387246236
1761413722120122400,3.298122314453125,-0.540476996254921,-0.9146602913729845,-0.240473054335732
1761413722130135600,3.308135498046875,-0.6039794543504715,-0.849095347789675,-0.282600186246261
1761413722140148500,3.3181484375,-0.527321162083745,-0.6635431116923689,-0.2408819091312587
1761413722150161400,3.328161376953125,-0.39828035615086554,-0.4216925036594271,-0.18871705680377782
1761413722160175600,3.338175537109375,-0.2193202117949724,-0.1683880430676043,-0.12083053840510546
1761413722170188500,3.3481884765625,-0.0014116203635931015,0.08027326789349318,-0.051248102808743715
1761413722180201500,3.358201416015625,0.12966858244240284,0.2626955354019999,0.0021673341017216445
1761413722190214400,3.36821435546875,0.15326748469471932,0.33509237083196636,0.08820888319835066
1761413722200228400,3.378228271484375,0.08455226038694381,0.3714560621112585,0.139361891602166
1761413722210241500,3.388241455078125,0.06171849728822708,0.3613090543672442,0.1344608216876164
1761413722220254500,3.39825439453125,0.05008358907401562,0.38795696892663833,0.1754488117666915
1761413722230267600,3.408267578125,0.04860474869310855,0.3596266542382538,0.2507711792545393
1761413722240281300,3.41828125,0.08627952257096767,0.34940745804086326,0.2522483391350135
1761413722250294500,3.42829443359375,0.1716723254352808,0.41079818467944856,0.252090116365999
1761413722260307500,3.438307373046875,0.28468729471862314,0.46208296623677014,0.21041290191374717
1761413722270320400,3.4483203125,0.4288946901232004,0.5325552633449435,0.16216394438836723
1761413722280334600,3.45833447265625,0.5380716886788607,0.5845420556917786,0.17887231994196773
1761413722290347300,3.46834716796875,0.6290431684583425,0.6439988916583359,0.1762528581585735
1761413722300360400,3.4783603515625,0.6450391944915056,0.6698179541781545,0.24848555253539234
1761413722310373600,3.48837353515625,0.5832260046571492,0.6975619934111833,0.3875913504846394
1761413722320387300,3.49838720703125,0.3998942210882902,0.6722466426298022,0.49656004005186255
1761413722330400500,3.508400390625,0.20609540404081345,0.6579037906311452,0.5282120099762454
1761413722340413400,3.518413330078125,0.04159107053875923,0.6380564959973096,0.48964200429171323
1761413722350426400,3.52842626953125,-0.10899521224796771,0.6014572423964738,0.4665109022142365
1761413722360440600,3.538440673828125,-0.2323825224637985,0.5541653298676014,0.40077831044644113
1761413722370453200,3.548453369140625,-0.3365250339835882,0.5037587924495339,0.3206687452146783
1761413722380466400,3.558466552734375,-0.41776422429978843,0.49143210257887837,0.2737713849613443
1761413722390479600,3.568479736328125,-0.4738689733594656,0.5472537969134748,0.183850912072137
1761413722400493300,3.578493408203125,-0.5712848069727421,0.633653438732773,0.11031502614226192
1761413722410506500,3.588506591796875,-0.7539765390723944,0.7123264318227768,0.05761646879687905
1761413722420519400,3.59851953125,-0.9583318214476108,0.8075655059188603,0.02083513662740588
1761413722430532400,3.608532470703125,-1.1462626232445239,0.8804584543026983,0.018996029833052305
1761413722440546600,3.618546630859375,-1.3146475975722074,0.9548185526296495,0.07582765012886375
1761413722450559500,3.6285595703125,-1.4554980837643146,1.0101572857528924,0.08898010503286495
1761413722460572400,3.638572509765625,-1.5529069031149147,1.0822580608457326,0.08064717923980205
1761413722470585300,3.64858544921875,-1.4759464130312203,1.1248609387755393,0.04249031180026941
1761413722480598500,3.6585986328125,-1.3229320263147353,1.105697827013582,0.08800721401325426
1761413722490612500,3.668612548828125,-0.9964677830964326,1.024607397518307,0.09133550905259326
1761413722500625400,3.67862548828125,-0.5449608636707067,0.8951900133579969,0.08113623226522468
1761413722510638600,3.688638671875,-0.1562695891201496,0.725805360468477,0.03799774048822
1761413722520651300,3.6986513671875,0.14152443993091582,0.5511323919124901,-0.006793021140992641
1761413722530665500,3.70866552734375,0.37443303209543227,0.4471045928135514,-0.05040412626527249
1761413722540678400,3.718678466796875,0.5776216087788343,0.3275077609218657,-0.11594623696226626
1761413722550691300,3.72869140625,0.7433259657204151,0.1940400784574449,-0.1403047802091576
1761413722560704500,3.73870458984375,0.916782836484909,0.06444236929416657,-0.14783287415904922
1761413722570718500,3.748718505859375,1.0542483564138412,-0.05551058255881071,-0.15478753386884928
1761413722580731400,3.7587314453125,1.1211761127829551,-0.1258203825816512,-0.1638015189949423
1761413722590744600,3.76874462890625,1.174849250781536,-0.22827713297158478,-0.20522263979427516
1761413722600757200,3.77875732421875,1.2025889061003923,-0.2791160704575479,-0.2423284546777606
1761413722610771500,3.788771484375,1.2478320694059133,-0.3255585265502333,-0.31481990958862005
1761413722620784600,3.79878466796875,1.2467109564214944,-0.366951151907444,-0.36192499430850145
1761413722630797300,3.80879736328125,1.2345604999005795,-0.4161087121777236,-0.3821932543007657
1761413722640810500,3.818810546875,1.2577999211907387,-0.43954117182195185,-0.40379586816933005
1761413722650824400,3.828824462890625,1.2646037559866905,-0.5002180511027574,-0.4384890689531341
1761413722660837400,3.83883740234375,1.2542080341786146,-0.545554299519211,-0.4735101499844342
1761413722670850600,3.8488505859375,1.223115561300516,-0.5598644182920456,-0.47810178862363095
1761413722680863500,3.858863525390625,1.2225035668820141,-0.5962415535748005,-0.43445977690443394
1761413722690877400,3.86887744140625,1.2339631185293196,-0.6514022997826338,-0.3970892832027748
1761413722700890600,3.878890625,1.240506841084361,-0.7361731713563203,-0.3622050168262794
1761413722710903300,3.8889033203125,1.2371528544813395,-0.7929314158886671,-0.3722485641958192
1761413722720916500,3.89891650390625,1.1514502550154924,-0.8466006083644926,-0.4078125564647838
1761413722730930700,3.9089306640625,1.0035147789984942,-0.8658015679188072,-0.42012613112553954
1761413722740943400,3.918943359375,0.7946084091901778,-0.8718950624883174,-0.4249089814879
1761413722750956500,3.92895654296875,0.6136591368436813,-0.8658703953713178,-0.40166744130589066
1761413722760969500,3.938969482421875,0.4740104276567697,-0.8383316694520413,-0.307327361876145
1761413722770983400,3.9489833984375,0.3630067981958389,-0.8236097550079226,-0.22066030129231512
1761413722780996600,3.95899658203125,0.27031331692934035,-0.8000931242115795,-0.1356956607121974
1761413722791009500,3.969009521484375,0.16018296317160127,-0.8125010626249015,-0.09562215512953698
1761413722801022700,3.979022705078125,0.06551788957118988,-0.8139946621835231,-0.09468049036525189
1761413722811035600,3.98903564453125,-0.04827332478165626,-0.8526846044532954,-0.06500000317692756
1761413722821049600,3.999049560546875,-0.18855390213131903,-0.8995552228301763,-0.0524321249615401
1761413722831062500,4.0090625,-0.3546329376041889,-0.8738524801664054,-0.11894329988639801
1761413722841075700,4.01907568359375,-0.604267623642087,-0.8074209828816353,-0.20955201076809316
1761413722851088600,4.029088623046875,-0.9447650683879851,-0.689514149903506,-0.3362386182576418
1761413722861102600,4.0391025390625,-1.2706699241578578,-0.4952183431193232,-0.40241734635774046
1761413722871115800,4.04911572265625,-1.5365566568166016,-0.3073443860761821,-0.3323184856718406
1761413722881128400,4.05912841796875,-1.699941630899906,-0.12618030193522572,-0.2131619448935613
1761413722891141600,4.0691416015625,-1.7171633993357418,-0.08857786264121532,0.06990107309147715
1761413722901155600,4.079155517578125,-1.4279723634570836,-0.19991993027627467,0.4404582866668701
1761413722911168500,4.08916845703125,-0.9006576311141252,-0.27228520152419805,0.4953964396325871
1761413722921181700,4.099181640625,-0.5080243409395218,-0.28694895604029297,0.2082959462923929
1761413722931194600,4.109194580078125,-0.38159225620031356,-0.20652181275933978,-0.11102518370561301
1761413722941208600,4.11920849609375,-0.5148024567723274,-0.18743118171170353,-0.190902949475497
1761413722951221800,4.1292216796875,-0.8227583988755941,-0.2866422281786799,-0.11919862635433673
1761413722961234700,4.139234619140625,-1.1172668303847313,-0.33791926482096313,-0.06742226188778877
1761413722971247600,4.14924755859375,-1.331461369729042,-0.21360534127950667,-0.07169789338037372
1761413722981261800,4.15926171875,-1.3762930296242237,-0.0018739771783351897,-0.029120515218004583
1761413722991274500,4.1692744140625,-1.3049462877690792,0.17799612162932751,0.07633819346688688
1761413723001287700,4.17928759765625,-1.1402040538579226,0.2661497675091028,0.18297149888910352
1761413723011300600,4.189300537109375,-0.9379279158443212,0.30235446883440015,0.2268452370049432
1761413723021314600,4.199314453125,-0.7431441794127226,0.30358313384652136,0.21633940588589756
1761413723031327700,4.20932763671875,-0.5588157860219478,0.2658338334277272,0.17378186493515968
1761413723041340700,4.219340576171875,-0.3729746499806642,0.25520503351613877,0.1304838078154251
1761413723051353600,4.229353515625,-0.2656231132864952,0.26361367316022516,0.13400204506944866
1761413723061367800,4.239367919921875,-0.19771569823026655,0.24734803640544414,0.15616181789673864
1761413723071380700,4.249380615234375,-0.1296791038364172,0.29444983318969603,0.18441172429267316
1761413723081393700,4.2593935546875,-0.10207155046463012,0.3554106439784169,0.23263138265833258
1761413723091406600,4.269406494140625,-0.035898411855101585,0.4348132665172219,0.2987228343337774
1761413723101420500,4.279420654296875,0.07927578128874302,0.5342452622584998,0.3412046066345647
1761413723111433700,4.289433837890625,0.2686626271128654,0.6285222133241594,0.39839495897386223
1761413723121446700,4.29944677734375,0.5070867678284645,0.7004587377659977,0.4893403179313987
1761413723131459800,4.3094599609375,0.7392652921527624,0.6968564754903316,0.5450668082632124
1761413723141472500,4.319472412109375,0.9250853854060173,0.677496818242967,0.6319070334568619
1761413723151486700,4.32948681640625,1.1124246510505675,0.6713790660150348,0.6330060076747089
1761413723161499600,4.339499755859375,1.2463134815365076,0.6676869334988296,0.7200339374601841
1761413723171512600,4.3495126953125,1.3007225325942038,0.5959636134162545,0.7456609845392406
1761413723181525800,4.35952587890625,1.2561591682463884,0.5662123260140419,0.7661797486938535
1761413723191539700,4.369539794921875,1.0628858363777398,0.5381644815288483,0.8342743568852543
1761413723201552600,4.379552734375,0.7363496969670057,0.5260571334972978,0.857762419174239
1761413723211565800,4.38956591796875,0.3441892850011587,0.563770778080821,0.9453384843617677
1761413723221578500,4.39957861328125,-0.032817981496453284,0.640926206214726,1.1016117267437278
1761413723231592700,4.4095927734375,-0.29073884984254833,0.7049127945654093,1.2588107056684792
1761413723241605600,4.419605712890625,-0.4692968431383371,0.7568228684142232,1.4010529384799302
1761413723251618600,4.42961865234375,-0.45923371428549287,0.77194474196136,1.519735870397091
1761413723261631700,4.4396318359375,-0.32638650180697437,0.7946012487970292,1.5436054062843323
1761413723271645400,4.4496455078125,-0.16413725375533103,0.786742351990193,1.5160281019203363
1761413723281658600,4.45965869140625,-0.027310616251826285,0.7665830687977373,1.4585899122998118
1761413723291671800,4.469671875,0.0016734861701726913,0.7235635728910566,1.3823510144889355
1761413723301684700,4.479684814453125,-0.0677303049236536,0.7330335581563413,1.2990025769338012
1761413723311698700,4.48969873046875,-0.09074585433006287,0.7569707524523138,1.2157152219161391
1761413723321711600,4.499711669921875,-0.1068476788252592,0.7573110903225839,1.150211141674593
1761413723331724500,4.509724609375,-0.10577917281091212,0.7690513586074114,1.1054196676593273
1761413723341737700,4.51973779296875,-0.0749281074732542,0.7304832891516387,1.1076247034229338
1761413723351750700,4.529750732421875,-0.010370002844929695,0.6892082988247274,1.0856529639810324
1761413723361764600,4.5397646484375,0.10302198305726051,0.6746897979982197,1.0189654461085795
1761413723371777800,4.54977783203125,0.21018705726861953,0.6343873059652745,0.9750929135691374
1761413723381790700,4.559790771484375,0.3032283290594816,0.5488406277135014,0.9469183008991181
1761413723391803600,4.5698037109375,0.4132598986178636,0.47607159797027704,0.8931139377363025
1761413723401817600,4.579817626953125,0.517637972459197,0.4112392064452171,0.8607343476571142
1761413723411830800,4.589830810546875,0.5561357531577349,0.33181451820507646,0.8125563730087131
1761413723421843700,4.59984375,0.5139753582984209,0.25797595953419805,0.7499980638954789
1761413723431856600,4.609856689453125,0.3855933085352182,0.2476961191907525,0.7265423695061355
1761413723441870600,4.61987060546875,0.2875426841497421,0.31865240042358633,0.7298062666729093
1761413723451883500,4.629883544921875,0.1971083799868822,0.39376083289980884,0.7755434240404516
1761413723461896700,4.639896728515625,0.14263736960887907,0.44742271885201335,0.8473823333267122
1761413723471910000,4.649909912109375,0.17280805146694184,0.5025983703680336,0.8952276419546454
1761413723481923600,4.659923583984375,0.16918927644789217,0.5014524152033031,0.9085800946764647
1761413723491936800,4.669936767578125,0.12950374726951122,0.46335444747731086,0.8394687106579541
1761413723501949400,4.679949462890625,0.07211772622764111,0.45442616787329315,0.791946423439309
1761413723511962600,4.689962646484375,0.06228899065256118,0.47153979975953697,0.7918138100355863
1761413723521976800,4.699976806640625,0.07697393408715725,0.43565731612592934,0.7522303529921919
1761413723531989500,4.709989501953125,0.09591068974733352,0.36462519317790865,0.6714652829937636
1761413723542002700,4.720002685546875,0.09495032028257847,0.346687823818624,0.6202476483885199
1761413723552015600,4.730015625,0.09644143562316894,0.30755685978308317,0.5392633096162229
1761413723562028500,4.740028564453125,0.1630365990370512,0.2638165022559464,0.48441225041206926
1761413723572042800,4.750042724609375,0.19972002379000187,0.17734218776524066,0.389348679013364
1761413723582055700,4.7600556640625,0.2509539519429207,0.10291092389822006,0.3396703462719917
1761413723592068600,4.770068603515625,0.303415960586071,0.0616977467611432,0.2925542835003696
1761413723602081800,4.780081787109375,0.3156809833973646,0.014709054962545633,0.16396054548155514
1761413723612095500,4.790095458984375,0.33639702368974683,-0.04405030025914311,0.07670448776232078
1761413723622108700,4.800108642578125,0.30140871241688727,-0.1257961249232292,-0.0035702231695875523
1761413723632121600,4.81012158203125,0.2158440601170063,-0.21221578661724924,-0.1076355047347024
1761413723642134800,4.820134765625,0.15438742863535881,-0.2719702903561294,-0.15706446582488715
1761413723652148700,4.830148681640625,0.09830138427615165,-0.28662352347820996,-0.20897322449944913
1761413723662161700,4.84016162109375,0.011262567770481109,-0.34777021222785115,-0.23150575789557767
1761413723672174600,4.850174560546875,-0.08771686189770699,-0.3736645319409668,-0.2431309484333731
1761413723682187500,4.8601875,-0.13633271650671958,-0.33022491092607376,-0.26324505904354156
1761413723692201700,4.87020166015625,-0.0923082813411951,-0.29124095414578915,-0.2580525136354379
1761413723702214700,4.880214599609375,-0.07177227379083632,-0.29499183111190797,-0.24738529967591166
1761413723712227600,4.8902275390625,-0.09865443549752234,-0.26051512262299653,-0.2547764328405261
1761413723722240800,4.90024072265625,-0.1166945345789194,-0.263722101970762,-0.2764304846353829
1761413723732254700,4.910254638671875,-0.1664607282668352,-0.2540910809248686,-0.2682362914595753
1761413723742267600,4.920267578125,-0.2178565689831972,-0.24055998370051382,-0.20683665086217223
1761413723752280800,4.93028076171875,-0.3384294063001871,-0.25933248870968817,-0.1730968418130651
1761413723762293500,4.94029345703125,-0.46272915518581864,-0.2091559606552124,-0.10204619682766497
1761413723772306700,4.950306640625,-0.43905251152217384,-0.31864070998579264,0.11516794606614857
1761413723782320600,4.960320556640625,-0.31624796963036056,-0.5866491109736264,0.37871049021892245
1761413723792333600,4.97033349609375,-0.17150573669672012,-0.8436329907305539,0.3527193956004456
1761413723802346800,4.9803466796875,-0.07957681006193161,-0.9670390056468546,0.1395328277222812
1761413723812360000,4.99035986328125,-0.0953103857666254,-1.043591207190603,-0.06763097273502498
1761413723822374000,5.000373779296875,-0.1290641868084669,-1.1332782001174986,-0.1689674503907561
1761413723832386800,5.01038671875,-0.10811316871643066,-1.1311341738261282,-0.23713822909090668
1761413723842399700,5.020399658203125,-0.1153963114619255,-1.038629420064762,-0.3386819928217679
1761413723852413000,5.030412841796875,-0.22378069833517072,-0.8412204496961087,-0.44327012921720743
1761413723862427000,5.040427001953125,-0.40513796696066856,-0.606926540653035,-0.506763929082267
1761413723872439800,5.050439697265625,-0.6424392411261797,-0.4041067972820252,-0.47467948602475224
1761413723882452700,5.06045263671875,-0.8213017703264951,-0.2436570729330182,-0.4485311184853315
1761413723892466000,5.0704658203125,-0.9743588271409273,-0.13038403723537922,-0.4506975758042186
1761413723902478800,5.080478759765625,-1.050802015352249,-0.0716512777596712,-0.4429500304173678
1761413723912492800,5.090492919921875,-1.0495441242456436,0.006546645164489746,-0.43038580546379085
1761413723922505700,5.100505615234375,-0.9662485859215258,0.04476027515940368,-0.43966289850547907
1761413723932518700,5.1105185546875,-0.8318062132060527,0.03963409125208855,-0.4627935987241566
1761413723942531800,5.12053173828125,-0.5731617067605257,0.015562383856251834,-0.48923707675263284
1761413723952545800,5.1305458984375,-0.2614619019538164,-0.0060934215042740105,-0.5409129034541547
1761413723962558700,5.140558837890625,0.07092880870401859,0.01182626606784761,-0.6264509600080549
1761413723972572000,5.150572021484375,0.37684827654361724,0.08288834576271474,-0.6989149423900991
1761413723982584800,5.160584716796875,0.647058133098483,0.12578479981161653,-0.6492975825883448
1761413723992598800,5.170598876953125,0.822717482343316,0.20528584122359753,-0.5774722634360194
1761413724002612000,5.180612060546875,0.9344342285096645,0.31504158951528366,-0.5426964258700608
1761413724012624600,5.190624755859375,1.042437507110834,0.444149250139296,-0.5146598334312439
1761413724022637800,5.200637939453125,1.1082979265093802,0.5408338468685746,-0.43927207255698736
1761413724032651800,5.21065185546875,1.1289064147740602,0.6391513054966926,-0.30350809584893285
1761413724042664700,5.220664794921875,1.139157175153494,0.6831970757111907,-0.12906667102649808
1761413724052678000,5.230677978515625,1.063060608422756,0.6869682648129761,-0.01354870594628155
1761413724062690800,5.24069091796875,0.9892278949707746,0.7216188685640692,-0.043513636099174614
1761413724072704800,5.250704833984375,0.885320361250639,0.7447568753063678,-0.07586407314911485
1761413724082718000,5.260718017578125,0.7192348960369825,0.7048224859334528,-0.1432505330711603
1761413724092731000,5.27073095703125,0.5670043531745672,0.6753973617456853,-0.21994448117315768
1761413724102743800,5.280743896484375,0.38696342784464355,0.7048236549772322,-0.34557876659817993
1761413724112756700,5.2907568359375,0.19047405653893945,0.7675420500230044,-0.3850552561357617
1761413724122770700,5.300770751953125,0.00028349311649799344,0.8194501511104404,-0.3919862244427204
1761413724132783900,5.310783935546875,-0.19305998137891292,0.8638888661652803,-0.31921529500335455
1761413724142796800,5.320796875,-0.3772375681221485,0.9334965092681348,-0.2197746775642037
1761413724152810000,5.33081005859375,-0.524074142986536,1.024059846638143,-0.15184625625256448
1761413724162824000,5.340823974609375,-0.6632008741259574,1.1119263461396098,-0.0633267362024635
1761413724172836900,5.3508369140625,-0.7881085257768631,1.1591719353087246,0.057125506942160426
1761413724182849800,5.360849853515625,-0.9107453098863363,1.1810073350198567,0.13374211549162865
1761413724192862700,5.37086279296875,-0.9415887764394283,1.153311153516546,0.2069681317547336
1761413724202877000,5.380876953125,-0.9212918383419513,1.042394471686706,0.2664677108844742
1761413724212889900,5.390889892578125,-0.8385586100757122,0.8823196450646966,0.2293188971094787
1761413724222902800,5.40090283203125,-0.7123527353078126,0.7369150026995688,0.1556236193668097
1761413724232916000,5.410916015625,-0.5360983427792787,0.5901202211502939,0.07516692119780928
1761413724242928600,5.4209287109375,-0.3677361648052931,0.41398097943402823,0.017399755351245404
1761413724252942800,5.43094287109375,-0.21533318798542023,0.26996479575261473,0.040058636807091534
1761413724262956000,5.4409560546875,-0.08785480906367302,0.1426787245325744,0.03883548822030425
1761413724272968700,5.45096875,0.005510287854075432,0.057083750159665936,0.06802753430455923
1761413724282982000,5.46098193359375,0.03920680575072765,-0.005396963672712445,0.04431019330434501
1761413724292995800,5.470995849609375,0.10291969172656536,-0.062529448344931,0.024489640546962618
1761413724303008800,5.4810087890625,0.19847733025252817,-0.10069617045819759,-0.013666852433234452
1761413724313022000,5.49102197265625,0.26582594238221646,-0.16583675114959479,-0.04589647611510008
1761413724323035000,5.501034912109375,0.3511854274988174,-0.2084194630742073,-0.07721654720399529
1761413724333048800,5.511048828125,0.4146826248973608,-0.26096900387033817,-0.05007737852893769
1761413724343062000,5.52106201171875,0.4856137716889381,-0.32628158012777564,-0.03256722160577774
1761413724353074700,5.53107470703125,0.5753162544459104,-0.42618638101257383,-0.01942439304664731
1761413724363088000,5.541087890625,0.7129998010396957,-0.4821766368471086,-0.02828742539472878
1761413724373101800,5.551101806640625,0.8308288926064967,-0.5470367931619287,-0.07065320663303136
1761413724383114800,5.56111474609375,0.9446282902657985,-0.6058697250764816,-0.1395464178562164
1761413724393128000,5.5711279296875,1.0007102429717778,-0.66386511018835,-0.17090532311815768
1761413724403140900,5.581140869140625,0.9964233594328165,-0.716157534418255,-0.201944714102149
1761413724413153800,5.59115380859375,0.9186474613130092,-0.7488944865677505,-0.25976905349604784
1761413724423168000,5.60116796875,0.8081465206772088,-0.8095828370906412,-0.32657939403057096
1761413724433181000,5.611180908203125,0.6859954742580652,-0.8306984711598604,-0.42497806466873733
1761413724443193900,5.62119384765625,0.6097504389673472,-0.8504851947128772,-0.45372894285675136
1761413724453206800,5.631206787109375,0.5930091475248337,-0.8632979145348072,-0.44397871587798
1761413724463220700,5.641220703125,0.6160545075476169,-0.8952492692645638,-0.3883460047768429
1761413724473234000,5.65123388671875,0.7255804656714201,-0.9000471710655837,-0.30637612556591626
1761413724483246800,5.661246826171875,0.8339519930630922,-0.8995700550731272,-0.20543204476125537
1761413724493260000,5.671260009765625,0.9109989923864602,-0.9144311587922275,-0.11706840939261018
1761413724503272700,5.681272705078125,0.8679548004299402,-0.9377355350773781,-0.04585786113776266
1761413724513287000,5.691286865234375,0.7224480128645896,-0.9745040808305143,0.03940839273743331
1761413724523299800,5.7012998046875,0.4563081822276115,-0.9888550430703907,0.08059307443238795
1761413724533312800,5.711312744140625,0.11815583930313586,-0.9522119503278285,0.09222337953671812
1761413724543326000,5.721325927734375,-0.2373895369708538,-0.8694140593275427,0.08405994682535528
1761413724553339600,5.731339599609375,-0.5734691652745008,-0.7470655906401574,0.03158390965685248
1761413724563352800,5.741352783203125,-0.864497353452444,-0.5966807487096637,-0.0041171529952436685
1761413724573366000,5.751365966796875,-0.9991735349237918,-0.4117273552883416,-0.009111161890253424
1761413724583378700,5.761378662109375,-1.1073223594754933,-0.30855047393031415,0.031185083064995706
1761413724593393000,5.771392822265625,-1.1167740784317255,-0.22772454059012232,0.13409202490784228
1761413724603405800,5.78140576171875,-1.0594880106329918,-0.2914440755024552,0.4869698990056291
1761413724613418800,5.791418701171875,-0.8886556431531906,-0.5384876490686088,0.8897871314011514
1761413724623432000,5.801431884765625,-0.6633809068679809,-0.5818466791279614,0.8395997166264801
1761413724633445600,5.811445556640625,-0.583384994611144,-0.27312106782644985,0.3082355262296274
1761413724643458800,5.821458740234375,-0.7806734073400498,0.04105491783544421,-0.17547551711052656
1761413724653471700,5.8314716796875,-1.1859399691164494,0.2319320752825588,-0.29664595499448476
1761413724663485000,5.84148486328125,-1.5936767203986644,0.2859703933317214,-0.1546750499377027
1761413724673497900,5.851497802734375,-1.8700147044450044,0.33391083289720114,0.029178529015555975
1761413724683511800,5.86151171875,-1.9958511613786218,0.53061742715016,0.18087361329440027
1761413724693524700,5.871524658203125,-1.7870377305507659,0.7891535778503864,0.22384883166793731
1761413724703538000,5.881537841796875,-1.250180678358674,0.9361192589871585,0.21553050065580753
1761413724713550800,5.89155078125,-0.6435673683732748,0.8247915121383964,0.19770974341351538
1761413724723564800,5.901564697265625,-0.18793430892825125,0.6012726796098053,0.12995412138551474
1761413724733577700,5.91157763671875,0.11102993294596672,0.38831864184588194,0.07945566790029406
1761413724743591000,5.9215908203125,0.28183833502829075,0.18396204429641366,0.06870532396826892
1761413724753603800,5.931603759765625,0.36295360670387744,0.024481530305743217,0.09063494130149483
1761413724763616800,5.94161669921875,0.3321633316427469,-0.0713325671993196,0.11844156090933829
1761413724773631000,5.951630859375,0.26199089426398275,-0.07329071552976965,0.10754537876583635
1761413724783643600,5.9616435546875,0.14987316608130932,0.001651712729781866,0.1221046865267679
1761413724793656000,5.971656005859375,0.019669746109843254,0.05572773244082927,0.1967809015981853
1761413724803669200,5.981669189453125,-0.12301964594721794,0.1087203408293426,0.3013167598171159
1761413724813683200,5.99168310546875,-0.20373568917214868,0.23712138755396006,0.39182730755396183
1761413724823696100,6.001696044921875,-0.21324293770790098,0.44836043809354303,0.46285771346893156
1761413724833709300,6.011709228515625,-0.16727788986861705,0.7049841062359511,0.5212185343597084
1761413724843722000,6.021721923828125,-0.11596563578248023,0.9813805424712597,0.5707485812041908
1761413724853736200,6.031736083984375,-0.1235351942539215,1.1913032497152685,0.6360362422160803
1761413724863749400,6.041749267578125,-0.20806582733094692,1.269794894888997,0.7328278795164078
1761413724873762000,6.051761962890625,-0.23575229115784166,1.3648119967974721,0.8330205574318766
1761413724883775200,6.061775146484375,-0.17385376112759113,1.4568082895800472,0.9582285072036087
1761413724893788200,6.0717880859375,0.021249124255776405,1.4997332390710711,1.141957546461746
1761413724903802000,6.081802001953125,0.33976679238379,1.493953778886795,1.2959295992292463
1761413724913815300,6.091815185546875,0.6586135463356971,1.4060302885010838,1.3807380263343452
1761413724923828200,6.101828125,0.8923322858393192,1.320776894107461,1.407107562343776
1761413724933841200,6.111841064453125,1.0664870757400988,1.2439340390540659,1.4934662876307963
1761413724943855400,6.12185546875,1.2037182023912667,1.1362480097085237,1.4325835105143487
1761413724953868000,6.131867919921875,1.286997958624363,1.0357786337435244,1.4534341369718313
1761413724963881200,6.141881103515625,1.2580056728959084,0.9359463866382837,1.502584829109907
1761413724973894100,6.15189404296875,1.1065800166755915,0.8215813179202377,1.5393848659798501
1761413724983908000,6.161908203125,0.9330752151161432,0.7482604995131492,1.5637662969119845
1761413724993921300,6.17192138671875,0.7844687079697847,0.7159111584417521,1.5489531970530748
1761413725003934200,6.181934326171875,0.6851917566597461,0.7265044486485421,1.555827174475789
1761413725013947100,6.191947021484375,0.6433832439780235,0.7656088169381022,1.552543038238585
1761413725023960000,6.2019599609375,0.5898392853170633,0.7898518623128533,1.5648828798517584
1761413725033974300,6.211974365234375,0.5063309810250998,0.76180825561136,1.58070924840644
1761413725043987200,6.2219873046875,0.387357980120182,0.7376565417818725,1.5801006149888037
1761413725054000000,6.232000244140625,0.22815818276703356,0.7338739545032381,1.5493495028942823
1761413725064013300,6.242013427734375,0.09928455009460449,0.7096256484314799,1.5160953219376503
1761413725074027300,6.25202734375,0.026128712990880012,0.6644597881458699,1.5011637102656066
1761413725084040200,6.262040283203125,-0.01069090536236763,0.6056828972674906,1.4717020534597336
1761413725094053400,6.272053466796875,0.006079027652740478,0.5681435863375663,1.3843579703971742
1761413725104066000,6.282066162109375,0.06377075364291668,0.5198166316725313,1.2917986369043588
1761413725114080300,6.292080322265625,0.10741232697069644,0.4472499926336109,1.2140684776224195
1761413725124093200,6.30209326171875,0.14531389534175396,0.3907160583764314,1.1304529866289346
1761413725134106000,6.312106201171875,0.09139993432462215,0.32907252602055664,1.0661740642681716
1761413725144119300,6.322119384765625,0.010818331134319304,0.3572312835343182,0.9750330731406808
1761413725154132200,6.33213232421875,-0.13330606216192245,0.3283246302627027,0.9171541540153324
1761413725164146200,6.342146240234375,-0.2836345707952976,0.33612186001017685,0.9018180531956255
1761413725174159400,6.352159423828125,-0.3601753741621971,0.3665710665486753,0.8523002813108265
1761413725184172000,6.362172119140625,-0.3900684081226587,0.36511677608713505,0.7914573978133499
1761413725194185200,6.372185302734375,-0.3856558523774147,0.3691271807722747,0.7736234888285398
1761413725204199400,6.382199462890625,-0.37534488624334333,0.3428518989175558,0.7422722188837826
1761413725214212000,6.392212158203125,-0.33069851978719234,0.26468554017543794,0.7074410709340125
1761413725224225300,6.402225341796875,-0.2726630949258804,0.18083046827241778,0.6785152745705098
1761413725234238200,6.41223828125,-0.15195114139914512,0.11851195926442741,0.6152060740247368
1761413725244251100,6.422251220703125,-0.062033554586768146,0.06714987468719483,0.5723175840865821
1761413725254265300,6.432265380859375,-0.012290741774439812,-0.005554711517691612,0.5507983376525342
1761413725264278300,6.4422783203125,-0.01087561427950859,-0.07059416992217302,0.5150675374493002
1761413725274291200,6.452291259765625,-0.024570962154865265,-0.07477277078106999,0.46948100406620646
1761413725284304100,6.46230419921875,-0.003653261810541153,-0.07720408958122134,0.40602775540724395
1761413725294318000,6.472318115234375,-0.02215221057534218,-0.12667992202043532,0.39964897762294854
1761413725304331300,6.482331298828125,-0.054637014594674106,-0.15351035353988407,0.34511399863064285
1761413725314344200,6.49234423828125,-0.021769348737597463,-0.1612881479345262,0.28108537950282914
1761413725324357400,6.502357421875,0.06080839670598506,-0.18392112776413558,0.200466239047423
1761413725334370000,6.5123701171875,0.14499357734620572,-0.2310356378994882,0.14230581783326343
1761413725344384300,6.52238427734375,0.21079846716523168,-0.25885654176101086,0.09981659287838265
1761413725354397200,6.532397216796875,0.22615035007596015,-0.2462061728939414,0.05437175125461072
1761413725364410000,6.54241015625,0.2163829892992973,-0.24901553122624753,0.03769446495901793
1761413725374423300,6.55242333984375,0.18378128090202808,-0.24371143346875904,0.04113437627982348
1761413725384437000,6.56243701171875,0.12909107481539248,-0.23149638727903366,0.06090002051219344
1761413725394450200,6.5724501953125,0.10075286908149719,-0.17015666017532347,0.08671435205796733
1761413725404463400,6.58246337890625,0.09357494027614593,-0.1430209620989859,0.11402580856001004
1761413725414476000,6.59247607421875,0.09564356324374675,-0.13286708622276783,0.1307177809680812
1761413725424490200,6.602490234375,0.12115911277234553,-0.17710267992094159,0.1321585908935405
1761413725434503400,6.61250341796875,0.11364683744609355,-0.2414307751856744,0.12378189902398734
1761413725444516000,6.62251611328125,0.11631342630684376,-0.307898512827605,0.11580231671324
1761413725454529300,6.632529296875,0.12715806092619894,-0.3613723288618028,0.15132542898254467
1761413725464542200,6.642542236328125,0.11395195787250995,-0.4327800071239471,0.09119451141301542
1761413725474556200,6.65255615234375,0.07200199089348316,-0.4883222999952733,0.05898366549685597
1761413725484569300,6.6625693359375,0.026883915272355077,-0.5071273920997977,0.0255760658104904
1761413725494582300,6.672582275390625,-0.07621288658678531,-0.5247812683425843,-0.0001531082024797797
1761413725504595200,6.68259521484375,-0.17145722137987612,-0.519421056483686,-0.009885982187651098
1761413725514609200,6.692609130859375,-0.286131063786149,-0.5108703780204057,-0.004568623089790344
1761413725524622000,6.7026220703125,-0.42385026621520516,-0.4365716544918716,-0.018133312056493014
1761413725534635300,6.71263525390625,-0.5095405907213688,-0.43531098690629005,0.00988755309022963
1761413725544648200,6.722648193359375,-0.5782908863425255,-0.5178098218947649,0.10529982832875102
1761413725554661400,6.732661376953125,-0.5666127235084771,-0.6104128483988345,0.2880095162102021
1761413725564675000,6.742675048828125,-0.46429742741584773,-0.6935597720324993,0.3124197165790945
1761413725574688300,6.752688232421875,-0.399301515892148,-0.6696367523923515,0.16558613738939165
1761413725584701200,6.762701171875,-0.4156581919312477,-0.6173555071435869,0.05069727312610484
1761413725594714000,6.772714111328125,-0.5049170225739479,-0.6034852410927415,0.001907212727656588
1761413725604728300,6.782728271484375,-0.5994155074357986,-0.5565288441285491,-0.012793668061587958
1761413725614741000,6.792740966796875,-0.6902572233557701,-0.47217561344504355,-0.026758736256416886
1761413725624754200,6.802754150390625,-0.7804384295403957,-0.2883613070562482,-0.04589358090511523
1761413725634767400,6.812767333984375,-0.7913853554904461,-0.06960413597151636,-0.05456053355867043
1761413725644780000,6.822780029296875,-0.6659498805731534,0.1387491299986839,0.018924416768411174
1761413725654794200,6.832794189453125,-0.4510930779278278,0.31027430204823614,0.1232777945599053
1761413725664807200,6.84280712890625,-0.21883447410464285,0.367610346468538,0.18810864258185028
1761413725674820000,6.852820068359375,-0.021326281145215033,0.32425606564953924,0.22903094701357185
1761413725684833300,6.862833251953125,0.14015548966526983,0.2148030266314745,0.24369879318289459
1761413725694846200,6.87284619140625,0.2782014398306608,0.11583967131525277,0.25283786599338054
1761413725704860200,6.882860107421875,0.43767187081873415,0.00510360674932599,0.22392438112217933
1761413725714873300,6.892873291015625,0.5781628760486841,-0.045448330488801,0.225672028507106
1761413725724886300,6.90288623046875,0.6884107187062501,-0.08302548921108245,0.2654875042080879
1761413725734899200,6.912899169921875,0.7812170126974582,-0.12003726913556456,0.2067850668054074
1761413725744913200,6.9229130859375,0.8664566708266734,-0.14238207967355845,0.1535246377935633
1761413725754926000,6.932926025390625,0.9644190324068069,-0.14590104757994413,0.1227763387106359
1761413725764939300,6.942939208984375,1.0385708948105572,-0.12206059165671466,0.11644220378566533
1761413725774952200,6.9529521484375,1.0386807849258184,-0.10075403812527656,0.1060381890732795
1761413725784965400,6.96296533203125,0.9435627068608998,0.00708323625922203,0.05897603017967194
1761413725794979800,6.972979736328125,0.8036240748167037,0.14702654447853564,0.0433642907563597
1761413725804993000,6.982992919921875,0.5656430016934871,0.28698738835453985,0.04619038102775812
1761413725815005700,6.993005615234375,0.30127544142603874,0.4400264711208641,0.06405300465039908
1761413725825019000,7.003018798828125,0.0018915128350257872,0.5751163479596376,0.029586744490265843
1761413725835032800,7.01303271484375,-0.24580489861667154,0.6888057093732058,0.03171696145199239
1761413725845045800,7.023045654296875,-0.3945955301582813,0.8162798505112528,0.04867163991685956
1761413725855059000,7.033058837890625,-0.44627720207870003,0.9089956897400319,0.07041399104967713
1761413725865071900,7.04307177734375,-0.4535819721341133,1.0012271064527332,0.12393995739622041
1761413725875084800,7.053084716796875,-0.38249125086665153,1.0641488420508802,0.16189709187941626
1761413725885099000,7.06309912109375,-0.2695528539508581,1.1212088460087775,0.17651616700356826
1761413725895111700,7.073111572265625,-0.13603344129920006,1.1350785275377333,0.2178741046398878
1761413725905124900,7.083124755859375,-0.07509761882126331,1.1072374576710164,0.2539720941876992
1761413725915137800,7.0931376953125,-0.10652151561081409,1.0604216382212936,0.20361111294440923
1761413725925151700,7.10315185546875,-0.23448621674478054,1.0041719277329741,0.13080745027922094
1761413725935165000,7.1131650390625,-0.4004892643719911,0.9336310954332351,0.10391206376478075
1761413725945177900,7.123177734375,-0.5544827252537011,0.8934250495120882,0.11267466794569045
1761413725955190800,7.133190673828125,-0.6283487564533948,0.8734535439766943,0.13118695111609996
1761413725965203700,7.14320361328125,-0.6331535263866186,0.8731285498060285,0.195559141250886
1761413725975218000,7.153218017578125,-0.5902689089059829,0.8862073732182383,0.24337518725171683
1761413725985230800,7.16323095703125,-0.48949908868968484,0.8663350902736187,0.3004505349092185
1761413725995243800,7.173243896484375,-0.3675695760667324,0.8034091168917715,0.3313383155280724
1761413726005257000,7.183257080078125,-0.24707272659540175,0.7106736961796879,0.3384705785607919
1761413726015270700,7.193270751953125,-0.20811609621345994,0.5941052721984684,0.29977175886482
1761413726025283800,7.203283935546875,-0.20315350537002086,0.5010488028384745,0.2122431860808283
1761413726035297000,7.213297119140625,-0.2659165432751179,0.41069004812985654,0.11582750595342367
1761413726045309700,7.223309814453125,-0.38319501522183413,0.3740444711692631,0.07207275457475334
1761413726055323000,7.233322998046875,-0.4716472056567669,0.3714931792512536,0.07595818117335439
1761413726065336800,7.2433369140625,-0.4282674981355667,0.3983548826918006,0.15353501305710524
1761413726075349800,7.253349853515625,-0.30279402929544447,0.43195407769382,0.2350989418156445
1761413726085363000,7.263363037109375,-0.0810235017389059,0.42367666321396824,0.28942652513496575
1761413726095376000,7.2733759765625,0.1762292580872774,0.34917233411073684,0.3041176425820216
1761413726105388800,7.283388916015625,0.4159095363438129,0.25741028847545383,0.26968612494170663
1761413726115403000,7.293403076171875,0.568604774108529,0.13463015037253498,0.19507548591978846
1761413726125415700,7.303415771484375,0.6412842258721589,0.009800824654847383,0.13858539080433546
1761413726135428900,7.313428955078125,0.6340957756727934,-0.07361950909271836,0.08222699577715248
1761413726145441800,7.32344189453125,0.5952998888105153,-0.13430413328856228,0.042847536873258645
1761413726155455700,7.333455810546875,0.5209709162741899,-0.14623524797037243,0.013379486859217285
1761413726165469000,7.343468994140625,0.4719757069587707,-0.11843173363506793,0.02048003957942128
1761413726175481900,7.35348193359375,0.43515375051796434,-0.0706290951050818,0.04323083710242063
1761413726185494800,7.363494873046875,0.4154933567583561,-0.029338468817621467,0.050563846871629355
1761413726195507700,7.3735078125,0.4254740680247545,-0.011646598652005196,0.024481968697160482
1761413726205522000,7.38352197265625,0.46950025675594803,-0.029776714104413984,0.010811755263060331
1761413726215534800,7.393534912109375,0.5352893644839525,-0.08325856731459498,-0.009664156130515038
1761413726225547800,7.4035478515625,0.645206367751956,-0.158976802252233,-0.05039521230645477
1761413726235561000,7.41356103515625,0.7299386608809232,-0.2254215974099934,-0.06770853148326278
1761413726245574700,7.42357470703125,0.8047609698921442,-0.2865120259277522,-0.0640699557852
1761413726255587800,7.433587890625,0.8177794414192437,-0.3499545705296099,-0.12334405559599398
1761413726265601000,7.44360107421875,0.7934101393163203,-0.3931421164795756,-0.13756309855189175
1761413726275613700,7.45361376953125,0.7426093418836593,-0.40591523494347925,-0.18048008393216877
1761413726285627000,7.463626953125,0.6988444344371557,-0.40548780331164597,-0.16782313919384031
1761413726295640800,7.473640869140625,0.6768500447720289,-0.383629899507761,-0.14657609729729593
1761413726305653800,7.48365380859375,0.6167039113670587,-0.38865781067237254,-0.11780191129893064
1761413726315667000,7.4936669921875,0.5669757116019726,-0.34938232359960675,-0.09911631738822907
1761413726325679900,7.503679931640625,0.5496855541050434,-0.3464877712018788,-0.053606794764101504
1761413726335692800,7.51369287109375,0.5558142661184072,-0.3520489124603569,0.002942811986245215
1761413726345707000,7.52370703125,0.5545891082376241,-0.39083281662389635,0.05086827317830175
1761413726355719700,7.5337197265625,0.5301385575920343,-0.42958427982255815,0.08864230617955327
1761413726365732900,7.54373291015625,0.44518414614498614,-0.4932653093554079,0.12561908785589038
1761413726375745800,7.553745849609375,0.38403029700219626,-0.5599097187384963,0.16106639494262634
1761413726385759700,7.563759765625,0.31072891394793983,-0.6133130998849868,0.21341332583874462
1761413726395773000,7.57377294921875,0.18980770158469676,-0.6513947009980678,0.27115634362474084
1761413726405785900,7.583785888671875,0.026906711626052855,-0.6676375413991511,0.27326917106024917
1761413726415798800,7.593798828125,-0.1472936709821224,-0.7076438269644976,0.26138744847811757
1761413726425811700,7.603811767578125,-0.3092997579276562,-0.7244508771196008,0.2892201889079064
1761413726435826000,7.613825927734375,-0.462405914580822,-0.739049603575468,0.29848573764227326
1761413726445838800,7.6238388671875,-0.5456026687055826,-0.7002414417535067,0.2871162023659795
1761413726455851800,7.633851806640625,-0.6413689815461635,-0.6706593734383582,0.24512104453835634
1761413726465865000,7.643864990234375,-0.7672603835374117,-0.6148134214453399,0.20438074561003594
1761413726475878000,7.6538779296875,-0.8689601780802011,-0.5100481018520892,0.12969689522143452
1761413726485891800,7.663891845703125,-0.9051794924527407,-0.46508434000983834,0.1434792272605002
1761413726495905000,7.673905029296875,-0.8930810583800077,-0.5001224817737937,0.3047976607354358
1761413726505917700,7.683917724609375,-0.7569605233192443,-0.6700634533718228,0.5481188162449747
1761413726515931000,7.693930908203125,-0.4862468088954687,-0.8118735783763229,0.5612145177267491
1761413726525944800,7.70394482421875,-0.3490092525035143,-0.7499974063083529,0.2546642777029425
1761413726535957800,7.713957763671875,-0.359858563297987,-0.5378447480551898,-0.1091348399143666
1761413726545971000,7.723970947265625,-0.5090209507614374,-0.4487523600205779,-0.25070143848657606
1761413726555984000,7.73398388671875,-0.7350409524559974,-0.4261179188862443,-0.1690362047780305
1761413726565996800,7.743996826171875,-0.9735101013571024,-0.32782208756804465,-0.024036855278164147
1761413726576011000,7.754010986328125,-1.1150567531198263,-0.1414735865265131,0.09624649757295846
1761413726586023700,7.764023681640625,-1.1421627867102622,0.06412395099475979,0.22212014471180735
1761413726596036900,7.774036865234375,-1.00273911845088,0.20135624668970703,0.3235120788818225
1761413726606049800,7.7840498046875,-0.7763193037837743,0.2356470772176981,0.4468304155146703
1761413726616063700,7.794063720703125,-0.5601034877449274,0.15227262843847275,0.507907619224675
1761413726626077000,7.804076904296875,-0.3661544485718012,0.07230038931816817,0.5041624778795987
1761413726636089900,7.81408984375,-0.21154022544324397,-0.008008826671540736,0.4501667933957651
1761413726646102800,7.824102783203125,-0.17393325610458849,-0.06283259600996971,0.3827973942063749
1761413726656115700,7.83411572265625,-0.1921755997598171,-0.03661722764894366,0.33211733707655217
1761413726666130000,7.8441298828125,-0.26513562203049656,0.07037628938779235,0.3710242100326344
1761413726676142800,7.854142822265625,-0.336635508620739,0.19844313572198152,0.45732696734871714
1761413726686155800,7.86415576171875,-0.34240649323761463,0.30622634183168407,0.58748629245013
1761413726696169000,7.8741689453125,-0.2886760720938444,0.3806900466635823,0.724755266893655
1761413726706182000,7.884181884765625,-0.1497393105685711,0.35328503012657164,0.8710029359541833
1761413726716195800,7.89419580078125,0.08623626795113086,0.2902868682913482,1.0385087893597782
1761413726726209000,7.904208984375,0.3672685472935438,0.15776538063585757,1.115958158938959
1761413726736221700,7.9142216796875,0.5799485904216766,0.03347103857770562,1.095224802185595
1761413726746235000,7.92423486328125,0.7213450200587511,-0.0023725743502378462,0.9301452991440892
1761413726756248800,7.934248779296875,0.7715086886316538,0.07098711476251482,0.7188573679614811
1761413726766261800,7.94426171875,0.6791209123134613,0.18665479051172731,0.6149154205150902
1761413726776275000,7.95427490234375,0.49877837368845934,0.31167525488734243,0.6367201328270137
1761413726786287900,7.964287841796875,0.2558119133681059,0.47844724106043574,0.6985203170493245
1761413726796300800,7.97430078125,0.10172492898404598,0.6592524287611246,0.832318181316182
1761413726806315000,7.98431494140625,0.07996668616235256,0.8307089194886386,1.002519703546539
1761413726816328000,7.994327880859375,0.05075228211581707,0.968738064649701,1.202193769302964
1761413726826340900,8.0043408203125,0.16792261751294135,1.057404482357204,1.3843456954374909
1761413726836354000,8.01435400390625,0.3007634002506733,1.0482130217723549,1.5000117637515067
1761413726846367000,8.024366943359375,0.4130734361350536,1.0205096068106592,1.564911813685298
1761413726856381000,8.034380859375,0.5465443334698676,0.9734022570684552,1.5511016072586177
1761413726866393900,8.044393798828125,0.5178577526897191,0.9006113077543675,1.4886597641319035
1761413726876406800,8.05440673828125,0.3466986374735832,0.8389438100010156,1.3886895698606967
1761413726886420000,8.064419921875,0.14045359582901001,0.8396450901381671,1.341855045710504
1761413726896433000,8.074432861328125,-0.08668810337185859,0.8871206886708736,1.3193487610004841
1761413726906446800,8.08444677734375,-0.30540859570801254,1.0004738038673997,1.2651779026128351
1761413726916459800,8.094459716796875,-0.5258557657063007,1.1220562566183507,1.1787732923574745
1761413726926473000,8.104472900390626,-0.726410486754775,1.2311322790175676,1.09855153545551
1761413726936486000,8.11448583984375,-0.8964818067342042,1.315157592920959,1.054535575857386
1761413726946499800,8.124499755859375,-1.0050620084404944,1.3891006348796189,1.056333930516243
1761413726956513000,8.134512939453124,-1.031098366972804,1.4826017792671917,1.0039145189058034
1761413726966525700,8.144525634765625,-1.0269365711182354,1.549388958121836,0.9013432752907276
1761413726976539000,8.154538818359375,-0.9473878181070089,1.6094592498116194,0.8162923446666449
1761413726986552000,8.164552001953124,-0.7580015568047761,1.633322209827602,0.7859556585919112
1761413726996565800,8.174565673828125,-0.524807133436203,1.6623390454754232,0.8134118938595056
1761413727006579000,8.184578857421876,-0.3366986369848251,1.6345941294595598,0.836615659314394
1761413727016592100,8.194592041015625,-0.22029870143830774,1.571400006660819,0.8266665122300386
1761413727026604800,8.204604736328125,-0.09076689711809158,1.5242565626919269,0.8142609849695116
1761413727036618000,8.214617919921874,0.017495909202098845,1.4484563485592603,0.7777548895448446
1761413727046632000,8.2246318359375,0.10039864881634712,1.3584548828557133,0.7065653840780258
1761413727056644900,8.234644775390626,0.19982056155502795,1.2897495954200624,0.6626997927360236
1761413727066658000,8.244657958984375,0.28849954648315906,1.2178086870640517,0.6560477875009179
1761413727076671000,8.2546708984375,0.4368810127019882,1.173197538051754,0.6719206255458295
1761413727086685000,8.264684814453124,0.5096656784057617,1.1240187888629734,0.7118871636226772
1761413727096697900,8.27469775390625,0.5788514428347349,1.068983422600478,0.7539515507616102
1761413727106710800,8.284710693359376,0.5970528699576855,1.0295870856270193,0.7796997400023042
1761413727116724000,8.294723876953125,0.5839852985918521,0.9867243877172469,0.7703119531277567
1761413727126737000,8.30473681640625,0.5369236876875162,0.9618567807033658,0.7349305508840829
1761413727136750800,8.314750732421874,0.48368309588730335,0.9309621684849262,0.7348240217696875
1761413727146763800,8.324763671875,0.4357745127648115,0.8862275392234324,0.7335536365076899
1761413727156777000,8.33477685546875,0.3566308334231376,0.8536956811919808,0.7284556557815521
1761413727166790000,8.344789794921875,0.24210604409873485,0.8302961009040475,0.7117014317922293
1761413727176802800,8.354802734375,0.10922726743817329,0.8072283829189837,0.6861523453202099
1761413727186817000,8.364817138671874,0.020391046121716497,0.7828611266426742,0.6960106723159551
1761413727196829700,8.37482958984375,-0.07724398320019245,0.7280855803601444,0.7328378894537687
1761413727206843000,8.3848427734375,-0.11387538550496101,0.66677697904706,0.7615926400993019
1761413727216856000,8.39485595703125,-0.10984744516313075,0.6109608376704156,0.759693455414474
1761413727226869000,8.404868896484375,-0.08954057019352912,0.5700023659467697,0.6859577725961804
1761413727236883000,8.414883056640624,-0.029300913286209106,0.5201714364595711,0.6272398453634231
1761413727246895900,8.424895751953125,0.003927987098693847,0.45127033419087526,0.5918840159524231
1761413727256908800,8.43490869140625,-0.001482347512245178,0.3986958050839603,0.5510544313054532
1761413727266922000,8.444921875,-0.04844400517344474,0.3691733580015599,0.5352469501143321
1761413727276935000,8.454934814453125,-0.046725510817766186,0.3256694395788014,0.5422515316467732
1761413727286948900,8.464948974609374,-0.06282207461595535,0.2585201494134962,0.5679535071255639
1761413727296962000,8.474962158203125,-0.1055056165665388,0.24641747755706309,0.5940424360953271
1761413727306975000,8.48497509765625,-0.1420791512042284,0.24372940751686692,0.6146008746732026
1761413727316988000,8.49498779296875,-0.1466968741327524,0.22823154026418924,0.6518896449081599
1761413727327001900,8.505001953125,-0.12604279316067696,0.19758418080508708,0.6593805851854384
1761413727337015000,8.51501513671875,-0.07332710201740264,0.16527005717754362,0.6866025733057409
1761413727347028000,8.525028076171875,-0.015240823751688002,0.14989640082642436,0.6961728771403431
1761413727357041000,8.535041015625,0.05520633891522884,0.11876754146069288,0.7065247598066926
1761413727367054000,8.54505419921875,0.11326982082724571,0.09740253574028611,0.6961139865599573
1761413727377067800,8.55506787109375,0.1546405266135931,0.06050327627956867,0.702251320271194
1761413727387081000,8.5650810546875,0.132598206153512,0.023654870223253965,0.6930018458887934
1761413727397094000,8.575093994140625,0.10339490802288055,0.009535013325512409,0.7111023699205369
1761413727407106800,8.58510693359375,0.0564063623547554,-0.046519612982124085,0.74357789465487
1761413727417120000,8.5951201171875,0.003042436435818672,-0.12582388971298933,0.7545982511673123
1761413727427133700,8.6051337890625,-0.05920856029391289,-0.17667174115777015,0.7476259279366583
1761413727437147000,8.61514697265625,-0.09792962835431099,-0.2293343869395554,0.7366821437917649
1761413727447160000,8.62516015625,-0.10634615904390811,-0.2737570276424289,0.6792990453593433
1761413727457173000,8.635173095703125,-0.07344108378589152,-0.2950632889129221,0.6276140124380588
1761413727467187000,8.64518701171875,0.023439327776432036,-0.24297157488688825,0.5551434907173738
1761413727477200000,8.655199951171875,0.09163491212427616,-0.21601269468218087,0.48290093253366645
1761413727487212800,8.665212890625,0.0784007520198822,-0.2004047911837697,0.4948892938280478
1761413727497226000,8.67522607421875,-0.03420212933123112,-0.2566955643348396,0.6105050932595506
1761413727507239000,8.685239013671875,-0.18181670283079146,-0.38945992083549497,0.7510372707501053
1761413727517252900,8.6952529296875,-0.2970551933825016,-0.5135983416795731,0.7758881458248943
1761413727527266000,8.70526611328125,-0.29238953965902326,-0.5280556138381362,0.6274152019303292
1761413727537279000,8.715279052734376,-0.26717092725038527,-0.44697555960640306,0.4219960166506469
1761413727547292000,8.7252919921875,-0.33042379449903964,-0.35005803090408444,0.25482337725479154
1761413727557304800,8.735304931640625,-0.4758721298754215,-0.2509779173403978,0.08863993155937641
1761413727567319000,8.745319091796874,-0.5425941345393658,-0.12921221697703003,0.053729982752352946
1761413727577332000,8.75533203125,-0.5267319640189408,0.007445785961300134,0.11402524230442941
1761413727587345000,8.765344970703126,-0.45123102509379387,0.18190218915715814,0.1641573832279071
1761413727597358000,8.775358154296875,-0.30623160252869125,0.3009302812501788,0.29590686359759416
1761413727607370800,8.785370849609375,-0.20458324591219423,0.37351343303248286,0.4125367719750851
1761413727617385000,8.795385009765624,-0.17793547748327254,0.4494770210333168,0.3959999535961076
1761413727627398000,8.80539794921875,-0.21668518711626528,0.49256870539337394,0.3174699491733685
1761413727637410800,8.815410888671876,-0.30158816063702104,0.4989353178158402,0.20246508471444247
1761413727647424000,8.825424072265625,-0.35301147388219833,0.4611762266553938,0.11381192834731191
1761413727657437700,8.835437744140625,-0.3870978678792715,0.45794469738826155,0.11646072582304477
1761413727667451000,8.845450927734374,-0.3410825511574745,0.46365606077238913,0.1548897156016901
1761413727677464000,8.855464111328125,-0.18353402814269065,0.4952195121631026,0.2592158035274595
1761413727687477000,8.86547705078125,0.044832828938961025,0.5369014758557081,0.3489122949350625
1761413727697490000,8.875489990234374,0.253359259518981,0.5521121967300773,0.35262083059679716
1761413727707503900,8.88550390625,0.3948690864026546,0.5786820776171981,0.2791818291701376
1761413727717516800,8.895516845703124,0.4416431125372648,0.6295503873281181,0.18136718723131343
1761413727727530000,8.905530029296875,0.379092256078124,0.6655334087267518,0.10715647077979519
1761413727737543000,8.91554296875,0.22781916007101535,0.7014126774899662,0.06353508172351867
1761413727747556000,8.92555615234375,0.0678343498200178,0.7979352155253291,0.12434625490847974
1761413727757569800,8.93556982421875,-0.05575403592586517,0.9101727706953883,0.1952627521201968
1761413727767583000,8.9455830078125,-0.0996931308954954,1.0209234483085572,0.24933195849796755
1761413727777596000,8.955595947265625,-0.07893792763650417,1.0789921909175813,0.27795007715178655
1761413727787608800,8.96560888671875,0.03490297107696533,1.0687950604215264,0.2893352849212475
1761413727797621500,8.97562158203125,0.18409283106923102,0.9743402685709297,0.2404493811991997
1761413727807635500,8.985635498046875,0.31689971153736113,0.865562352335453,0.19559308005310594
1761413727817648600,8.995648681640626,0.40541561485826966,0.7634134988509118,0.13789629429532213
1761413727827661600,9.00566162109375,0.43830315445959567,0.6513124295420945,0.053459531780518585
1761413727837674500,9.015674560546875,0.4336065210759639,0.5824513670228422,0.025291586313303558
1761413727847688400,9.0256884765625,0.390800814050436,0.5254333025105298,0.054696416631713506
1761413727857701600,9.03570166015625,0.33463995088934895,0.556440435192734,0.08064699657671152
1761413727867714600,9.045714599609376,0.26535598678290845,0.5858392558954656,0.1279400416167453
1761413727877727500,9.0557275390625,0.15081307727992535,0.5934655129902064,0.17523968079434707
1761413727887740700,9.06574072265625,0.025445406901836394,0.5917984565608203,0.142942672698386
1761413727897754400,9.07575439453125,-0.0450040938526392,0.5626967191085219,0.09076623953096569
1761413727907767600,9.085767578125,-0.057419923311471936,0.5366835953213274,0.04960576069550589
1761413727917780700,9.09578076171875,-0.06001753858923912,0.5009133398905397,0.03193608409538865
1761413727927793400,9.10579345703125,-0.049777299603819845,0.4426848766751587,0.051839638961106535
1761413727937806600,9.115806640625,-0.052176177439093585,0.3968982541427016,0.11245110658919438
1761413727947820500,9.125820556640624,-0.06993336792588234,0.36962358598709105,0.1548736960486509
1761413727957833500,9.13583349609375,-0.0827840816706419,0.33426585687994953,0.17801546565061435
1761413727967846700,9.1458466796875,-0.09959376217424869,0.3011901012301445,0.1580576233143918
1761413727977859600,9.155859619140625,-0.14380582886636256,0.29297727641910315,0.14355280395336448
1761413727987872500,9.16587255859375,-0.1790828939527273,0.3073910016968846,0.11375605170791968
1761413727997886500,9.175886474609374,-0.2315764667779207,0.32448052205517885,0.13770479031121358
1761413728007899600,9.185899658203125,-0.24537644407153128,0.3518301551431417,0.16333956403899938
1761413728017912600,9.19591259765625,-0.2102969473838806,0.37604967351183294,0.1762886235916987
1761413728027925500,9.205925537109374,-0.20126316157877444,0.38860418078899384,0.18803904794435947
1761413728037938700,9.215938720703125,-0.18030045304894446,0.4011813382893801,0.21348237248696386
1761413728047952600,9.22595263671875,-0.14639993701279164,0.40101811055168507,0.21373651164481416
1761413728057965600,9.235965576171875,-0.04547054232060909,0.34252222857177256,0.21260252091251314
1761413728067978500,9.245978515625,0.050884384062886236,0.2886155740782618,0.18861761501729488
1761413728077991400,9.255991455078124,0.08761047891378403,0.20503946524709463,0.19480108942519872
1761413728088004600,9.266004638671875,0.08362813127934932,0.13585516212284565,0.20332418576180933
1761413728098018600,9.2760185546875,0.07794073329269885,0.09712342653796076,0.23276037933286278
1761413728108031500,9.286031494140625,0.07347381701171397,0.11063435775712131,0.2812216279020533
1761413728118044700,9.296044677734375,0.0936854149132967,0.09684037181288004,0.29962416708767414
1761413728128057600,9.3060576171875,0.1276128189563751,0.06569996813982724,0.37505328288562595
1761413728138071600,9.316071533203125,0.18968612103164195,0.036118922737985844,0.3710806163949892
1761413728148084700,9.326084716796874,0.23253040650188922,0.0007677695021033287,0.3977970296133309
1761413728158097400,9.336097412109375,0.2591395964860916,-0.010006868620961904,0.36939606084153054
1761413728168110600,9.346110595703125,0.27115269036293027,-0.023673574923723933,0.3580562631163746
1761413728178123500,9.35612353515625,0.2920265515655279,-0.0248830968439579,0.3829122527576983
1761413728188137500,9.366137451171875,0.3044587476372719,-0.02181698727160692,0.41327491352390494
1761413728198150700,9.376150634765626,0.31881928142309185,-0.06264540287479758,0.41286666151657697
1761413728208163600,9.38616357421875,0.37049978429973124,-0.07080445167198776,0.433159800221771
1761413728218176500,9.396176513671875,0.4235527445733547,-0.09168547326773405,0.3992320308525115
1761413728228189400,9.406189453125,0.482450923743844,-0.12347484236881136,0.3612279884876683
1761413728238203600,9.41620361328125,0.5670832636296749,-0.11899565112814306,0.3925996801659465
1761413728248216600,9.426216552734376,0.6733879216194153,-0.09169467948749661,0.3691623251508921
1761413728258229500,9.4362294921875,0.7691571570694447,-0.014499503865092992,0.38267500993572173
1761413728268242700,9.44624267578125,0.9029664925783872,-0.00004442366361618042,0.476786906632781
1761413728278255400,9.45625537109375,1.0006161349475384,0.02805617392212152,0.48595498634204265
1761413728288269600,9.46626953125,0.9698141694486141,-0.019755963088572023,0.4882432799423113
1761413728298282500,9.476282470703126,0.778755591019988,-0.14083850349336863,0.32385205142591145
1761413728308295400,9.48629541015625,0.6075906305849552,-0.28350524532720445,0.17372538550756872
1761413728318308600,9.49630859375,0.3623252456724643,-0.24615882662087676,0.03309078425557818
1761413728328322600,9.506322509765624,0.21841069573462008,-0.1619268842294812,-0.0327497476989869
1761413728338335500,9.51633544921875,0.1262502984315157,-0.053597296283394096,0.07541879989991429
1761413728348348700,9.5263486328125,0.10949322489798069,-0.0669391545459628,0.28625982299866154
