time,seconds_elapsed,z,y,x
1761413735237916200,0.075916259765625,-0.05537701930701732,-0.2741558177016675,0.1868604691516608
1761413735247929000,0.08592919921875,0.048519993019104,-0.2682369490467012,0.22058405771832912
1761413735257942300,0.0959423828125,0.10702537347972392,-0.269187527769804,0.26673823492154475
1761413735267956000,0.1059560546875,0.1479214474916458,-0.23132161523401737,0.2513218719398603
1761413735277969200,0.11596923828125,0.14342179798483848,-0.2519919166885316,0.234797949575074
1761413735287982300,0.125982421875,0.12295944019258022,-0.27391177981272335,0.2276820714215748
1761413735297995000,0.1359951171875,0.08075929784476757,-0.29993352529779077,0.19447783055389298
1761413735308008200,0.14600830078125,0.08417465924620628,-0.2938499676004052,0.17124719535838812
1761413735318022000,0.15602197265625,0.07178688683807849,-0.31591902993693943,0.17753807566352187
1761413735328035000,0.16603515625,0.04237257630527019,-0.36079672093093396,0.17585026870705187
1761413735338048300,0.17604833984375,-0.005244914916157722,-0.32225349365547296,0.14675463220197707
1761413735348061200,0.186061279296875,-0.040701428222656245,-0.2708499080240726,0.12580577866756357
1761413735358074000,0.19607421875,-0.10505611923336983,-0.25113939151242376,0.1296503800654318
1761413735368087000,0.206087158203125,-0.13693068239986897,-0.23675854559093712,0.12353419874007814
1761413735378101000,0.21610107421875,-0.1429196936815977,-0.18149959970563648,0.08513391446610913
1761413735388114200,0.2261142578125,-0.09346212755143642,-0.11415654053390026,0.0645047304732725
1761413735398127000,0.236127197265625,-0.10419044231474399,-0.14559154323935508,0.09489554875488393
1761413735408140300,0.246140380859375,-0.1118804122954607,-0.11366188888475298,0.06473400918450206
1761413735418153000,0.256153076171875,-0.05912029748857021,-0.08091478066742419,0.0257853611796163
1761413735428167200,0.266167236328125,-0.034196868634223936,-0.06431289769560099,-0.036603792778635395
1761413735438180000,0.27618017578125,0.014462240594625472,-0.05628317436650395,-0.07699621898420154
1761413735448193000,0.286193115234375,0.06514905625879765,-0.049495706183463335,-0.10771543810311704
1761413735458206200,0.296206298828125,0.11454758567810058,-0.04720438037589192,-0.12645656159333885
1761413735468219100,0.30621923828125,0.15827099207043646,-0.06013064357489347,-0.09773794170711189
1761413735478232000,0.316232177734375,0.1998182234674692,-0.06983019981235265,-0.10084565279833041
1761413735488246300,0.326246337890625,0.2267190898746252,-0.05880874732136726,-0.10368199960226192
1761413735498259000,0.336259033203125,0.25896248635351654,-0.05254091909825802,-0.12097016607150435
1761413735508272000,0.346272216796875,0.2636275555551052,-0.07873173753991723,-0.1168376693766564
1761413735518285000,0.35628515625,0.2484779172182083,-0.13391338040530681,-0.12394962027370929
1761413735528298200,0.36629833984375,0.23191724303960798,-0.1781013355694711,-0.17077586978590115
1761413735538312200,0.376312255859375,0.21122692171037197,-0.2435794776521623,-0.22080756427589804
1761413735548325000,0.3863251953125,0.18630115476846693,-0.2864493359550834,-0.26934783289805053
1761413735558338000,0.396338134765625,0.16922376323938368,-0.3321941651724279,-0.2791783585714176
1761413735568351000,0.40635107421875,0.18454525101184843,-0.36724589707031846,-0.30853122124057264
1761413735578364200,0.4163642578125,0.16744038695394992,-0.3475467787355184,-0.29869052123306317
1761413735588378000,0.426378173828125,0.16822481532990932,-0.34155338353961706,-0.3191524954328313
1761413735598391000,0.43639111328125,0.1197667816311121,-0.3295150090910494,-0.2891131666031666
1761413735608404200,0.446404296875,0.08230535824298858,-0.30819106603339314,-0.21626283351834863
1761413735618417200,0.456417236328125,0.03895721490383148,-0.29234686956107614,-0.14016813908428885
1761413735628430000,0.46643017578125,0.021381226202845573,-0.3325676746599376,-0.08413584333946927
1761413735638443300,0.476443359375,0.010156067833304404,-0.3733632109068334,-0.01974748752117157
1761413735648457000,0.48645703125,-0.012561959931254385,-0.44030631097555156,0.002113923414051533
1761413735658470100,0.49647021484375,-0.023790040910243986,-0.4521690365962684,-0.013821074880566447
1761413735668483000,0.506483154296875,-0.020258359652757643,-0.4922266139574349,0.010646646095532923
1761413735678496000,0.51649609375,-0.027810382467508315,-0.5604460175722837,0.031089002279378473
1761413735688509200,0.52650927734375,-0.018084522745013237,-0.5904284833818674,0.01939207994593307
1761413735698523100,0.536523193359375,0.0004085808008909225,-0.5978720773860812,0.051583654906041915
1761413735708536000,0.5465361328125,0.02627425894141197,-0.6201081668525934,0.09639989803638309
1761413735718549000,0.556549072265625,0.04873334350883961,-0.6511256747983396,0.1423091788341291
1761413735728562200,0.566562255859375,0.10919979490935802,-0.6630073973804712,0.16667285491386427
1761413735738575000,0.5765751953125,0.09816343711018562,-0.6898394363351166,0.1655884754769504
1761413735748588000,0.586588134765625,0.13332885851562024,-0.7304869424134492,0.17566134027251973
1761413735758602200,0.596602294921875,0.19029636188447474,-0.7653262006044388,0.2009068041554652
1761413735768615200,0.606615234375,0.22877836049199102,-0.7921260908551514,0.19905903913062065
1761413735778628000,0.616628173828125,0.2032867763608694,-0.7970917504385113,0.17738644703207537
1761413735788641300,0.626641357421875,0.2169587433606386,-0.8166988065756857,0.189724608144816
1761413735798654000,0.636654052734375,0.2223912898033857,-0.8333646946944296,0.16706059385612607
1761413735808668700,0.646668701171875,0.23564064747691152,-0.8338065932430326,0.16595308927195146
1761413735818681600,0.656681640625,0.24694880795478819,-0.8399512334778905,0.16876482222443445
1761413735828694500,0.666694580078125,0.2512327688843012,-0.8387081015489996,0.15875439167320726
1761413735838707500,0.67670751953125,0.2685258489906788,-0.8191396238565445,0.16505601256806401
1761413735848720600,0.686720703125,0.26750410472750663,-0.7942831227585673,0.17834155579982325
1761413735858733300,0.6967333984375,0.31967852860093116,-0.7496461086526512,0.15503626619921995
1761413735868747500,0.70674755859375,0.3651929100632667,-0.7214547640435397,0.1691677587358281
1761413735878760700,0.7167607421875,0.392003760099411,-0.7307477853067219,0.19379503592150285
1761413735888773400,0.7267734375,0.39499709669649596,-0.7422711959704756,0.1821857370725833
1761413735898786600,0.73678662109375,0.37890813168287274,-0.7591440048381686,0.1423756499327719
1761413735908799500,0.746799560546875,0.3788578628003597,-0.7387570503696799,0.09069207831621169
1761413735918813400,0.7568134765625,0.3921452143967151,-0.7277746147148311,0.08045859786514192
1761413735928826600,0.76682666015625,0.43026422491073607,-0.7237795537292957,0.08755038275700062
1761413735938839600,0.776839599609375,0.4727431841999292,-0.7429292214877903,0.12720259418766944
1761413735948852500,0.7868525390625,0.49104398004412647,-0.7652009667895734,0.12608184652943163
1761413735958865400,0.796865478515625,0.5307400306165218,-0.7913814099676907,0.12319248176347464
1761413735968878600,0.806878662109375,0.5000841955900192,-0.8246323760539293,0.09622625850252807
1761413735978892500,0.816892578125,0.48230830040276046,-0.8302510927185416,0.03678345106132328
1761413735988905500,0.826905517578125,0.49669338410794733,-0.9149060828275978,0.09906677915807813
1761413735998918700,0.836918701171875,0.5008557644844055,-0.9527518293581902,0.1054421228762716
1761413736008931300,0.846931396484375,0.4847779053866863,-0.9407809671878814,0.06368417133800686
1761413736018944500,0.856944580078125,0.4310656044214964,-0.9363499990031122,0.015836049698479474
1761413736028958500,0.86695849609375,0.3583528349101543,-0.9677120826028287,-0.0023968320086598396
1761413736038971400,0.876971435546875,0.24565116935968398,-0.9606640637874603,-0.03005827099215239
1761413736048984600,0.886984619140625,0.15136252785623072,-0.9312344095550477,-0.0608160320231691
1761413736058997500,0.89699755859375,0.13032616956830023,-0.9003444735117256,-0.04877758450936526
1761413736069010400,0.907010498046875,0.15360475382506847,-0.8653073546610772,-0.014941548544168471
1761413736079023600,0.917023681640625,0.1861374886393547,-0.8691859496600925,0.022220964962616562
1761413736089037300,0.927037353515625,0.18703239165246485,-0.8876306840196251,0.00689852734208107
1761413736099050500,0.937050537109375,0.1442091489702463,-0.899917626401782,-0.018497743188403547
1761413736109063700,0.947063720703125,0.051986207824945445,-0.9158122378870844,-0.05530972622446716
1761413736119076600,0.95707666015625,-0.038861937835812564,-0.8933655744098127,-0.12313066857364027
1761413736129089500,0.967089599609375,-0.14448738138973713,-0.8609295779682695,-0.20359036241732537
1761413736139103500,0.977103515625,-0.2568845110356808,-0.8346363220654428,-0.27637645289320495
1761413736149116400,0.987116455078125,-0.36063071671426294,-0.7559912398956715,-0.41423356595560906
1761413736159129600,0.997129638671875,-0.5445066901624203,-0.6955814871184528,-0.5346639991272241
1761413736169142500,1.007142578125,-0.7820201457738876,-0.6464573907263577,-0.5515290630798787
1761413736179155700,1.01715576171875,-0.982315339103341,-0.6733962510563433,-0.41058052334077655
1761413736189168400,1.02716845703125,-1.0018395392626522,-0.747045716895908,-0.3272385155264288
1761413736199182600,1.0371826171875,-0.8050012083888053,-0.7069171201251446,-0.4305049383314326
1761413736209195500,1.047195556640625,-0.5469219346106052,-0.6660203154608607,-0.5366950300307944
1761413736219208400,1.05720849609375,-0.4215443273603916,-0.6416463371828198,-0.562467330799438
1761413736229221600,1.0672216796875,-0.44421500885188575,-0.5776765538364649,-0.5436421457549557
1761413736239234600,1.077234619140625,-0.5309668251097202,-0.4897532095812261,-0.49855139653217045
1761413736249248500,1.08724853515625,-0.6225514683514833,-0.408157460912317,-0.5008426492745056
1761413736259261700,1.09726171875,-0.6812807206958532,-0.33034897569715976,-0.5274794944506138
1761413736269274400,1.1072744140625,-0.7145622280508279,-0.21812676422670482,-0.5254281148787587
1761413736279287600,1.11728759765625,-0.6660732146918773,-0.11584946205690502,-0.4828036096390336
1761413736289300500,1.127300537109375,-0.5466022011369467,-0.07012655241042375,-0.4165620089031756
1761413736299313700,1.137313720703125,-0.4124772238075733,-0.07369637372121214,-0.38053533102590587
1761413736309327600,1.14732763671875,-0.2240180142223835,-0.11020853356048464,-0.34207072194460775
1761413736319340500,1.157340576171875,-0.00701309363245964,-0.17046543386355043,-0.30967651881817726
1761413736329353500,1.167353515625,0.21145722333490846,-0.23597572465017436,-0.24523970248196272
1761413736339366400,1.177366455078125,0.3776958332836628,-0.2843253295384347,-0.16077537610679865
1761413736349379600,1.187379638671875,0.47814124385118484,-0.31455110258460045,-0.08810629960671067
1761413736359393500,1.1973935546875,0.6296516557455063,-0.29740459134206176,-0.08535049809254705
1761413736369406500,1.207406494140625,0.6915601226478815,-0.3097456019990146,-0.031777678663283584
1761413736379419600,1.217419677734375,0.6825964794695377,-0.2698154504097998,-0.019732728343456983
1761413736389432300,1.227432373046875,0.6653747110337018,-0.2088420724004507,-0.05908171904385089
1761413736399445500,1.237445556640625,0.634838702994585,-0.14984437837824224,-0.06195099086984992
1761413736409458400,1.24745849609375,0.6021697745800018,-0.06509118859171867,-0.05231894691064953
1761413736419472400,1.257472412109375,0.5454799191087484,0.0024155367091298102,-0.07473813785910606
1761413736429485600,1.267485595703125,0.4841670800119638,0.09906140886321663,-0.10187155264681205
1761413736439498500,1.27749853515625,0.40874972771704193,0.22276640672609208,-0.17791017864523453
1761413736449511400,1.287511474609375,0.3039695028156042,0.29463132723644375,-0.17554144021989776
1761413736459524400,1.2975244140625,0.19451427184045314,0.3764540165290236,-0.1232836854445748
1761413736469538600,1.30753857421875,0.09590659809410572,0.44086891329437494,-0.04763237826330587
1761413736479551500,1.317551513671875,0.0397492420643568,0.4999687525168061,0.036299631333444264
1761413736489564400,1.327564453125,0.025782091510295868,0.5166647435128688,0.15005714434608816
1761413736499577600,1.33757763671875,0.044082302832603455,0.4763359479948878,0.2723388679401949
1761413736509590500,1.347590576171875,0.03536883502304554,0.4577632033415138,0.3657205871991813
1761413736519603500,1.357603515625,0.02149286988377571,0.4036823613248765,0.37927020646091547
1761413736529617700,1.36761767578125,-0.04640811543166637,0.37979645882472396,0.3462718999614939
1761413736539630300,1.37763037109375,-0.1678682569772005,0.37461394162029027,0.3364798066023737
1761413736549643500,1.3876435546875,-0.27724048584401606,0.37523748034611343,0.35432248341552913
1761413736559656700,1.39765673828125,-0.32980595486164094,0.4072431225463748,0.38529297388177364
1761413736569669400,1.40766943359375,-0.29536183346807954,0.42737127994820473,0.42276046168450265
1761413736579682600,1.4176826171875,-0.23978607671856877,0.4218921178847551,0.48678661486059427
1761413736589696500,1.427696533203125,-0.1702782407283783,0.44412426182851195,0.5155704454701393
1761413736599709400,1.43770947265625,-0.14819441921412943,0.46117578826397654,0.5315898523788899
1761413736609722600,1.44772265625,-0.24927228246629238,0.4599190662011504,0.5676804258052259
1761413736619735600,1.457735595703125,-0.3632984746187925,0.46267786338999867,0.6118310446336865
1761413736629748500,1.46774853515625,-0.47107145159542557,0.4861192369930446,0.6550144989304244
1761413736639762400,1.477762451171875,-0.5518938778042793,0.5087982479214668,0.7075772645343095
1761413736649775600,1.487775634765625,-0.5797416696727276,0.49885567670837044,0.7506191184032708
1761413736659788500,1.49778857421875,-0.5295680642277002,0.513889433580637,0.7664340157158672
1761413736669801500,1.507801513671875,-0.457594130384922,0.4741065815076232,0.8027236188456416
1761413736679814700,1.517814697265625,-0.3523492105811834,0.40866204943358897,0.8216785677496343
1761413736689827300,1.527827392578125,-0.1933434744954109,0.33053996822461484,0.7929439100440591
1761413736699841500,1.537841552734375,-0.036248540467023846,0.24785788562372327,0.7508105493221432
1761413736709854700,1.547854736328125,0.0951537339001894,0.1895832451790571,0.732244307474792
1761413736719867400,1.557867431640625,0.1676724421441555,0.11599471574649214,0.7322235569477081
1761413736729880600,1.567880615234375,0.19632278256714342,0.08842281820997595,0.7410583861146122
1761413736739893500,1.5778935546875,0.25303777247965337,0.08149228829443454,0.75113590881899
1761413736749906400,1.587906494140625,0.31594284920394416,0.09743848383650183,0.7441183582071215
1761413736759920600,1.597920654296875,0.3976847283452749,0.07791428367719054,0.7494684139981865
1761413736769933600,1.60793359375,0.48148763166964054,0.062398442376404996,0.7363961664572358
1761413736779946500,1.617946533203125,0.5738116951018571,0.04037950279191136,0.7427496271371841
1761413736789959400,1.62795947265625,0.6938707376778125,-0.013279314420372246,0.712192064853385
1761413736799972600,1.63797265625,0.7582739440053701,-0.056770227231085296,0.6840764888942241
1761413736809986000,1.647986083984375,0.8003127583116293,-0.10211991965100169,0.6727985774241387
1761413736819999000,1.6579990234375,0.8406020986020565,-0.17427300945296884,0.6609167817767709
1761413736830012200,1.66801220703125,0.8440449325323104,-0.19316285723149776,0.6508752802338451
1761413736840024800,1.67802490234375,0.843271610072255,-0.22064839165881275,0.6367942940417677
1761413736850038000,1.6880380859375,0.8497107032090425,-0.2404915946394205,0.6292845759987831
1761413736860051200,1.69805126953125,0.8473328681617974,-0.25990678146630525,0.5746289663014933
1761413736870065000,1.70806494140625,0.851983324316144,-0.27894042162969707,0.48346952620185907
1761413736880078000,1.718078125,0.8044821529507636,-0.29853607959002254,0.3794504583986476
1761413736890091000,1.728091064453125,0.7680284453004598,-0.31336437701806424,0.3195730223998427
1761413736900104000,1.73810400390625,0.7207242578119039,-0.26510493463128804,0.26987167410906404
1761413736910117000,1.7481171875,0.6694125882476568,-0.20225114970281718,0.28586850385982543
1761413736920130000,1.758130126953125,0.6079214699745178,-0.17630100814923644,0.38195612107664345
1761413736930144000,1.76814404296875,0.5515127695322036,-0.21889584890305994,0.45752541253026574
1761413736940157000,1.778156982421875,0.4749339722424745,-0.22223887572064993,0.5393290683288127
1761413736950170000,1.788170166015625,0.4281500092357397,-0.25589228512793777,0.5760546151904389
1761413736960183000,1.79818310546875,0.3300514540553093,-0.3496476965375244,0.5394974106330425
1761413736970196000,1.808196044921875,0.21768413502573966,-0.43080300796255466,0.4979166422925889
1761413736980210200,1.818210205078125,0.07128185992538928,-0.494393436602503,0.3766247334534302
1761413736990222800,1.828222900390625,-0.137068629565835,-0.5515716601125895,0.23908720773421227
1761413737000236000,1.838236083984375,-0.3619558278381824,-0.577890781109035,0.1338663811921142
1761413737010249200,1.848249267578125,-0.5784615667343139,-0.5446893532529473,0.08429736317726783
1761413737020262000,1.858261962890625,-0.8203536758214235,-0.5010621007114648,0.030287577102845534
1761413737030275000,1.868275146484375,-0.9636234981149434,-0.38957463325634595,0.055445837626373395
1761413737040289300,1.878289306640625,-1.1138292571514845,-0.3237599526956677,0.171515052514337
1761413737050302000,1.888302001953125,-1.2379215007662772,-0.4647628529705107,0.4886428006539121
1761413737060315100,1.898315185546875,-1.246920799779892,-0.6479261481046676,0.6949735112879425
1761413737070328000,1.908328125,-1.144352990230918,-0.7139031796202063,0.49614539483636616
1761413737080341000,1.918341064453125,-1.1409481502234935,-0.7691269080616533,0.26809945853846145
1761413737090354000,1.92835400390625,-1.2117407653272152,-0.9068485947087407,0.22139995894478634
1761413737100368100,1.9383681640625,-1.3036159159481524,-0.9811438111059367,0.26266159659978
1761413737110381000,1.948381103515625,-1.278265786114335,-0.9802630827486515,0.20852663150941952
1761413737120394000,1.95839404296875,-1.2258528773099184,-0.90794559616521,0.17778684452651067
1761413737130407200,1.9684072265625,-1.1637725609719753,-0.8112129225105047,0.09788143269787541
1761413737140419800,1.978419921875,-1.0769967793166637,-0.6736861739136278,0.11920322946421802
1761413737150433000,1.98843310546875,-0.9556634790211915,-0.5378384644448757,0.13000997062544337
1761413737160447200,1.998447265625,-0.8014239344239235,-0.4555765069521963,0.17102615475254132
1761413737170460000,2.0084599609375,-0.5733674584656954,-0.36483795914575456,0.1132730448307935
1761413737180473000,2.01847314453125,-0.349461087924242,-0.24048209615871308,-0.023716217622207478
1761413737190486000,2.028486083984375,-0.18079028239250183,-0.1149541206523776,-0.17386660234285517
1761413737200499000,2.0384990234375,-0.07854512892663479,-0.08225304353386163,-0.250952344507724
1761413737210513200,2.04851318359375,-0.054330725124478334,-0.04760375495702028,-0.28401195274032653
1761413737220526000,2.058526123046875,-0.0309001651763916,0.025640052691102026,-0.3337024508435279
1761413737230539000,2.0685390625,0.04327916975617409,0.10802110651880502,-0.4320727356374264
1761413737240552000,2.078552001953125,0.15496026008725167,0.19355989372506738,-0.44986280548051
1761413737250565000,2.088565185546875,0.2921276738524437,0.2767383815407753,-0.47353327513169496
1761413737260578000,2.098578125,0.4406108468800783,0.37990474150478837,-0.5389519421121105
1761413737270592000,2.108592041015625,0.5398129793882369,0.46012277207970614,-0.5951264319397509
1761413737280605200,2.118605224609375,0.5495043523192406,0.5120407369740307,-0.6438017616510391
1761413737290617900,2.128617919921875,0.5029705646812915,0.553683829960972,-0.6861775528267026
1761413737300631000,2.138631103515625,0.42836862042248247,0.6357939578928054,-0.7194830255791544
1761413737310644200,2.148644287109375,0.352562561070919,0.7206545535765588,-0.8087653832279145
1761413737320657000,2.158656982421875,0.2572130123376846,0.8254906003184616,-0.8261397849421948
1761413737330671000,2.168671142578125,0.16270985130071638,0.9018643765553832,-0.9074285134885459
1761413737340684000,2.17868408203125,0.06539747806191444,0.9478152497388422,-0.9474335569448769
1761413737350697000,2.188697021484375,0.06439093136787415,1.0091362721420825,-0.9646985800005495
1761413737360710100,2.198710205078125,0.07074293074309826,1.0020013056956232,-0.861163678985089
1761413737370723000,2.20872314453125,0.008867197066545486,0.9417999349720776,-0.7880473701741546
1761413737380737000,2.218737060546875,-0.0019347674548625944,0.9422862571842968,-0.7619549706056714
1761413737390750000,2.22875,0.02937222495675087,0.9783072725057601,-0.7132167317260056
1761413737400763100,2.23876318359375,0.023882395368814466,0.9865426014095544,-0.6101589467030019
1761413737410776000,2.248776123046875,-0.09019581923186779,0.935657486694306,-0.5326023538896814
1761413737420789000,2.2587890625,-0.23810674532949924,0.929373437988758,-0.527229319081828
1761413737430802200,2.26880224609375,-0.39868776790797705,0.9516127423256635,-0.516656121814996
1761413737440816000,2.278816162109375,-0.5251064086437225,0.8868528315149247,-0.5038384700896218
1761413737450829000,2.2888291015625,-0.5759709189623594,0.809010590160638,-0.49183019851837306
1761413737460842200,2.29884228515625,-0.4803513211160898,0.8399016952477395,-0.4277104122420773
1761413737470855000,2.30885498046875,-0.3161877638757229,0.75534607385993,-0.36574659842327234
1761413737480868000,2.3188681640625,-0.11198095006048679,0.6899493264503777,-0.2989055156906135
1761413737490881000,2.328881103515625,0.121143330681324,0.6307436887659132,-0.25528573406953364
1761413737500895000,2.33889501953125,0.3559638939470052,0.578784953469783,-0.22284701594794168
1761413737510908200,2.348908203125,0.5874877537548542,0.5207277551680803,-0.15221994840316475
1761413737520921000,2.358921142578125,0.8079016060054302,0.3977830741532147,-0.09363306367155164
1761413737530934000,2.36893408203125,1.0215063627630472,0.3147570004202425,-0.0795612471666187
1761413737540947000,2.378947021484375,1.1741378876417874,0.19710531124696135,-0.10652136948034166
1761413737550960000,2.388960205078125,1.303188045924902,0.05497106885462999,-0.13588040616195649
1761413737560974000,2.39897412109375,1.3816992725819348,-0.06411620607972145,-0.18835666252616792
1761413737570987000,2.408987060546875,1.422859550487995,-0.18335384927019477,-0.23332977671865374
1761413737581000200,2.419000244140625,1.5098820003807545,-0.332794469153136,-0.31215335726048793
1761413737591012900,2.429012939453125,1.5516799916684627,-0.46594534075334665,-0.3466562596365809
1761413737601026000,2.439026123046875,1.58228964946568,-0.5704276056215166,-0.3737610145853832
1761413737611040000,2.4490400390625,1.5757260531663895,-0.6369120021373034,-0.38282040975578124
1761413737621053000,2.459052978515625,1.499757496729493,-0.6709910896107554,-0.33260712988749147
1761413737631066000,2.469066162109375,1.3718828119665383,-0.6986369291663169,-0.2937136278696358
1761413737641079000,2.4790791015625,1.2469324902176857,-0.6760115481212735,-0.2861526180308312
1761413737651092000,2.489092041015625,1.1475678606241941,-0.667673197234422,-0.2604601410327479
1761413737661105200,2.499105224609375,1.0259031364172697,-0.6658727236837149,-0.1840455943940207
1761413737671118800,2.509118896484375,0.9086918844878673,-0.6560388735421001,-0.1602728334121406
1761413737681132000,2.519132080078125,0.7650216646999121,-0.6674377810433506,-0.12169051623530686
1761413737691145000,2.52914501953125,0.6255547418206929,-0.6803627290681004,-0.14174875020608305
1761413737701158100,2.539158203125,0.5075345115959644,-0.7261014208056032,-0.163065642468445
1761413737711171000,2.549171142578125,0.4088081799060106,-0.7587193496853113,-0.1950148052411154
1761413737721184000,2.55918408203125,0.3229138572603464,-0.8291277877770363,-0.18503869708459822
1761413737731198000,2.569197998046875,0.22396306916475295,-0.894420344159752,-0.1332396458622068
1761413737741211000,2.5792109375,0.1267646776944399,-0.9159905170634388,-0.1061321144344285
1761413737751224000,2.58922412109375,0.0047691140979528425,-0.9078861210629343,-0.014460560094192623
1761413737761237200,2.5992373046875,-0.19406009833216667,-0.9623677989654242,0.05776406057402491
1761413737771250000,2.60925,-0.3834183025836944,-1.0200630320869386,0.037110491058602924
1761413737781263000,2.61926318359375,-0.5123322672665119,-1.0029895860806106,-0.011518917151726782
1761413737791277000,2.629277099609375,-0.6082844580680131,-0.9266913592979311,-0.08448573448937385
1761413737801290000,2.6392900390625,-0.7259855393409729,-0.9626961541369556,-0.09575045768432319
1761413737811303200,2.64930322265625,-0.8817501015484333,-0.9522481176197528,-0.18344898020774125
1761413737821316400,2.65931640625,-1.0409393775075673,-0.8556918234452605,-0.28389734991732984
1761413737831329000,2.6693291015625,-1.1680910086929797,-0.7459234348677098,-0.3775730106215924
1761413737841342200,2.67934228515625,-1.2504495584279298,-0.677105480837822,-0.3329373482225463
1761413737851356200,2.689356201171875,-1.3007394837290047,-0.6600767507560551,-0.22426102919802068
1761413737861369000,2.699369140625,-1.2158692434340714,-0.5663571413122117,-0.22818985654693097
1761413737871382300,2.70938232421875,-1.0097463668644429,-0.41173984944373365,-0.2614427953945473
1761413737881395200,2.719395263671875,-0.8110720527350902,-0.34922391816750165,-0.14214918423313647
1761413737891408100,2.729408203125,-0.6238701497346163,-0.527095536634326,0.1923793787036091
1761413737901421000,2.739421142578125,-0.30075638598799703,-0.7162026887342333,0.4597311424136162
1761413737911435000,2.74943505859375,-0.0025339023917913435,-0.8107789150074124,0.4116388002220541
1761413737921448200,2.7594482421875,0.13666589398384094,-0.8956748742654919,0.25860457629393785
1761413737931461000,2.769461181640625,0.08202303417026996,-1.061411233780533,0.13956946993824093
1761413737941474300,2.779474365234375,-0.12130933489799499,-1.1807153663359582,0.00596427869927138
1761413737951487000,2.789487060546875,-0.4386240569770336,-1.195500409144163,-0.15222488030660897
1761413737961501200,2.799501220703125,-0.7953297092020511,-1.0893440735839306,-0.2995769121461548
1761413737971514000,2.80951416015625,-1.0949480310708284,-0.911975874594599,-0.4244176543070003
1761413737981527000,2.819527099609375,-1.2845242619872093,-0.6201753868699074,-0.48232788188606496
1761413737991540200,2.829540283203125,-1.374928755533695,-0.30209318754971026,-0.4627800085902214
1761413738001553200,2.83955322265625,-1.4084697906076906,-0.0619374007359147,-0.386563980198279
1761413738011566000,2.849566162109375,-1.418055365076661,0.1385180977217853,-0.2933198793116957
1761413738021580300,2.859580322265625,-1.332580144625902,0.3104167792588472,-0.23415102997366338
1761413738031593000,2.869593017578125,-1.183423017859459,0.44166240175962446,-0.16990882289409637
1761413738041606100,2.879606201171875,-0.9211030377715825,0.5573273010298609,-0.11661549625964834
1761413738051619300,2.889619384765625,-0.5336170473575592,0.5930104626990854,-0.012583765337686053
1761413738061632300,2.89963232421875,-0.11780220355987549,0.5101017317354679,0.1173397462804336
1761413738071645200,2.909645263671875,0.22262100690603254,0.41169586417153475,0.17690606137029827
1761413738081659100,2.9196591796875,0.4159364243507385,0.331826500903815,0.20901180294416843
1761413738091672000,2.929672119140625,0.5362929885685443,0.24119594351649282,0.24223894976340232
1761413738101685200,2.939685302734375,0.6534200693458319,0.22372093097195028,0.2587530265876092
1761413738111698200,2.9496982421875,0.7411959679543971,0.19154548516273498,0.2806318087827414
1761413738121711400,2.95971142578125,0.8275503093272447,0.1730117573454976,0.3078389646600932
1761413738131724000,2.96972412109375,0.875111101925373,0.18534063917323945,0.3538093462616205
1761413738141738200,2.97973828125,0.9079828594356775,0.18696429485231636,0.34063334608525037
1761413738151751200,2.989751220703125,0.8847060287445783,0.29009499898105856,0.3074968732241541
1761413738161764000,2.99976416015625,0.8474579558461904,0.38282238251715894,0.29786349582439287
1761413738171777300,3.00977734375,0.7696884874671697,0.42181218451634045,0.3730465827057138
1761413738181790200,3.019790283203125,0.689296853891015,0.5202824956186115,0.4034080013629049
1761413738191803100,3.02980322265625,0.6567921761274338,0.5839527114965021,0.36410131543427704
1761413738201817300,3.0398173828125,0.616263181862235,0.6184276664197444,0.4217785014424473
1761413738211830000,3.049830078125,0.5772890158236026,0.6097478086188435,0.5068886149078607
1761413738221843200,3.05984326171875,0.5461234777092934,0.609976356677711,0.4948319010850042
1761413738231856000,3.069856201171875,0.5024608615934848,0.6113493985965848,0.43430188292898236
1761413738241869300,3.079869384765625,0.3913011647880077,0.6232284908302128,0.4047158325584605
1761413738251883300,3.08988330078125,0.287177357968688,0.6087644966699183,0.3409869818285107
1761413738261896200,3.099896240234375,0.2633627671390772,0.604307517261058,0.24781315143285318
1761413738271909000,3.1099091796875,0.2245189494818449,0.5830937565796077,0.1950675583416596
1761413738281922000,3.119922119140625,0.1468587866961956,0.5237037022389471,0.1375369594636373
1761413738291935200,3.129935302734375,0.06397533630430698,0.4824737200975418,0.058984501180495134
1761413738301948200,3.1399482421875,-0.04271101447939873,0.4954140118218958,0.01963635986347217
1761413738311961000,3.149961181640625,-0.19466624753177164,0.5324252072244883,-0.019501698349846993
1761413738321975300,3.159975341796875,-0.3719078975319862,0.588719049115479,-0.011582440524746197
1761413738331988200,3.16998828125,-0.514519548177719,0.6422329048991203,-0.002002833430614555
1761413738342001200,3.180001220703125,-0.6139274323910474,0.6976616543933749,-0.005330698070046491
1761413738352014000,3.19001416015625,-0.6415759022951125,0.7243950552791356,-0.009444031123409512
1761413738362027300,3.20002734375,-0.6317068347096443,0.7163195931121706,-0.023583437538414728
1761413738372041200,3.210041259765625,-0.5511965431898832,0.694716540852189,-0.04278221655208617
1761413738382054100,3.22005419921875,-0.36507483664155005,0.6741869630426168,-0.032483776539447715
1761413738392067000,3.230067138671875,-0.14697452203035355,0.5926292082965373,-0.03182560032508336
1761413738402080000,3.240080078125,0.056557753524184226,0.5178624288648367,-0.0004725905143888667
1761413738412093200,3.25009326171875,0.21386369995474813,0.45186815395355223,0.018661500649061052
1761413738422106400,3.2601064453125,0.3593769172608852,0.40900720960944886,0.02808658732669428
1761413738432120000,3.2701201171875,0.43101942719221115,0.33894422395452856,0.02598993470785208
1761413738442133200,3.28013330078125,0.4810860651314258,0.2926433682896197,0.05043852172521874
1761413738452146200,3.290146240234375,0.4976970081925392,0.26638912922292945,0.0514042980174534
1761413738462159000,3.3001591796875,0.5157528893649578,0.24987302483841775,0.01705185522902757
1761413738472172300,3.31017236328125,0.5511439362198114,0.24466391188800332,0.01558813935201615
1761413738482185200,3.320185302734375,0.5511550421357154,0.20686784971803426,0.017232070634141564
1761413738492199200,3.33019921875,0.5317296261757611,0.18376564494147896,0.030184107595216482
1761413738502212400,3.34021240234375,0.4962719438254833,0.15402181019335984,0.010449607419781386
1761413738512225000,3.35022509765625,0.4390460817813873,0.10560688498392701,0.006929214741289615
1761413738522238200,3.36023828125,0.37235038060247894,0.10178367343395948,0.02499578170450404
1761413738532251100,3.370251220703125,0.2906330513805151,0.10637933066114783,0.025263967654015868
1761413738542264300,3.380264404296875,0.15976093836724758,0.15271701120510697,0.018891902738297356
1761413738552278300,3.3902783203125,0.0006488192975521087,0.2579474640920758,0.003773929048143327
1761413738562291200,3.400291259765625,-0.1601654275149107,0.3859096810080111,-0.0354690165950451
1761413738572304100,3.41030419921875,-0.29823300499022004,0.48140258373469114,-0.10618760748133063
1761413738582317000,3.420317138671875,-0.3911106106519699,0.5916980649262666,-0.20039971314985303
1761413738592330200,3.430330322265625,-0.4686714047163725,0.7073786001570522,-0.2736663171516731
1761413738602343200,3.44034326171875,-0.5016834474802017,0.8042138574033975,-0.26052462110370395
1761413738612357000,3.450357177734375,-0.5148007032066584,0.8220562419556081,-0.09999817825667559
1761413738622370300,3.460370361328125,-0.4833130935311317,0.5970018704228103,0.30258517231773585
1761413738632383200,3.47038330078125,-0.29953999593555924,0.2696471081055701,0.5677269318280741
1761413738642396200,3.480396240234375,-0.014136661902070045,0.027980332206934688,0.3829528039637953
1761413738652409000,3.4904091796875,0.1597206063568592,0.0030276772581040857,0.020589244708092883
1761413738662422300,3.50042236328125,0.09904723420739173,-0.04788447159454226,-0.22091913489159196
1761413738672436200,3.510436279296875,-0.1424795486986637,-0.11611673469096422,-0.3455896167857572
1761413738682449200,3.52044921875,-0.42656653943657874,-0.07205342881977558,-0.36016876175832
1761413738692462000,3.530462158203125,-0.7540209627360105,0.025867285575717686,-0.30481435614190994
1761413738702475000,3.54047509765625,-0.9840899475604296,0.19216010992974042,-0.31185163436755536
1761413738712488200,3.55048828125,-1.0912684657752514,0.4366021957606077,-0.3455350370543077
1761413738722502100,3.560502197265625,-1.1118073959350585,0.6309682913020253,-0.4209109978929162
1761413738732515000,3.57051513671875,-1.064896007156372,0.7416359668068587,-0.43893169815409927
1761413738742528300,3.5805283203125,-0.980316274240613,0.8078922536551952,-0.42145752585977314
1761413738752541200,3.590541259765625,-0.8868354419887066,0.826261876951903,-0.4323705860728398
1761413738762554000,3.60055419921875,-0.8058055105090141,0.7779385755486786,-0.45886678066924214
1761413738772567300,3.6105673828125,-0.736330407744646,0.7728853838123381,-0.5772027257796377
1761413738782581000,3.6205810546875,-0.5883171903163195,0.8226292195379734,-0.6614458471521735
1761413738792594200,3.63059423828125,-0.42642625418305397,0.8642851720064878,-0.6823528799720108
1761413738802607000,3.640607177734375,-0.26195056225359437,0.8579648829437792,-0.6609608401142061
1761413738812620000,3.6506201171875,-0.11745967373251914,0.8607249953068792,-0.623893969001621
1761413738822633000,3.660633056640625,0.02645896785855293,0.8699218627192079,-0.591079933027923
1761413738832646000,3.67064599609375,0.21287176630795002,0.8319574582450091,-0.5542973222168163
1761413738842659800,3.680659912109375,0.41277942162454123,0.7545930635355412,-0.4893604108713567
1761413738852673000,3.690673095703125,0.615450111913681,0.6607219167917966,-0.442596613869816
1761413738862686000,3.70068603515625,0.7049994499355554,0.5732596141770482,-0.41484983469042924
1761413738872699100,3.71069921875,0.7961065387934446,0.4716131572566926,-0.36520463703367856
1761413738882712000,3.720712158203125,0.8717086000055074,0.32591888429522514,-0.26637550255637615
1761413738892725000,3.73072509765625,0.8502186527311801,0.1927757576100528,-0.206509062875621
1761413738902738200,3.74073828125,0.8355874853104353,0.09900251828283071,-0.24079843209888785
1761413738912751900,3.750751953125,0.7717126867711543,-0.022482903834432362,-0.30648707512710244
1761413738922765000,3.76076513671875,0.6748726072192192,-0.1331071785889566,-0.35828411705549806
1761413738932778200,3.7707783203125,0.539057777106762,-0.21665610715225336,-0.4246019613653421
1761413738942791000,3.780791015625,0.4145242194652557,-0.27877675550058484,-0.5129827670644969
1761413738952804000,3.79080419921875,0.2873790180206299,-0.33030908207818865,-0.55238209971264
1761413738962817800,3.80081787109375,0.21928338691592214,-0.328402371674031,-0.5507749933095648
1761413738972831000,3.8108310546875,0.12013386137783527,-0.3130737235084176,-0.49648412527143954
1761413738982844200,3.82084423828125,0.024654548785090446,-0.29977687343135473,-0.42067532597351814
1761413738992857000,3.830857177734375,-0.05198153164982795,-0.2708031462728977,-0.3482288427155465
1761413739002870000,3.8408701171875,-0.08289104917645454,-0.24184286311790346,-0.26293007481023667
1761413739012883000,3.850883056640625,-0.059278118398785586,-0.2553670922100544,-0.2181631872469559
1761413739022897000,3.86089697265625,-0.05723696796000004,-0.3039702334679663,-0.17056480258479714
1761413739032910000,3.87091015625,-0.015522563302516936,-0.3602630524456501,-0.1332016884719953
1761413739042923000,3.880923095703125,0.06694646106958389,-0.43823827252984043,-0.11931699203699826
1761413739052936200,3.890936279296875,0.1822773060798645,-0.5103730960227548,-0.10080876398719847
1761413739062948900,3.900948974609375,0.3109153764307499,-0.6072092300519347,-0.08306070665493608
1761413739072962000,3.910962158203125,0.4645458492189645,-0.7044814174108207,-0.07106715772878378
1761413739082976000,3.92097607421875,0.5777344215035438,-0.7908608932249248,-0.04315539724603295
1761413739092989000,3.930989013671875,0.6768804399102926,-0.8978396510839461,0.008342113746516406
1761413739103002000,3.941002197265625,0.7709381952673197,-0.9884883286498486,0.07507288623880594
1761413739113015000,3.95101513671875,0.870209885880351,-1.0667787521630525,0.07381992703564465
1761413739123028000,3.961028076171875,0.9496785593926906,-1.1425142304964362,0.054712052592262625
1761413739133041000,3.971041015625,1.0266519089579582,-1.1977692308589816,0.03860420021507889
1761413739143054800,3.981054931640625,1.041060958060622,-1.2404228160627186,0.03846906606070697
1761413739153068000,3.991068115234375,1.0243325260996818,-1.2572981091484428,0.03702423754725605
1761413739163081000,4.0010810546875,1.0301222154170273,-1.2779140500672161,0.0182645189544186
1761413739173094100,4.01109423828125,0.973150620394945,-1.2503678714938462,-0.019796002838015556
1761413739183106800,4.02110693359375,0.930624899354577,-1.205153788152337,-0.006195274443551897
1761413739193120000,4.0311201171875,0.8918553159773349,-1.16588487695083,0.056632681923918425
1761413739203134000,4.041134033203125,0.8746762176394463,-1.109316455902159,0.11476192254852503
1761413739213147000,4.05114697265625,0.8576292212486266,-1.0849633742816747,0.16026220242027192
1761413739223160000,4.06116015625,0.8045552181869745,-1.0782714754275977,0.11836235819328575
1761413739233173000,4.071173095703125,0.6996674412578344,-1.080989721410349,0.07554225731622427
1761413739243186000,4.08118603515625,0.5431704731225967,-1.082844555496797,0.02919927954263985
1761413739253199000,4.09119921875,0.3805143978357315,-1.0770045242317021,0.01847443537805229
1761413739263212800,4.101212890625,0.2472492522060871,-1.082667153103277,0.013979827372543514
1761413739273226000,4.11122607421875,0.1552326472878456,-1.0530236369244754,0.07970039990898221
1761413739283239000,4.121239013671875,0.027206571355462072,-1.0084813884299249,0.11338716359660028
1761413739293252000,4.131252197265625,-0.0933580826550722,-0.9617351270850747,0.10923168788496404
1761413739303265000,4.14126513671875,-0.17574936561584473,-0.9006522973518818,0.1325834469757974
1761413739313278000,4.15127783203125,-0.23020751651227472,-0.8603504629060625,0.12997271648813039
1761413739323292000,4.1612919921875,-0.2720207053691149,-0.8547486973762511,0.15935246716421098
1761413739333305000,4.17130517578125,-0.2942173396080732,-0.8747044938858598,0.16935352709889412
1761413739343318000,4.181318115234375,-0.306429755449295,-0.8736082230817526,0.15844883285537362
1761413739353331200,4.191331298828125,-0.3992740433633327,-0.8810447297580539,0.14116839303486048
1761413739363344000,4.20134375,-0.5012164144903422,-0.8268827853292227,0.07731178773939609
1761413739373357000,4.211357177734375,-0.6864268514126539,-0.7655936924342066,0.04544683265145868
1761413739383371000,4.22137109375,-0.8762818992704152,-0.6831001912079752,0.008251622451469301
1761413739393384000,4.231384033203125,-0.9949649773180484,-0.5965886865120381,-0.03889664382301271
1761413739403397000,4.241397216796875,-1.0942471893250942,-0.5240433094568551,-0.019889855133928356
1761413739413410000,4.25141015625,-1.229732933613658,-0.5697670228209346,0.19652298131436108
1761413739423423000,4.261423095703125,-1.1936217557907103,-0.7533093073353171,0.4391021593501791
1761413739433436000,4.271435791015625,-0.9090490273624658,-0.8846468459032475,0.4006626481775194
1761413739443449900,4.281449951171875,-0.6083031627684832,-0.9854638662621378,0.1251941952410154
1761413739453463000,4.291463134765625,-0.4768424362123012,-1.0676350767314433,-0.1885500114074908
1761413739463476000,4.30147607421875,-0.5238350735336542,-1.1031931507162749,-0.4260730933638289
1761413739473489200,4.3114892578125,-0.8505921622186898,-1.077994265921414,-0.5633963918104767
1761413739483501800,4.321501708984375,-1.3054548218131066,-0.976845383259654,-0.6840618027817458
1761413739493515000,4.331514892578125,-1.7577409089177847,-0.7811937779523431,-0.7947916568025947
1761413739503529000,4.341529052734375,-2.0572464180618524,-0.5895946629062294,-0.8420266515124589
1761413739513542000,4.3515419921875,-2.178199779129028,-0.35842283140644426,-0.8007789145186544
1761413739523555000,4.36155517578125,-2.1174293763458727,-0.04008709571659565,-0.8046629163451492
1761413739533568000,4.371568115234375,-1.8915859002619981,0.15871479031518101,-0.7117215977974236
1761413739543581000,4.381580810546875,-1.4414812488496302,0.20408596391454337,-0.5066917040962725
1761413739553594000,4.391593994140625,-0.9035667965590953,0.20166706620454786,-0.41169674095436926
1761413739563607800,4.40160791015625,-0.45981882069706914,0.18093012925460933,-0.35995910106301304
1761413739573621000,4.41162109375,-0.137215929082036,0.1906011900499463,-0.3256631194358691
1761413739583634000,4.421634033203125,0.0570247865140438,0.18972586852014064,-0.27287865563901137
1761413739593647000,4.431647216796875,0.1618815837830305,0.19202113985046743,-0.26305576528282837
1761413739603660000,4.441659912109375,0.13019172953367233,0.23246464778929948,-0.2293997255270369
1761413739613673000,4.4516728515625,0.06770224787294864,0.33007819593176246,-0.21216641278387977
1761413739623687000,4.46168701171875,0.02364741756916046,0.45268034711927174,-0.20511682306593282
1761413739633699800,4.471699951171875,-0.02326104860007763,0.5838530505143106,-0.16030837964955716
1761413739643713000,4.481713134765625,-0.01102291379570961,0.6958658570177852,-0.09422231653528287
1761413739653726200,4.491726318359375,0.08488952951729298,0.8475194767750799,-0.03690649291910231
1761413739663739000,4.50173876953125,0.24905600936710834,0.974542074753344,0.03845487313857302
1761413739673752000,4.511751953125,0.38615035789608954,1.041089015111327,0.09452639578208327
1761413739683766000,4.52176611328125,0.5366045387357473,1.0822302960559724,0.16601952383797614
1761413739693779000,4.531779052734375,0.7160574350446463,1.1250291349492967,0.22843203127235173
1761413739703792000,4.541792236328125,0.8561170631200075,1.130932075382769,0.3092641386250034
1761413739713805000,4.55180517578125,0.9719453362584114,1.1615556155748665,0.3490663164529949
1761413739723818000,4.56181787109375,1.0098498272389174,1.1592470463715494,0.36442280247360465
1761413739733831000,4.571830810546875,0.9695201549381017,1.1534132256515324,0.3670985244888812
1761413739743844900,4.581844970703125,0.8676204539090394,1.0930847214169799,0.3038629554348998
1761413739753858000,4.591858154296875,0.7253899115353822,1.0550549966216087,0.22896657654047012
1761413739763871000,4.60187109375,0.5684282484978437,1.0436686563409865,0.19099013456860556
1761413739773884200,4.61188427734375,0.4971253457844257,1.0617739296130835,0.20036204802058635
1761413739783896800,4.621896728515625,0.4849684595227241,1.0226035103499889,0.2789723511379212
1761413739793910000,4.631909912109375,0.5152928706377744,1.0265363197542727,0.36072537272777405
1761413739803924000,4.641924072265625,0.541105357286334,1.012857923013717,0.46386042423807083
1761413739813937200,4.651937255859375,0.5366740968406201,0.9847644858211279,0.5289510648405179
1761413739823950000,4.6619501953125,0.5075742590844631,0.9232929490312933,0.5102664573105051
1761413739833963300,4.67196337890625,0.44317631345391273,0.8724360374972224,0.5142227206556126
1761413739843976000,4.681975830078125,0.32397008831501006,0.8092147344306111,0.49386287338975815
1761413739853989000,4.691989013671875,0.18097265322208403,0.7638735175780952,0.4655357735717669
1761413739864003000,4.702003173828125,0.07649521065950393,0.7171934533372522,0.4384122043246403
1761413739874016000,4.71201611328125,-0.005378185907006263,0.6487503239691257,0.409106724461168
1761413739884029200,4.722029296875,-0.0028711715221405028,0.5530120681792497,0.3807061210155487
1761413739894042000,4.7320419921875,0.056218730828166,0.499340391485393,0.3130096087636426
1761413739904055000,4.742054931640625,0.13745441401302813,0.45626507373824715,0.26984971800558266
1761413739914068200,4.752068115234375,0.2384294014126062,0.4030509315535426,0.25089670533034947
1761413739924082000,4.76208203125,0.3327069370001554,0.35023090325295925,0.28946696674320843
1761413739934095000,4.77209521484375,0.4184247340351343,0.32789442215189335,0.2983636090999469
1761413739944108300,4.7821083984375,0.3990495869576931,0.3206935508623719,0.30904921723268924
1761413739954121200,4.792121337890625,0.30127544142603874,0.3095370738148689,0.309656681606546
1761413739964134100,4.802134033203125,0.172783501547575,0.32237960425317286,0.2983074584659189
1761413739974147000,4.81214697265625,0.08187865726351737,0.32610695421323177,0.2498321083061397
1761413739984161000,4.8221611328125,0.06875614084005355,0.28165435676351186,0.2449586205182597
1761413739994174200,4.83217431640625,0.12434300350546836,0.24030761637464165,0.2745377662239596
1761413740004187100,4.842187255859375,0.2324702007472515,0.1594357980661094,0.34649558918215334
1761413740014200300,4.852200439453125,0.36916006012856956,0.08851064262390136,0.3240123200215399
1761413740024213000,4.862212890625,0.4398936385214329,0.0026209961533546445,0.3286836728334427
1761413740034226200,4.87222607421875,0.4830208325862884,-0.053127486814558506,0.3269026711681858
1761413740044240100,4.882240234375,0.4770440962642431,-0.09754106742814182,0.3292017418907955
1761413740054253000,4.892253173828125,0.4550146352857351,-0.1498413096383214,0.3722590125245973
1761413740064266200,4.902266357421875,0.3972971903324127,-0.17950974106267092,0.36508711160123347
1761413740074279200,4.912279052734375,0.3252531138628721,-0.21224501271173357,0.3423309072507545
1761413740084292000,4.9222919921875,0.18211773160398007,-0.23161942913681266,0.37205665835291146
1761413740094305000,4.932304931640625,0.0033598318219184875,-0.30078955760523673,0.3226553889872506
1761413740104319000,4.942319091796875,-0.16146072802245615,-0.3245759452536702,0.2504688170407899
1761413740114332200,4.952332275390625,-0.2515273679167032,-0.37093072306290265,0.22688788883658126
1761413740124345000,4.962344970703125,-0.3225128752440214,-0.4191483721345663,0.21755298292674122
1761413740134358300,4.972358154296875,-0.36973581418991086,-0.4798180910222232,0.2533736899031326
1761413740144371000,4.982370849609375,-0.396916082060337,-0.5698610577799379,0.26714520828723903
1761413740154384100,4.992384033203125,-0.4581213691294193,-0.6956497300490736,0.2427557401791215
1761413740164398000,5.002398193359375,-0.5342763880491257,-0.8104276173517108,0.1541474641333334
1761413740174411000,5.012410888671875,-0.5302344191819429,-0.8033264070443809,0.010837145432643592
1761413740184424200,5.022424072265625,-0.4598860407143831,-0.7809872955948114,-0.16756213190378622
1761413740194437000,5.03243701171875,-0.3025590514957905,-0.7515018195219337,-0.2262537921841256
1761413740204450000,5.042449951171875,-0.21034780078828333,-0.7480218684516847,-0.21654305696552617
1761413740214463200,5.052463134765625,-0.22891280052661894,-0.6129252696111798,-0.08926520558455958
1761413740224476200,5.06247607421875,-0.28663842878639695,-0.3504556519195437,0.030007673316076396
1761413740234490000,5.072489990234375,-0.2956774752885103,-0.16765388357415795,0.15623608870934694
1761413740244503000,5.0825029296875,-0.2502157007962465,-0.0941999403066933,0.3030478213934228
1761413740254516200,5.09251611328125,-0.169702486667037,-0.16176161066517233,0.6166716895978898
1761413740264529200,5.102529052734375,-0.058555064821243286,-0.37875484081730243,0.8667533156856894
1761413740274542000,5.1125419921875,0.1618114411562681,-0.5281492834709585,0.7175229044873267
1761413740284555300,5.12255517578125,0.32041970235705375,-0.5363911882460117,0.462889058455266
1761413740294569000,5.13256884765625,0.2814157257020473,-0.6203923906214535,0.3411743941593915
1761413740304582100,5.14258203125,0.050126843693852424,-0.7622703201651573,0.23318192921318112
1761413740314595300,5.15259521484375,-0.2964046205192804,-0.7317103467285633,0.10026086604716256
1761413740324608000,5.16260791015625,-0.6419207702100277,-0.5496988519780337,-0.11066558401244692
1761413740334621200,5.17262109375,-0.9110469231814146,-0.36123569687008855,-0.2522849813509732
1761413740344634000,5.182634033203125,-0.9975415498077869,-0.16686463289260864,-0.2961529838457703
1761413740354648000,5.19264794921875,-0.8859364473223685,-0.02206979298889637,-0.2539886069310829
1761413740364661200,5.2026611328125,-0.6706301473438739,0.08946312104314565,-0.19740308861713857
1761413740374674200,5.212674072265625,-0.4454962808340788,0.15643340137973427,-0.12803716358197853
1761413740384687000,5.22268701171875,-0.33936230323612687,0.17267872599884868,-0.12761172297783197
1761413740394700000,5.232699951171875,-0.310773337611556,0.12998320134952662,-0.321102533522062
1761413740404713200,5.242713134765625,-0.2551081490129232,0.11747837843298911,-0.5247476583339273
1761413740414727200,5.25272705078125,-0.2673655730396509,0.03787058871090412,-0.6524849804528057
1761413740424740000,5.262739990234375,-0.27438275832533837,-0.0019094868831336497,-0.8235439962953328
1761413740434753300,5.272753173828125,-0.14460019411444663,0.11064195654168725,-0.9068776746727526
1761413740444766000,5.282765869140625,0.06931845089793205,0.2615989723369479,-0.9462680202968418
1761413740454779100,5.292779052734375,0.3063531830817461,0.3479194114401936,-0.9045799191243946
1761413740464792000,5.3027919921875,0.45989188593327995,0.4352626177199185,-0.9158857415147125
1761413740474806000,5.312805908203125,0.549967878177762,0.5559903533376753,-0.9513521916933357
1761413740484819200,5.322819091796875,0.5744692822277545,0.6203514740891755,-0.9475920354422182
1761413740494832000,5.33283203125,0.5121504809588193,0.6367775621026754,-0.9057007398478686
1761413740504845000,5.342844970703125,0.44991175918877124,0.6277839621774852,-0.8227984386250377
1761413740514858200,5.352858154296875,0.3847305542260408,0.6441166728191078,-0.850772414156422
1761413740524871200,5.36287109375,0.35306817250549793,0.6615887627542019,-0.8778346816703677
1761413740534885000,5.372885009765625,0.30146658008396626,0.6225332020424306,-0.8094969123728573
1761413740544898000,5.38289794921875,0.21118015995919703,0.5292160359196365,-0.8269419681705534
1761413740554911200,5.3929111328125,0.16605039390027523,0.4434868407078087,-0.8478602530367672
1761413740564924200,5.402924072265625,0.17580080354213715,0.3580035830810666,-0.9552708995070308
1761413740574937000,5.41293701171875,0.17747195162475107,0.27513006956130265,-0.965243208271265
1761413740584950300,5.4229501953125,0.17722177625596522,0.2347277704156935,-0.9451273258291184
1761413740594964000,5.4329638671875,0.1745078411221504,0.2674552971497178,-0.9114557962432503
1761413740604977200,5.44297705078125,0.14602818109095095,0.32083895068243146,-0.788278329385817
1761413740614990300,5.452990234375,0.04581774832308292,0.35443536920547486,-0.6805544522479177
1761413740625003000,5.4630029296875,-0.07546879022121429,0.39823841670528054,-0.6001860534168779
1761413740635016200,5.47301611328125,-0.2260258469134569,0.43303544318974013,-0.5508880982952192
1761413740645029000,5.483029052734375,-0.3660194240152836,0.4563471990637481,-0.5104122589893639
1761413740655043000,5.49304296875,-0.445258964946866,0.4525264717318117,-0.4584924674641341
1761413740665056300,5.50305615234375,-0.49603053628504273,0.46157618575841186,-0.3832632946850732
1761413740675069200,5.513069091796875,-0.5477554628252983,0.4728754322774708,-0.3527760942237452
1761413740685082000,5.52308203125,-0.4615536816656589,0.48796997942626474,-0.2595239926937967
1761413740695095000,5.533094970703125,-0.27084815445840354,0.45645489722192284,-0.15900591874886302
1761413740705108200,5.543108154296875,-0.03869125744402408,0.34276743550449607,-0.06541263909842819
1761413740715122200,5.5531220703125,0.20701134984195232,0.22239845019653437,-0.0427087859896943
1761413740725135000,5.563135009765625,0.39234628992676734,0.08669920928776263,-0.06498217525929212
1761413740735148300,5.573148193359375,0.5784715036064386,-0.0372210387609899,-0.09112542823217809
1761413740745161000,5.583160888671875,0.7908247989982367,-0.14361395955607295,-0.13768409458305686
1761413740755174100,5.593174072265625,1.0131693270504474,-0.26774317418038845,-0.05569967539012432
1761413740765187000,5.60318701171875,1.16029465572834,-0.39446269755885005,-0.02847761420458555
1761413740775200300,5.6132001953125,1.3055237953960894,-0.4483629223115742,-0.0006680354546755552
1761413740785214200,5.623214111328125,1.3411205939561128,-0.4993070737376809,0.05700820070542395
1761413740795227100,5.63322705078125,1.3150105856657028,-0.5258062274761498,0.05397679712027311
1761413740805240000,5.643239990234375,1.168105621740222,-0.5419875469483435,0.05870660212114453
1761413740815253800,5.653253662109375,1.111019460427761,-0.5473290541067719,0.015210209417715668
1761413740825266700,5.6632666015625,1.0723229422867298,-0.48044659818410873,0.04192008329741657
1761413740835279600,5.673279541015625,1.0116063155174255,-0.4357369572333991,0.055731385702639816
1761413740845293800,5.6832939453125,0.9256026872783899,-0.41379795101732014,0.09171798729784786
1761413740855306800,5.693306640625,0.8134399509102106,-0.3707698334127664,0.0908778101466596
1761413740865319700,5.703319580078125,0.7019324635803699,-0.3694485216811299,0.08097432883493602
1761413740875332600,5.71333251953125,0.5480693510800599,-0.3651125383034348,0.02836480147987604
1761413740885345800,5.723345703125,0.413641591411829,-0.36678134829849,-0.0024875059667974707
1761413740895358500,5.7333583984375,0.3232844441384077,-0.36542058133929967,0.03833294552564621
1761413740905372700,5.74337255859375,0.23270342498123645,-0.3982720267139375,0.08878646389059722
1761413740915385600,5.753385498046875,0.18251462196707724,-0.4277450816966593,0.12949337200596928
1761413740925398500,5.7633984375,0.15671148766875267,-0.4337159727998078,0.2105629779089242
1761413740935411700,5.77341162109375,0.13766367284953593,-0.4663407698117196,0.2985343990895897
1761413740945424600,5.783424560546875,0.08150222516655921,-0.5107770006485283,0.40766310152411456
1761413740955437600,5.7934375,0.0037818566262722013,-0.5719774654120207,0.5527909727744758
1761413740965451800,5.80345166015625,-0.11844108598530292,-0.676920771920681,0.6234587924547493
1761413740975464700,5.813464599609375,-0.20507541334331034,-0.7838207654550671,0.5928205661501735
1761413740985477600,5.8234775390625,-0.3038508448719978,-0.8757951386667787,0.5013645177241415
1761413740995490800,5.83349072265625,-0.39164018748402596,-0.963540496006608,0.4183551759302616
1761413741005503700,5.843503662109375,-0.4448457079708576,-1.0418719821825624,0.2769281319592148
1761413741015516700,5.8535166015625,-0.4195779957234859,-1.0362266697719693,0.1339437024783343
1761413741025530600,5.863530517578125,-0.38422844992280003,-1.025769134774059,0.03417962523847818
1761413741035543800,5.873543701171875,-0.3686702307850122,-0.9903820334419607,-0.05315810114853084
1761413741045556700,5.883556640625,-0.37095103519856926,-0.945662309488654,-0.07171272562332451
1761413741055569700,5.893569580078125,-0.3982382705748081,-0.8526388656154275,-0.09580189561061561
1761413741065582800,5.903582763671875,-0.46514790676534173,-0.7836521308898925,-0.10294921008199452
1761413741075595500,5.913595458984375,-0.5530903941124677,-0.8799468515187502,0.036822321766987444
1761413741085609700,5.923609619140625,-0.5045873522281646,-1.1141561510182916,0.22017975123375652
1761413741095622700,5.93362255859375,-0.26344167759418485,-1.2974690837562084,0.18410181809328496
1761413741105635600,5.943635498046875,-0.07971066557466984,-1.3648295324541628,0.034590178800746794
1761413741115648800,5.953648681640625,-0.06297580387294292,-1.4260118770390748,-0.034709202070534226
1761413741125661700,5.96366162109375,-0.21237258461415767,-1.402292563277483,-0.12624986004009842
1761413741135674600,5.973674560546875,-0.4979769941776991,-1.2780009976983069,-0.2331838289093226
1761413741145687600,5.9836875,-0.9916717809915542,-1.079466165104881,-0.2607623388497159
1761413741155701800,5.99370166015625,-1.5271107830792665,-0.7551548621367663,-0.28481738737169654
1761413741165714700,6.003714599609375,-1.8991256481170653,-0.39325785181373357,-0.31247619600668547
1761413741175727600,6.0137275390625,-2.242406586101651,-0.06289521291740238,-0.33899610027223825
1761413741185740800,6.02374072265625,-2.4031892687320706,0.21477723460309206,-0.32672358827423303
1761413741195753500,6.03375341796875,-2.357768410772085,0.44759522587470707,-0.32670561422612515
1761413741205766700,6.0437666015625,-2.07159292332232,0.6248433786809444,-0.3218243815232068
1761413741215780600,6.053780517578125,-1.6276427028864622,0.6708157330438494,-0.26500193091453983
1761413741225793500,6.06379345703125,-1.100029279857874,0.6189041978903115,-0.20237243799492716
1761413741235806700,6.073806640625,-0.5765507646769285,0.5167364935748279,-0.20822907333495094
1761413741245819600,6.083819580078125,-0.15569208149313926,0.4135121198132634,-0.22329519810685886
1761413741255832600,6.09383251953125,0.10874503687918186,0.3516539217934012,-0.23250636803917585
1761413741265845800,6.103845703125,0.24515841740667818,0.3416078902058303,-0.22566810125065967
1761413741275859700,6.113859619140625,0.31170097385048867,0.37479894279837606,-0.21106363917374982
1761413741285872600,6.12387255859375,0.28040333378911014,0.4077307599328458,-0.16954506761562077
1761413741295885600,6.133885498046875,0.24315993706583974,0.4434814338803291,-0.16303533866172656
1761413741305898800,6.143898681640625,0.24354279890358446,0.49401861194074154,-0.14218032829007132
1761413741315911700,6.15391162109375,0.27306758407354353,0.5177386563546955,-0.0983412230961956
1761413741325924600,6.163924560546875,0.37178865506649017,0.5144298240676521,-0.02724805414332077
1761413741335938800,6.173938720703125,0.4685737895607948,0.5044149182707071,0.025814057551138102
1761413741345951500,6.183951416015625,0.5741343511849641,0.5059931273728608,0.033153405729588116
1761413741355964700,6.193964599609375,0.625996640369296,0.49532764871269463,0.038015349210146814
1761413741365977900,6.203977783203125,0.5974684650212526,0.49329716579839583,0.04055845782170072
1761413741375990500,6.213990478515625,0.5272767384201288,0.5191245577551424,-0.0005442264119163155
1761413741386003700,6.224003662109375,0.38209319145977494,0.5505518155455589,-0.024646895201597362
1761413741396017700,6.234017578125,0.21678221774995327,0.6209010707959532,0.0036806612741202113
1761413741406030600,6.244030517578125,0.06644669485390185,0.7130342878311872,0.026983868515491484
1761413741416043800,6.254043701171875,0.0032177930027246474,0.7709457940518856,0.10016115939919837
1761413741426056700,6.264056640625,-0.024164719441533086,0.7972783590517938,0.14064950199360027
1761413741436069600,6.274069580078125,-0.0008323591709136962,0.826644446528703,0.16801829643975943
1761413741446082600,6.28408251953125,0.039033787271380425,0.7968133718885481,0.19264833183810115
1761413741456096800,6.2940966796875,0.1201537351220846,0.7354243988156318,0.20397769950078798
1761413741466109700,6.304109619140625,0.21087620857656,0.6516093666620553,0.2153792373505421
1761413741476122600,6.31412255859375,0.2550871062248945,0.5739274304360151,0.23363902533091604
1761413741486135800,6.3241357421875,0.2608142517000437,0.5412215310119092,0.24188538708537816
1761413741496148500,6.3341484375,0.29304771130681034,0.531790562582761,0.28112728241579604
1761413741506161700,6.34416162109375,0.2629875040858984,0.5444457537554204,0.32081622739396987
1761413741516176000,6.35417578125,0.23101649480760097,0.5538980572335421,0.3364462696589529
1761413741526188500,6.3641884765625,0.22330840464830398,0.5600158094614743,0.34772593469470736
1761413741536201700,6.37420166015625,0.2799760482877493,0.5650409441471099,0.31841756875440475
1761413741546214700,6.384214599609375,0.33808804551661015,0.5253890249773859,0.3005301394840702
1761413741556227600,6.3942275390625,0.414512529027462,0.48589302702173587,0.23804973617894573
1761413741566240800,6.40424072265625,0.49180385850071906,0.4130785507015884,0.17375011809002608
1761413741576253700,6.414253662109375,0.565667551612854,0.36415947536230087,0.16968159000948072
1761413741586267600,6.424267578125,0.6337275268822908,0.32489144094362854,0.15814327403753994
1761413741596280600,6.434280517578125,0.7037924122333526,0.29452435973063107,0.1687957470856607
1761413741606293800,6.444293701171875,0.7550655033528805,0.26820041642859577,0.146365760748554
1761413741616306700,6.454306640625,0.7678139257669448,0.21923136446774005,0.11087746406430378
1761413741626319600,6.464319580078125,0.7425128957718611,0.25801000793427226,0.1176867696198169
1761413741636332800,6.474332763671875,0.6796054809600114,0.27075214673802256,0.1393984242202714
1761413741646346500,6.484346435546875,0.6363742419987917,0.2260232165649533,0.16888486840752884
1761413741656359700,6.494359619140625,0.6362643518835306,0.266426392493397,0.1506226510080509
1761413741666372900,6.504372802734375,0.6097942781090736,0.27187559781000015,0.12017267728457226
1761413741676385500,6.514385498046875,0.5919178451567888,0.2244051138438284,0.1687040867468342
1761413741686398700,6.524398681640625,0.5988689794689417,0.1948448189690709,0.1638309094862081
1761413741696411600,6.53441162109375,0.6240507669985293,0.1506285144932568,0.12850733837699516
1761413741706425600,6.544425537109375,0.6029916123569011,0.0731100982658565,0.10431689997231587
1761413741716438800,6.554438720703125,0.537642065089941,-0.0007459960617125033,0.06168534393729642
1761413741726451700,6.56445166015625,0.3954553618580103,-0.07029737893268466,0.04243068143436685
1761413741736464600,6.574464599609375,0.16469313407242298,-0.13269567517861725,0.006744396226294338
1761413741746477600,6.5844775390625,-0.1035322706669569,-0.13092632741853594,-0.044061223511956626
1761413741756490800,6.59449072265625,-0.2842933269649744,-0.1045017002210021,-0.0576029699944891
1761413741766504700,6.604504638671875,-0.38052082757651806,-0.05916720537021756,-0.001631966849695891
1761413741776517600,6.614517578125,-0.4564361925214529,-0.06563260199204086,0.10956934060780331
1761413741786530800,6.62453076171875,-0.5573316849440336,-0.10552592870220541,0.1588416680978611
1761413741796543500,6.63454345703125,-0.6186521228253841,-0.12904343628138304,0.18138916160110383
1761413741806556700,6.644556640625,-0.6136480309277772,-0.11241013525798917,0.18557094079777597
1761413741816568800,6.65456884765625,-0.5737526583909988,-0.11587445036768912,0.210086373373121
1761413741826582000,6.66458203125,-0.4852887775182724,-0.15586334640681743,0.09343791555878705
1761413741836595700,6.674595703125,-0.29555355664789673,-0.08347045649960637,0.011412908627139404
1761413741846609000,6.68460888671875,-0.2175041022837162,-0.08694967691749333,-0.05389851685282774
1761413741856622000,6.6946220703125,-0.25805180124938487,-0.08271627713143825,-0.12051628482416271
1761413741866634800,6.704634765625,-0.29377602558135985,-0.04389423291459679,-0.280776532749366
1761413741876648000,6.71464794921875,-0.4068050233900547,-0.03981295495033264,-0.28261395904328673
1761413741886660900,6.724660888671875,-0.5346884759813547,-0.20488500533774495,-0.027294630948116537
1761413741896674800,6.7346748046875,-0.5461228931874037,-0.4871002108544111,0.19050215012226251
1761413741906688000,6.74468798828125,-0.2866062800824642,-0.579153348390758,0.12766517019812018
1761413741916701000,6.754700927734375,0.005782090532779693,-0.6164724406987429,0.026810356845799833
1761413741926713900,6.7647138671875,0.1218622926056385,-0.7059609884440898,0.008120068493671714
1761413741936726800,6.774726806640625,0.12826046921014786,-0.8027721341624856,0.027597274006367658
1761413741946740000,6.784739990234375,0.1349941613793373,-0.8527075469374656,0.003325856487080455
1761413741956754000,6.79475390625,0.05856149456202984,-0.8067384074449538,-0.09365648107975721
1761413741966766800,6.804766845703125,-0.11927987489700316,-0.65036477342844,-0.18525648628743363
1761413741976780000,6.814780029296875,-0.34032208817899223,-0.4319805273093283,-0.2236413629297167
1761413741986792700,6.824792724609375,-0.5642974323034287,-0.21773557295203208,-0.23793675905745476
1761413741996806000,6.834805908203125,-0.7814812165915965,-0.016665303596854208,-0.23826295880451798
1761413742006818800,6.84481884765625,-0.8667103533267975,0.1657835596576333,-0.2929437212093733
1761413742016832800,6.854832763671875,-0.8487059100806713,0.2630138075709343,-0.37231121763586994
1761413742026846000,6.864845947265625,-0.7486392696976661,0.30147753986939785,-0.449174530955404
1761413742036859000,6.87485888671875,-0.6499094308763742,0.2763515741802752,-0.42559495445806533
1761413742046871800,6.884871826171875,-0.5507447077691555,0.29102585009038445,-0.3860166485138237
1761413742056884700,6.894884765625,-0.42675300191938875,0.3319793533779681,-0.3517889828825369
1761413742066898000,6.90489794921875,-0.25640578760802746,0.4036468516200781,-0.3535364476043731
1761413742076910800,6.914910888671875,-0.04781330605447292,0.46698768941313024,-0.3836521844048053
1761413742086924800,6.9249248046875,0.09069149379432201,0.5456871321186423,-0.44957953155972064
1761413742096938000,6.93493798828125,0.15970833139717577,0.6391422454074025,-0.5202477896314114
1761413742106951000,6.944950927734375,0.19093641335368156,0.6822301303751767,-0.6405893024105578
1761413742116963800,6.9549638671875,0.17559505183696747,0.7003225441657006,-0.7714109273456037
1761413742126977000,6.96497705078125,0.15363514896333216,0.6778774881236255,-0.8667617912530898
1761413742136990000,6.974989990234375,0.15023790774047374,0.6792204271651804,-0.911811258617416
1761413742147004000,6.98500390625,0.19277941087186334,0.6528728107266127,-0.9326605699006467
1761413742157017000,6.99501708984375,0.2300608015179634,0.6120097622014582,-0.9508947302494197
1761413742167029800,7.00502978515625,0.2721580680131912,0.5866350824482739,-0.9643919982694089
1761413742177043000,7.01504296875,0.2731464945286512,0.5421798546500504,-0.9598699908003211
1761413742187055900,7.025055908203125,0.25638357577621934,0.519718431995064,-0.9623165802348405
1761413742197069000,7.035069091796875,0.23319500789046285,0.5226293510057032,-0.9496335512071847
1761413742207083000,7.0450830078125,0.25985212866961954,0.5381124590806663,-0.9274119286574423
1761413742217096000,7.055095947265625,0.3184440183699131,0.5281712030418216,-0.870568928451091
1761413742227108900,7.06510888671875,0.3519581654369831,0.5120427828006446,-0.8914921817533671
1761413742237121800,7.075121826171875,0.37235914843082424,0.501962556682527,-0.9333020096093416
1761413742247135000,7.085135009765625,0.2888368156135082,0.4920781453974545,-0.9636324120737612
1761413742257148000,7.09514794921875,0.18376140715777872,0.4775187280386686,-1.05060685810633
1761413742267160800,7.105160888671875,0.07516834596991538,0.5032487971007824,-1.1468759328372775
1761413742277175000,7.115175048828125,-0.026602175721526143,0.5004524443805217,-1.187053044924885
1761413742287187700,7.125187744140625,-0.16425941883027553,0.47985287007465954,-1.1827797515198588
1761413742297201000,7.135200927734375,-0.38227614681124683,0.43682855186238884,-1.108177149673924
1761413742307213800,7.1452138671875,-0.5903863978058099,0.4072967524297535,-1.119378415711224
1761413742317227000,7.15522705078125,-0.7479536255210638,0.4111459752038121,-1.0954336956959216
1761413742327240000,7.165239990234375,-0.7904080348908901,0.4367508104510605,-0.9863800312589853
1761413742337254000,7.17525390625,-0.7446504923224448,0.4047952910028398,-0.9281252645585686
1761413742347266800,7.185266845703125,-0.5937205106645822,0.3447754143260419,-0.8840827092144637
1761413742357279700,7.19527978515625,-0.3536474336981773,0.23872882275059817,-0.7853732555940747
1761413742367293000,7.20529296875,-0.06165127727091312,0.04722629994675517,-0.7399565623525529
1761413742377306000,7.21530615234375,0.1872662004083395,-0.16457535291165112,-0.7555798826158047
1761413742387318800,7.22531884765625,0.44469373227953907,-0.36072263278141614,-0.8110460415109991
1761413742397333000,7.2353330078125,0.7023772847384214,-0.5156707640394568,-0.8137259282447398
1761413742407345700,7.245345703125,0.9060492610245943,-0.6916805341571569,-0.7775118015039711
1761413742417358800,7.25535888671875,1.0586007064044476,-0.8196805988654494,-0.7192661679580807
1761413742427372000,7.2653720703125,1.1692816797822714,-0.8825479739278554,-0.6700210755348205
1761413742437385000,7.275385009765625,1.2672668377161025,-0.966445131406933,-0.6127054893806576
1761413742447398000,7.28539794921875,1.3598621193051337,-1.0026422339476644,-0.6033893064375967
1761413742457410800,7.295410888671875,1.400776313495636,-1.0159852612540126,-0.5583760063651949
1761413742467424800,7.3054248046875,1.3852210169672965,-1.017573407228291,-0.5341863716781139
1761413742477438000,7.31543798828125,1.3757207826942204,-1.0284615887284279,-0.46369953458793456
1761413742487451000,7.325450927734375,1.3440806128054856,-1.004242216490209,-0.43687399843931196
1761413742497464000,7.335464111328125,1.2814806565076111,-0.9898903044022619,-0.37228191847614944
1761413742507476700,7.345476806640625,1.181080254125595,-0.9443762152008712,-0.338909371836856
1761413742517490000,7.355489990234375,1.123119648066163,-0.8999421763211488,-0.3002214753936976
1761413742527504000,7.36550390625,1.0755834053874016,-0.8835571509703993,-0.22285781133659183
1761413742537516800,7.375516845703125,1.0032961678117513,-0.8856592378161847,-0.1562411667432636
1761413742547530000,7.385530029296875,0.8581511992961168,-0.8743724123872816,-0.070899144218117
1761413742557543000,7.39554296875,0.6184311735510826,-0.8564844351276755,-0.0011159984178841114
1761413742567555800,7.405555908203125,0.30226211437582967,-0.8053742794848978,0.05116787717938423
1761413742577568800,7.41556884765625,-0.006371873119473457,-0.7481418415695429,0.08784647962674498
1761413742587582700,7.425582763671875,-0.32741175320148463,-0.6433940576329827,0.16191088294275105
1761413742597596000,7.435595947265625,-0.6263631355941295,-0.5629144535124302,0.22263905401937661
1761413742607608800,7.44560888671875,-0.8915355825036764,-0.5163637147396802,0.19901165632493792
1761413742617622000,7.4556220703125,-1.154763325086236,-0.47635377591252326,0.15083207424134015
1761413742627634700,7.465634765625,-1.309045539781451,-0.43940980052724476,0.11587503488957882
1761413742637648000,7.47564794921875,-1.410651226300001,-0.410201533960551,0.06436338577382267
1761413742647661000,7.4856611328125,-1.42094816390872,-0.42236835709437726,-0.004791691255941987
1761413742657674800,7.4956748046875,-1.46608085257709,-0.43975481457263227,-0.008869754349812865
1761413742667688000,7.50568798828125,-1.5630103639781474,-0.5858633674234152,0.2524097037091851
1761413742677701000,7.515701171875,-1.4941507627636192,-0.774035284499824,0.5875042664982378
1761413742687713800,7.5257138671875,-1.1675538330763577,-0.7391770293474197,0.4617594333708286
1761413742697727000,7.53572705078125,-0.8804816890478133,-0.6738355192564427,0.13431260885596275
1761413742707740000,7.545739990234375,-0.8530319565862416,-0.7207469080351293,-0.14098171135634183
1761413742717753900,7.55575390625,-1.0397346778929233,-0.638991000368446,-0.4298964145116508
1761413742727767000,7.56576708984375,-1.2604729397922754,-0.5119391762956976,-0.6447660766385496
1761413742737780000,7.575780029296875,-1.5488748711198568,-0.411335506426543,-0.7558600877966731
1761413742747793000,7.58579296875,-1.78751470041275,-0.20406389821320772,-0.8341834637314081
1761413742757805800,7.595805908203125,-1.870145637348294,0.05438669309541583,-0.8241643201507628
1761413742767819000,7.605819091796875,-1.8011188628733157,0.28301921537593006,-0.7533123030100017
1761413742777833000,7.6158330078125,-1.578287428086996,0.45337563590705393,-0.6289330591473729
1761413742787846000,7.625845947265625,-1.2939806571185588,0.5952722701512276,-0.4790059343891218
1761413742797859000,7.635859130859375,-0.8845008615612984,0.691445264096558,-0.4152423776719719
1761413742807871700,7.645871826171875,-0.46296004133224483,0.7055597141668201,-0.42189504049420357
1761413742817885700,7.6558857421875,-0.14051789323687552,0.7046637882404029,-0.385524261886999
1761413742827898600,7.665898681640625,0.10147592265903949,0.6990063470005988,-0.3704253673566505
1761413742837911600,7.67591162109375,0.27097382666468617,0.7058522673726081,-0.42508751639258113
1761413742847925800,7.68592578125,0.41084173156023024,0.7800026684716344,-0.4804289894621819
1761413742857938400,7.6959384765625,0.4695195459783077,0.8769982308462262,-0.5117545404437929
1761413742867951600,7.70595166015625,0.42962884961664677,0.9699347270883619,-0.4837032253598794
1761413742877964800,7.71596484375,0.43226387429535384,1.0914442607335746,-0.423234362806566
1761413742887977700,7.725977783203125,0.5129471842944622,1.2454955892823636,-0.3331378757633269
1761413742897990700,7.73599072265625,0.6401251189649104,1.320573772750795,-0.2201829661041498
1761413742908004600,7.746004638671875,0.7834493017941713,1.3302946640372275,-0.1097390163525939
1761413742918017500,7.756017578125,0.9056862729310989,1.3086071483641861,-0.04899031394459307
1761413742928030700,7.76603076171875,0.9083885176271199,1.2881582345753908,-0.0025578677892684936
1761413742938043600,7.776043701171875,0.7827408612638711,1.2030945175349712,0.040580578321963545
1761413742948056600,7.786056640625,0.5178104064166545,1.162095713800937,0.05129033451527357
1761413742958069500,7.796069580078125,0.21527648936212063,1.1489521545894443,0.061586541471630334
1761413742968083700,7.806083740234375,-0.08231587963700294,1.1377725889272987,0.03931859556213021
1761413742978096600,7.8160966796875,-0.300256619772315,1.0771090075194836,0.0772058431468904
1761413742988109600,7.826109619140625,-0.49944998933970924,1.02604254488796,0.16105685992930083
1761413742998122800,7.836122802734375,-0.6504992134630679,1.0034018201433121,0.19138777385037392
1761413743008135700,7.8461357421875,-0.6208288823425769,1.0309876000747085,0.15486370437759905
1761413743018148600,7.856148681640625,-0.5025619838804006,1.025744877115637,0.16671313212532549
1761413743028161500,7.86616162109375,-0.3699181850194931,1.004572179096937,0.1684239546312019
1761413743038175500,7.876175537109375,-0.25723697773516174,0.998219156808406,0.138289257401973
1761413743048188700,7.886188720703125,-0.1402799928277731,0.9532800910159945,0.12697916069533674
1761413743058201600,7.89620166015625,-0.10338789376020431,0.9023680882938205,0.09750522892978042
1761413743068214500,7.906214599609375,-0.10671849948763847,0.8423211774796246,0.018228242064639924
1761413743078227500,7.9162275390625,-0.09562661210894584,0.7982512957371771,-0.027736002057045697
1761413743088240600,7.92624072265625,-0.11990823592841625,0.7140899343639612,-0.06467380342986434
1761413743098254600,7.936254638671875,-0.10071019898355006,0.6517891071431339,-0.11048113995678722
1761413743108267500,7.946267578125,-0.03642974225282669,0.5770487773269415,-0.13963091780189424
1761413743118280700,7.95628076171875,0.08656301568746566,0.5299726995058357,-0.12847451381962746
1761413743128293600,7.966293701171875,0.18600421764850616,0.47862961189001796,-0.1143114023020491
1761413743138306600,7.976306640625,0.2349444819062948,0.41949996205121276,-0.1349421389311552
1761413743148319700,7.98631982421875,0.22759178105592726,0.3641334641382098,-0.14601119342353194
1761413743158332700,7.996332763671875,0.22255612497627733,0.34185981914028524,-0.19098507480099797
1761413743168346600,8.0063466796875,0.24014321959316728,0.29680969418883324,-0.19899360921159384
1761413743178359800,8.01635986328125,0.17727321418225764,0.28783275313749906,-0.24179979116115718
1761413743188372700,8.026372802734375,0.11479366939365863,0.26751769486144183,-0.2759528937188908
1761413743198385700,8.0363857421875,0.11041910757124423,0.25810820761173964,-0.31496852427907285
1761413743208398600,8.046398681640625,0.09240648101866245,0.26170301723331213,-0.3575789279282093
1761413743218411800,8.056411865234375,0.1119020396053791,0.2455303194589913,-0.3807831317745149
1761413743228425700,8.06642578125,0.1397474933862686,0.23134514224007724,-0.3645998395409435
1761413743238438700,8.076438720703125,0.1366203012764454,0.24526100099831818,-0.36708544581159946
1761413743248451600,8.08645166015625,0.11387012480795383,0.2512140641838312,-0.3613050357792526
1761413743258464500,8.096464599609375,0.08043255010843277,0.22317118813470005,-0.3565760344959795
1761413743268477700,8.106477783203125,0.05846154131889343,0.22007117629274725,-0.3642109132885933
1761413743278490600,8.11649072265625,0.07278583474755286,0.2106371391236782,-0.3903550430443138
1761413743288503600,8.126503662109375,0.0709369920104742,0.12030702598765491,-0.48041174606643616
1761413743298517800,8.136517822265626,0.081398180270195,0.07786971388310193,-0.5685117255302146
1761413743308530700,8.14653076171875,0.053148237341642375,0.07466653392761945,-0.6669917908415198
1761413743318543600,8.156543701171875,-0.021999650362133978,0.07752411531582475,-0.7881690237924456
1761413743328556500,8.166556640625,-0.0695469989567995,0.1177935818620026,-0.8286845740541815
1761413743338569700,8.17656982421875,-0.21337854678630827,0.16473843451887368,-0.8009882464203983
1761413743348582700,8.186582763671876,-0.36246553092598915,0.2144379927113652,-0.8069092339672148
1761413743358596600,8.1965966796875,-0.41491058843433853,0.28748379356935616,-0.8140173854719847
1761413743368609800,8.20660986328125,-0.3530664189398289,0.3376261270932853,-0.7853758859425782
1761413743378622500,8.21662255859375,-0.2954682164520025,0.35678397815823554,-0.729864061274752
1761413743388635600,8.2266357421875,-0.22420272313952444,0.3692183661870658,-0.6747387517064809
1761413743398648800,8.23664892578125,-0.14912263997495173,0.3878163914121687,-0.6880852861441672
1761413743408661500,8.24666162109375,-0.10125906503796576,0.3965498790964484,-0.6890097075127065
1761413743418674700,8.2566748046875,-0.12669979576468468,0.453054733389616,-0.6958259633988142
1761413743428688600,8.266688720703126,-0.11412556087374687,0.5297467817954719,-0.7007189961373805
1761413743438701600,8.27670166015625,-0.11831658282279968,0.6440935842044652,-0.6562581423159688
1761413743448714800,8.28671484375,-0.05011339969038963,0.7304236679188907,-0.5970229862760752
1761413743458727700,8.296727783203124,0.006841244196891784,0.7881903588414192,-0.45738319104798136
1761413743468740600,8.30674072265625,0.08767126919031143,0.7378212308242916,-0.22119502922352402
1761413743478753500,8.31675341796875,0.3004465893864631,0.5677599938474596,-0.030287074779346584
1761413743488767700,8.326767822265625,0.5272568646758794,0.3834934136465192,-0.021707791276089846
1761413743498780700,8.33678076171875,0.6810679547280073,0.28938100549280643,-0.10896668027322738
1761413743508793600,8.346793701171874,0.669458765476942,0.23684593161344528,-0.29913890432137996
1761413743518806800,8.356806884765625,0.5575508806526661,0.30539018326848744,-0.5131818698331714
1761413743528819500,8.3668193359375,0.2857616459518671,0.4213467589616775,-0.6099510030407458
1761413743538832600,8.37683251953125,-0.001973345899581909,0.5627592629507183,-0.5647074378764256
1761413743548846800,8.386846923828125,-0.17536708829998968,0.7287786771908402,-0.4778339680003002
1761413743558859500,8.396859619140624,-0.17894202417731284,0.9362178970560431,-0.4178845262112096
1761413743568872700,8.406872802734375,-0.08110475028157234,1.0864308164857328,-0.32231256689894944
1761413743578885600,8.4168857421875,-0.03196691762506962,1.131755520594865,-0.25864768478330225
1761413743588898600,8.426898681640624,0.01581073259413242,1.1687775296524165,-0.2695345876418054
1761413743598911500,8.436911376953125,0.011608604729175567,1.1845879699856041,-0.33394385838396845
1761413743608924700,8.446924560546876,-0.039112113204598425,1.1395407676436007,-0.4197567132912576
1761413743618938600,8.456938720703125,-0.10326572868525981,1.1238919476129114,-0.4991323382252827
1761413743628951600,8.46695166015625,-0.15419219832420347,1.08234661591202,-0.5486181075366213
1761413743638964700,8.47696484375,-0.12247896319925784,1.1097338045313954,-0.5544968268442899
1761413743648977400,8.486977294921875,-0.06849485955536365,1.143978019438684,-0.5474486984310671
1761413743658990600,8.496990478515626,0.019634674796462057,1.1628298732943831,-0.550842615185678
1761413743669003800,8.507003662109375,0.08905833963453769,1.1596402834728359,-0.5450112786836921
1761413743679017500,8.517017578125,0.12459785504937171,1.102065754121542,-0.5518167939800769
1761413743689030700,8.52703076171875,0.08108779914677143,1.0483344561949373,-0.5696392317228018
1761413743699043800,8.5370439453125,0.02941138792335987,0.9792610660992562,-0.5632681623209268
1761413743709056500,8.547056396484376,0.015977321332693098,0.9277442293517291,-0.5871431781008839
1761413743719069700,8.557069580078124,0.05281505986452102,0.8838299765624106,-0.6573955488480627
1761413743729082600,8.56708251953125,0.07579144630432129,0.8110140389375388,-0.6830255916018039
1761413743739095800,8.577095703125,0.04274725483655929,0.775820122089982,-0.6971632033519446
1761413743749109800,8.58710986328125,-0.04543605552911758,0.7441271991007029,-0.7008997595317661
1761413743759122700,8.597122802734376,-0.13556699283123017,0.7184298632644116,-0.8110887116089462
1761413743769135600,8.607135498046874,-0.231271930873394,0.7221450843952596,-0.8173316245865077
1761413743779148500,8.6171484375,-0.28735271453559397,0.7383237735189497,-0.8032802298150956
1761413743789161700,8.62716162109375,-0.2922854947626591,0.7981063343085348,-0.84638623496145
1761413743799174700,8.637174560546875,-0.36050972068309783,0.8481547059386968,-0.8821978453159331
1761413743809188600,8.647188720703125,-0.43329964708387847,0.8444977908663451,-0.8069941357716918
1761413743819201500,8.657201416015624,-0.4482353504091501,0.8184935810379683,-0.7154463174089789
1761413743829214500,8.66721435546875,-0.41172143700420855,0.7903704793594777,-0.5954956671109423
1761413743839227400,8.677227294921876,-0.45959319524765013,0.6996114732868969,-0.5228744118079542
1761413743849240600,8.687240478515625,-0.7172071896016597,0.5327991551034152,-0.593691649896279
1761413743859253800,8.697253662109375,-0.9789058229207992,0.5106840616680681,-0.7680259610824286
1761413743869266400,8.707266357421876,-1.0729220772236585,0.5524076725453138,-0.992213778913766
1761413743879280600,8.71728076171875,-1.0106091211736201,0.6043712301470339,-1.0862409930020571
1761413743889293300,8.727293212890626,-0.8364461479663848,0.665743836607039,-0.9747599552877246
