time,seconds_elapsed,z,y,x
1761413840526328000,0.079328125,0.07274374917149544,-0.4569829396840185,-0.14230735220322385
1761413840536341000,0.089341064453125,0.1432768365561962,-0.45332609767690296,-0.0980693382191006
1761413840546354200,0.099354248046875,0.16492109760940074,-0.4125174827527255,-0.039677295639575456
1761413840556366800,0.109366943359375,0.18820903421640395,-0.3831559253204614,0.022535469705308786
1761413840566380000,0.119380126953125,0.19734920300543307,-0.4019000079527497,0.05813641928406432
1761413840576392000,0.129391845703125,0.21775486217439174,-0.4147058596424758,0.08339656014633365
1761413840586405000,0.139405029296875,0.19616554617881773,-0.42164186945073306,0.058392010613484306
1761413840596417800,0.149417724609375,0.18484160360991952,-0.45392457502670586,0.0035951167238934428
1761413840606431000,0.159430908203125,0.10989596047997474,-0.4907477005112916,-0.03919881880709435
1761413840616444000,0.16944384765625,0.008095043650269508,-0.5535119805254042,-0.10256616558115929
1761413840626457000,0.17945703125,-0.010882044020295143,-0.5339406532887369,-0.14316375897000544
1761413840636469000,0.189468994140625,0.017121230670809746,-0.5178220968544482,-0.11082876608436927
1761413840646482000,0.19948193359375,0.04652326624393463,-0.5197250809315592,-0.024837218725483397
1761413840656495000,0.2094951171875,0.0858072288841009,-0.4847180649582296,0.021771389997634102
1761413840666508000,0.219508056640625,0.11946283024847507,-0.46489144778624175,0.0616472860823851
1761413840676521000,0.22952099609375,0.1497463248312473,-0.43493638144023716,0.09633370093237609
1761413840686532900,0.239532958984375,0.14372867197692393,-0.413026089861989,0.11994032983342184
1761413840696546000,0.249546142578125,0.1168997017621994,-0.36917796111144124,0.14963206906812265
1761413840706559000,0.25955908203125,0.0986608652383089,-0.3871992824271321,0.15213778654504567
1761413840716572200,0.269572265625,0.04187281008958816,-0.36275866865366696,0.13705973387332632
1761413840726584800,0.279584716796875,-0.01473813492655754,-0.34249797091335055,0.058828109608963126
1761413840736597000,0.289596923828125,-0.07600538131594657,-0.33947628500461574,0.019909272220451385
1761413840746610000,0.29960986328125,-0.1136269637018442,-0.32267990237399935,-0.021207376606436446
1761413840756623000,0.309623046875,-0.10947627376317977,-0.29866379762291906,-0.04330640938954893
1761413840766635800,0.3196357421875,-0.07100362750589848,-0.25532887909151614,-0.046353832527738996
1761413840776649000,0.32964892578125,-0.07020750869214534,-0.21597119362801312,0.014543671800382435
1761413840786660900,0.339660888671875,-0.05111585473120212,-0.17525887868516146,0.06191382806408219
1761413840796674000,0.349674072265625,-0.007378419813513755,-0.11695581586360931,0.09340217752512543
1761413840806687000,0.35968701171875,0.08977262538373469,-0.11631824861243366,0.23090094213653353
1761413840816700000,0.369699951171875,0.20570435889661312,-0.18486608046405018,0.34824754741601643
1761413840826713000,0.379713134765625,0.3099637747943401,-0.23124862306304275,0.41730113683268427
1761413840836726000,0.38972607421875,0.3457745083659887,-0.2729622240029275,0.4074041583269834
1761413840846738000,0.399738037109375,0.3405038744866848,-0.3109912181459367,0.38928072834368793
1761413840856750800,0.409750732421875,0.25254443600475784,-0.3612090280588716,0.33265710650905966
1761413840866764000,0.419763916015625,0.146636083856225,-0.3741485160656273,0.3367303107647225
1761413840876777000,0.42977685546875,0.06853986774086952,-0.43592605006471274,0.4111957691622898
1761413840886790100,0.4397900390625,0.09446107546091079,-0.4790918956395238,0.48223033979572355
1761413840896801800,0.4498017578125,0.18811784880161284,-0.5220797542989254,0.4984802675247192
1761413840906814700,0.459814697265625,0.26771277904212476,-0.569410902859643,0.4553845280440524
1761413840916827600,0.46982763671875,0.29736966615915295,-0.610828589592874,0.4342522351009771
1761413840926840800,0.4798408203125,0.27423545880913736,-0.6595155366767197,0.4138416440285742
1761413840936853800,0.489853759765625,0.27138006937801834,-0.7114691574063151,0.3797442902460694
1761413840946866000,0.499865966796875,0.2175117010682821,-0.7139317481275648,0.33019053373243656
1761413840956878600,0.509878662109375,0.09081716600060462,-0.7078196219228208,0.2596763337112963
1761413840966891800,0.519891845703125,0.03857786019742489,-0.7573151089105755,0.3012510011045262
1761413840976905000,0.529905029296875,-0.006444353833794593,-0.7606144427169114,0.3501711724223569
1761413840986917600,0.539917724609375,-0.009080547556281088,-0.7396727769751101,0.27481271070782093
1761413840996929800,0.5499296875,0.061842415928840634,-0.7588902492728083,0.2856242650414817
1761413841006942700,0.559942626953125,0.1573328344374895,-0.8141439344611019,0.3339895241566002
1761413841016956000,0.569955810546875,0.3296820362210274,-0.8706906551346182,0.38704288628902284
1761413841026968800,0.57996875,0.5382645809024572,-0.9198536952976137,0.4048959748983383
1761413841036981800,0.589981689453125,0.6918401086330414,-0.9707553227562457,0.443076615939103
1761413841046994700,0.59999462890625,0.8376771510660648,-1.0736156124457716,0.5024153054187074
1761413841057006800,0.6100068359375,0.8863134639412165,-1.1117155529331415,0.4985284905806184
1761413841067019800,0.620019775390625,0.9029775984942913,-1.1965698650065808,0.4813855230020359
1761413841077032700,0.63003271484375,0.8675561565011739,-1.289989249394834,0.5272011159006506
1761413841087045600,0.640045654296875,0.7918301766484975,-1.2851236891850828,0.4310173448329791
1761413841097058800,0.650058837890625,0.704086426743865,-1.2481228690460324,0.3423105951150879
1761413841107070700,0.66007080078125,0.5821762033432721,-1.2849603153169153,0.29534426127877084
1761413841117084000,0.670083984375,0.3847983587652445,-1.322175362728536,0.25567223090277985
1761413841127096600,0.6800966796875,0.22206804919838904,-1.2767092043220996,0.24186306565571575
1761413841137109800,0.69010986328125,0.08094751389324664,-1.2352227632015942,0.22622144255079327
1761413841147123000,0.700123046875,-0.06759411132335662,-1.2156488786816597,0.26424194286009295
1761413841157134800,0.710134765625,-0.17164251481890677,-1.173265050330013,0.33449736408088354
1761413841167147800,0.720147705078125,-0.23149755632281302,-1.1403200814530252,0.4057735979830846
1761413841177160700,0.73016064453125,-0.29520635064542294,-1.1236102080620824,0.4628557407075539
1761413841187174000,0.740173828125,-0.3664999010086059,-1.1035434985239059,0.520137789918296
1761413841197186800,0.750186767578125,-0.4007768491417169,-1.0764861994460224,0.5102139964709058
1761413841207199000,0.760198974609375,-0.4502741627603769,-1.066349493900314,0.503605647714436
1761413841217211600,0.770211669921875,-0.4934007723033428,-1.0515594095908105,0.4968841574396938
1761413841227224800,0.780224853515625,-0.5321025511413813,-1.0476209741633384,0.4665915662350133
1761413841237237800,0.79023779296875,-0.6359668302416801,-0.9994394923835992,0.40040041704475876
1761413841247250700,0.800250732421875,-0.7582201679915189,-0.9388006800908595,0.35054281874634324
1761413841257262600,0.8102626953125,-0.851858236631751,-0.8582965260509401,0.2987375569788739
1761413841267275800,0.82027587890625,-0.9050894760817288,-0.7874871790081263,0.28840735642137005
1761413841277288700,0.830288818359375,-0.9059516458690166,-0.699529347961396,0.27292609324362127
1761413841287302000,0.840302001953125,-0.9113952982276677,-0.6082071550481021,0.2693827946135774
1761413841297314800,0.850314697265625,-0.8755483242988585,-0.5746941039595752,0.31374723885580896
1761413841307327700,0.86032763671875,-0.835276519665122,-0.6520303685531019,0.43429194605685767
1761413841317339600,0.870339599609375,-0.686655983993411,-0.7861910017177463,0.5965994636343792
1761413841327352800,0.880352783203125,-0.45637774033248424,-0.8395802082084118,0.51653070533704
1761413841337365800,0.89036572265625,-0.25341771170794963,-0.8678371653996407,0.223886149737332
1761413841347378700,0.900378662109375,-0.06321721141338348,-0.8915474190719426,-0.0064409471671562635
1761413841357392000,0.910391845703125,0.06153846454620361,-0.9636964902859181,-0.19562632473558186
1761413841367403800,0.92040380859375,0.08373509878516197,-1.0057353045921773,-0.39950865583680567
1761413841377417000,0.9304169921875,-0.002625087806582451,-0.9646564213592559,-0.5974328091859817
1761413841387429600,0.9404296875,-0.11947802781760691,-0.8192659536499529,-0.7343046010054648
1761413841397442800,0.95044287109375,-0.23670798444747923,-0.6363475001223385,-0.7167437368083744
1761413841407455700,0.960455810546875,-0.39716450386345387,-0.40188685621023174,-0.5677444309521467
1761413841417468000,0.970468017578125,-0.4240022419065237,-0.09883695245757698,-0.422617801810801
1761413841427480600,0.98048046875,-0.3127531132519245,0.15711246968507767,-0.24156718798168003
1761413841437493800,0.99049365234375,-0.15546119534671304,0.3320703195970505,-0.08548057247931137
1761413841447506700,1.000506591796875,-0.02559855163693428,0.45981166030392046,-0.024778905817121267
1761413841457519900,1.010519775390625,0.044271687924861906,0.5586670252010226,-0.0866010096102953
1761413841467531800,1.02053173828125,0.11274608921408652,0.638875922621414,-0.12130210143961012
1761413841477544700,1.030544677734375,0.17038929988741874,0.6754347711466252,-0.11128259253278373
1761413841487558000,1.040557861328125,0.18973872800171374,0.7053139227122068,-0.0765088921249844
1761413841497570800,1.05057080078125,0.19967092395126818,0.7783545359384269,-0.1331415923152119
1761413841507583700,1.060583740234375,0.3152817549467087,0.8758899773433804,-0.14749039913062006
1761413841517595600,1.070595703125,0.38599370602965355,0.880363031104207,-0.09280001038089394
1761413841527608800,1.08060888671875,0.45075113262236116,0.8383348112571984,-0.05387066986467689
1761413841537621800,1.090621826171875,0.6103630179077386,0.8601262256961315,-0.05310596910249442
1761413841547635000,1.100635009765625,0.7074176169931888,0.7706675616323947,-0.021958441568911073
1761413841557647600,1.110647705078125,0.7445394331634044,0.6753846483945846,0.00992846962250769
1761413841567660800,1.120660888671875,0.6610504180938005,0.6315051746577024,-0.029523506528325378
1761413841577672700,1.130672607421875,0.5717769744038581,0.6140427293337881,-0.15990074869673698
1761413841587686000,1.140685791015625,0.46929918122589587,0.5831979476064443,-0.27190588335040955
1761413841597698800,1.15069873046875,0.3637257601201534,0.5619060071222484,-0.41956999508012083
1761413841607711700,1.160711669921875,0.31404549115002156,0.5348346795190125,-0.5761935487370937
1761413841617724700,1.170724609375,0.28686113162636756,0.507308740016073,-0.7072009055025875
1761413841627736800,1.18073681640625,0.1765390546888113,0.49284306535534556,-0.8195450628522783
1761413841637749800,1.190749755859375,0.07321662738025188,0.4701489299230277,-0.8790498296137899
1761413841647762700,1.2007626953125,-0.07565875983536242,0.5154508376784622,-0.8757628438323736
1761413841657775900,1.21077587890625,-0.2195768169045448,0.5684595934841782,-0.7702937598839402
1761413841667788800,1.220788818359375,-0.3352829249680042,0.6562459404215216,-0.6222760854762047
1761413841677800700,1.23080078125,-0.44563539704382416,0.741881758261472,-0.4217111352946609
1761413841687813600,1.240813720703125,-0.5259902057409286,0.759231829252094,-0.23783985628793014
1761413841697826800,1.250826904296875,-0.538776037555933,0.7411901958007365,-0.06291214578589424
1761413841707839700,1.26083984375,-0.46795594992339606,0.677543579994142,0.05749817617945373
1761413841717853000,1.27085302734375,-0.2936684735536575,0.5685369695693254,0.17265881572198122
1761413841727864800,1.28086474609375,-0.10846388185024261,0.3912666779965162,0.22318949097637086
1761413841737877800,1.290877685546875,0.08088906170427798,0.20545096865743398,0.2141840179502964
1761413841747890700,1.300890625,0.2697457461744547,-0.0026589170109480617,0.18331494203191248
1761413841757904000,1.31090380859375,0.45087212865352627,-0.1998256761215627,0.13836988489013163
1761413841767916800,1.320916748046875,0.5847761567085981,-0.3576419832270592,0.09313545288033782
1761413841777928700,1.3309287109375,0.7024521035403013,-0.4919398329053074,0.07272504447102546
1761413841787941600,1.340941650390625,0.7876192809551954,-0.5925724366080015,0.061402051750198
1761413841797954800,1.350954833984375,0.8338537933856248,-0.6735464001167565,0.04080192945506424
1761413841807967700,1.3609677734375,0.878270442739129,-0.7621639371812343,0.05502659843415022
1761413841817980700,1.370980712890625,0.8922574670374392,-0.8212855498440563,0.044444962132535876
1761413841827992600,1.38099267578125,0.8519868314474821,-0.8776230847463011,0.022358912128582594
1761413841838005800,1.391005859375,0.8261123854786158,-0.9120033471234142,-0.0058976797364652155
1761413841848019000,1.40101904296875,0.7442068402081727,-0.9129431121915579,-0.0322955650575459
1761413841858031900,1.411031982421875,0.6216162333279848,-0.8745565367825329,-0.04899234150489792
1761413841868044800,1.421044921875,0.49987844388484953,-0.8654954245790839,-0.09376279099844395
1761413841878056700,1.431056640625,0.39739071383476254,-0.823099029006809,-0.13634069888377562
1761413841888070000,1.44106982421875,0.31551673274636266,-0.7840835080444812,-0.15627737056780605
1761413841898083300,1.451083251953125,0.2517056470930576,-0.7338143332704902,-0.18234067190596834
1761413841908096300,1.46109619140625,0.19968495247662066,-0.6860885593689978,-0.19061742879869414
1761413841918109400,1.471109375,0.18072715402841566,-0.6504046670474112,-0.22007545060906558
1761413841928121300,1.481121337890625,0.15146189657747744,-0.609610701703094,-0.23744691144758834
1761413841938134500,1.491134521484375,0.11008125391900539,-0.5829045541504397,-0.20086652694400398
1761413841948147200,1.501147216796875,0.0646492900431156,-0.5803119803739711,-0.1579249916443601
1761413841958160400,1.511160400390625,0.03587561550140381,-0.5835439845651388,-0.0823017232474871
1761413841968173300,1.52117333984375,0.011688684228062629,-0.6108574138285592,-0.015545834580250084
1761413841978185500,1.531185546875,-0.0468207878857851,-0.6614926089033484,0.0421387127504684
1761413841988198400,1.541198486328125,-0.13513093950152397,-0.6889929755736142,0.06335890317270532
1761413841998211300,1.55121142578125,-0.22476620224118232,-0.730931836636737,0.05351109757097438
1761413842008224300,1.561224365234375,-0.3113414928883314,-0.7209317630827426,0.027462043953873215
1761413842018237400,1.571237548828125,-0.41024435018897054,-0.7014883730746805,-0.01459089020928368
1761413842028249300,1.581249267578125,-0.49214697284996506,-0.6526278960548341,-0.061125993021484464
1761413842038262300,1.59126220703125,-0.5888385838419199,-0.5873438152395188,-0.12519830516055225
1761413842048275500,1.601275390625,-0.6885270385622978,-0.5243130663089454,-0.2200001203505322
1761413842058288400,1.611288330078125,-0.7528565951317548,-0.4372894473724067,-0.23530883997296914
1761413842068301300,1.62130126953125,-0.8451374039441346,-0.43538931283950805,-0.11474087062734178
1761413842078314200,1.631314208984375,-0.8979857815563678,-0.5961274256758391,0.23813741446239872
1761413842088326400,1.641326416015625,-0.6964139924198388,-0.7541073989104479,0.5440116731870919
1761413842098339300,1.65133935546875,-0.26070903775990006,-0.7321615245621651,0.5736542395178228
1761413842108352500,1.6613525390625,0.022782909694314003,-0.733909610338509,0.49376909415908155
1761413842118365200,1.671365234375,0.056951136755943293,-0.7920397277459502,0.35509109316784887
1761413842128378400,1.68137841796875,-0.05801613563895225,-0.772635500704497,0.1493085636016447
1761413842138390300,1.691390380859375,-0.3899006503403187,-0.7124990849759429,-0.015764226571284234
1761413842148403500,1.701403564453125,-0.783882432514429,-0.5783105408910661,-0.19536314375475047
1761413842158416400,1.71141650390625,-1.09321024749279,-0.30519528175089505,-0.3908929493132978
1761413842168429300,1.72142919921875,-1.2588649200737476,-0.02649407570455223,-0.521866476874426
1761413842178442200,1.731442138671875,-1.2788877174049615,0.1761252862561494,-0.5104052447266877
1761413842188454400,1.741454345703125,-1.1561077254325152,0.3363979004725814,-0.4055627682439983
1761413842198467300,1.75146728515625,-0.9319289676904677,0.4502283508572727,-0.29265829186411574
1761413842208480300,1.761480224609375,-0.6740700586646795,0.4896701344076544,-0.16148546060491353
1761413842218493400,1.771493408203125,-0.3394990813583135,0.4985621005892753,-0.02463941514804028
1761413842228506400,1.78150634765625,-0.007725625815987586,0.49627289367355404,0.09029204614795744
1761413842238518300,1.791518310546875,0.276563609495759,0.47122247743867335,0.13715282811741344
1761413842248531500,1.801531494140625,0.47915363576412195,0.47918388477191326,0.19474464653022586
1761413842258544400,1.81154443359375,0.5828542487353087,0.506239211088419,0.21830626724576577
1761413842268557300,1.821557373046875,0.5803980877548456,0.5013578687876462,0.22183973860153927
1761413842278570500,1.831570556640625,0.5767933412611485,0.5144818465158343,0.24359193527493625
1761413842288582400,1.84158251953125,0.6083423257350922,0.46864035199098286,0.31474450626485045
1761413842298595300,1.85159521484375,0.6733943513602018,0.4131994736675173,0.39119733908735216
1761413842308608300,1.861608154296875,0.7847475249111652,0.4494667919002473,0.42307508059162646
1761413842318621400,1.871621337890625,0.8611223240613937,0.4808960955172777,0.5338958277663216
1761413842328634400,1.88163427734375,0.901551365083456,0.51363889288567,0.6262424318239093
1761413842338646500,1.891646484375,0.8259872977942228,0.5675080649130047,0.702548695782572
1761413842348659200,1.9016591796875,0.6351227806329727,0.6826517167881131,0.6947649100385606
1761413842358672400,1.91167236328125,0.35821664130985736,0.8361030336171388,0.7116463406041265
1761413842368685300,1.921685302734375,0.06179974583089351,0.9331002764921635,0.7513602190941572
1761413842378698200,1.9316982421875,-0.18772271200418472,1.0221212067257612,0.7156053073629737
1761413842388710100,1.941710205078125,-0.4040034099727869,1.0744729599274694,0.672716890490055
1761413842398723300,1.951723388671875,-0.5345493597716092,1.1545707981888205,0.5923443269405514
1761413842408736500,1.961736572265625,-0.5109107100307941,1.210891235825792,0.47081550407297906
1761413842418749400,1.97174951171875,-0.3389332641690969,1.2399012764066457,0.40750623046196993
1761413842428762400,1.981762451171875,-0.05915478428006172,1.2219351924095303,0.43651334843337536
1761413842438774300,1.991774169921875,0.19080138879716396,1.1555749337300658,0.48744551716074347
1761413842448787500,2.001787353515625,0.33285774364769455,1.111844293879345,0.5785040176365525
1761413842458800400,2.01180029296875,0.4459790959149599,1.0617988448586315,0.6359830507241189
1761413842468813300,2.021813232421875,0.5083002352714538,1.0491531521666795,0.6834091110266745
1761413842478826200,2.031826171875,0.5404162059783936,0.952392713722214,0.766227387227863
1761413842488838400,2.04183837890625,0.5240221205383538,0.8378295651488006,0.827201057498157
1761413842498851300,2.051851318359375,0.492124761018157,0.7166333352364599,0.8404179742068052
1761413842508864500,2.061864501953125,0.440613184967637,0.584230943915993,0.8257974012453109
1761413842518877200,2.071877197265625,0.39000703332424164,0.42175782398059963,0.7761617020692676
1761413842528890400,2.081890380859375,0.3666898706227541,0.301025667916052,0.7301132137302309
1761413842538902300,2.09190234375,0.3864303438812494,0.20719784885738043,0.6719989514790475
1761413842548915500,2.10191552734375,0.4204103548943996,0.1145146697891876,0.662681891753152
1761413842558928100,2.11192822265625,0.42894905065894123,0.05208922980800271,0.6725715637352317
1761413842568941300,2.12194140625,0.404027375370264,0.018988522380031646,0.6699076052229851
1761413842578954500,2.13195458984375,0.3628057226657867,0.0016894143916666507,0.6557637829277664
1761413842588966400,2.14196630859375,0.28818858083784576,-0.01562783204158768,0.7294205552909523
1761413842598979300,2.151979248046875,0.24767478414177893,-0.03215654017934576,0.771799196010828
1761413842608992300,2.1619921875,0.20549217745065687,-0.07591413196907379,0.7774683276884258
1761413842619005400,2.17200537109375,0.2357680732488632,-0.0941106271885801,0.7614196216199547
1761413842629018400,2.182018310546875,0.27927520654201504,-0.13927613128116353,0.6769140499189495
1761413842639030500,2.192030517578125,0.276358442312479,-0.2308852331107482,0.5765320599764585
1761413842649043200,2.202043212890625,0.2924053217500448,-0.32400410018246617,0.4432997571704909
1761413842659056400,2.212056396484375,0.3073322572469711,-0.3985623148974031,0.3127515788819641
1761413842669069300,2.2220693359375,0.31372809576392174,-0.4833846974626183,0.20672252296321092
1761413842679082500,2.23208251953125,0.33283202468454837,-0.5687932093527168,0.1268409212684259
1761413842689094400,2.242094482421875,0.2616220609515905,-0.6420864821657538,0.058404477369412774
1761413842699107300,2.252107421875,0.16057751544713972,-0.7205363340243697,-0.0396736195448786
1761413842709120300,2.262120361328125,0.016326865422725677,-0.8134881739661097,-0.08723313350137323
1761413842719133400,2.272133544921875,-0.14124445394575594,-0.8388128770977258,-0.13461761968452482
1761413842729146400,2.282146484375,-0.26827392005622386,-0.8634710791446268,-0.14604743378069251
1761413842739158300,2.292158203125,-0.3331616950303316,-0.8881088959906249,-0.118291740642488
1761413842749171200,2.302171142578125,-0.33762101252675053,-0.8986666764926164,-0.06937335942294448
1761413842759184400,2.312184326171875,-0.37740181877315043,-0.9153869251471012,-0.025114421381801366
1761413842769197600,2.322197509765625,-0.4580085564047098,-0.9443953582927584,-0.007970065563730895
1761413842779210200,2.332210205078125,-0.5322837529271841,-0.9431707118686288,0.0045764776026830075
1761413842789222100,2.34222216796875,-0.6416653341442347,-0.9548919831920415,0.02456723582781851
1761413842799235300,2.3522353515625,-0.8224106083512306,-0.964276628261432,0.005664455502480268
1761413842809248500,2.36224853515625,-0.988419501197338,-0.885224426595494,-0.013012845503911375
1761413842819261400,2.372261474609375,-1.1934557515740394,-0.7871906072143465,-0.005390899258106947
1761413842829274400,2.3822744140625,-1.3851479517310856,-0.6651511314108968,0.030020825058594346
1761413842839286300,2.392286376953125,-1.5080898562669753,-0.5183417733469977,0.08947524987235665
1761413842849299500,2.402299560546875,-1.5167425338000058,-0.34846352825425564,0.15569325053691863
1761413842859312400,2.4123125,-1.4685066184192894,-0.2784050543776713,0.3068219696372747
1761413842869325300,2.4223251953125,-1.3627923275381326,-0.3719901324553415,0.5588934543680399
1761413842879338200,2.432338134765625,-1.0492173765093087,-0.5199690822878852,0.6840090496812016
1761413842889350400,2.442350341796875,-0.7060077501952647,-0.6223312497295439,0.6020649624986574
1761413842899363600,2.452363525390625,-0.511201801931858,-0.6558993189409374,0.4775685585297644
1761413842909376300,2.462376220703125,-0.4666898755103349,-0.636349765144661,0.36504126316551117
1761413842919389400,2.472389404296875,-0.6402624816089868,-0.6895095467936248,0.29448673113398255
1761413842929402600,2.482402587890625,-0.917251038518548,-0.6586063859425485,0.258384211541526
1761413842939414500,2.49241455078125,-1.1610568722724914,-0.520495809575729,0.20709058909062295
1761413842949427500,2.502427490234375,-1.3246756551116705,-0.3252153391357511,0.17288257800787687
1761413842959440400,2.5124404296875,-1.3668880724191665,-0.09174845550134778,0.283295073175244
1761413842969453600,2.52245361328125,-1.2719798377126454,0.12326393956448882,0.5102625117877498
1761413842979466500,2.532466552734375,-1.0492156229436398,0.31014366140589117,0.7903441758744418
1761413842989478700,2.542478759765625,-0.7755798835933208,0.48129685833789404,1.0583076417420059
1761413842999491300,2.5524912109375,-0.521373651856184,0.6141156484395265,1.2863466551087797
1761413843009504500,2.56250439453125,-0.27610768242180345,0.7289118020512163,1.4827780126169323
1761413843019517400,2.572517333984375,-0.08436988955736159,0.8193852691806852,1.5836632759064435
1761413843029530600,2.582530517578125,0.052799862295389174,0.8321120642848312,1.631978978525102
1761413843039542500,2.59254248046875,0.14298574465513228,0.8185556864887475,1.628645011796802
1761413843049555500,2.602555419921875,0.22395137872695922,0.8040496798176318,1.5784931797921657
1761413843059568400,2.612568359375,0.3514607373088598,0.7598872974861413,1.5298732335299252
1761413843069581600,2.62258154296875,0.5179676428049802,0.7604630515474826,1.5187351689219475
1761413843079594500,2.632594482421875,0.686587010410428,0.7768060643874108,1.5107636055208742
1761413843089606400,2.6426064453125,0.84525781545341,0.8115413507472723,1.4732428531609474
1761413843099619300,2.652619384765625,0.9393366135984659,0.8839759609043598,1.4407929743245242
1761413843109632500,2.662632568359375,0.9707271926403045,0.946731765351072,1.3809560529991984
1761413843119645700,2.672645751953125,0.9961837054580449,0.9834048148404806,1.3350268071256577
1761413843129658400,2.682658447265625,0.9942191273868083,1.0279551735762507,1.2738947314232587
1761413843139670300,2.692670166015625,0.9784311911463737,1.046938398726657,1.1833101320695132
1761413843149683500,2.702683349609375,0.9290145415484905,1.0591032490991055,1.0424769623383878
1761413843159696600,2.712696533203125,0.8319003212302922,1.0898920628555118,0.9018531975742429
1761413843169709600,2.72270947265625,0.6730570822298526,1.1361010755185037,0.7500625804990529
1761413843179722500,2.732722412109375,0.502673043039441,1.1639784588076174,0.6516821396373212
1761413843189734400,2.742734375,0.30369302396178244,1.2060242143113165,0.5486007910756394
1761413843199747600,2.75274755859375,0.08460136022567749,1.2833783068224787,0.5247247158497572
1761413843209760500,2.762760498046875,-0.08712649478912353,1.36711457465142,0.522828928698413
1761413843219773400,2.7727734375,-0.23774141914844513,1.4351133212529121,0.5642560408471152
1761413843229786400,2.782786376953125,-0.33043139328360555,1.4865649838097392,0.565407293241471
1761413843239798500,2.792798583984375,-0.4103074785530567,1.515043328666687,0.5263938181057572
1761413843249811500,2.8028115234375,-0.4371054691076278,1.5035810005404053,0.4840950376890599
1761413843259824600,2.81282470703125,-0.45004444565773005,1.5106187902227044,0.4091755519136786
1761413843269837300,2.82283740234375,-0.4219575843364,1.4778075307279825,0.3847752336179837
1761413843279850500,2.8328505859375,-0.37166064477264876,1.393845929710567,0.35987796211820094
1761413843289862400,2.8428623046875,-0.261029940277338,1.300789460350573,0.3717618766574189
1761413843299875600,2.85287548828125,-0.132227034753561,1.1803691832467913,0.40132286565192044
1761413843309888300,2.86288818359375,0.006544307076930999,1.0664821073040365,0.4351095095174387
1761413843319901400,2.8729013671875,0.10002338576316833,0.9857119227390736,0.4201067688379436
1761413843329914600,2.88291455078125,0.15528642330169676,0.8599912742048501,0.4070164741836488
1761413843339926500,2.892926513671875,0.21744038939774035,0.7308892396040261,0.3846665856117382
1761413843349939700,2.902939697265625,0.26895722614526746,0.609493249335885,0.33946857662219554
1761413843359952400,2.912952392578125,0.3193926973968744,0.5208494087863713,0.27824016440585253
1761413843369965600,2.922965576171875,0.34702830781936644,0.4178912847455591,0.23457732909433543
1761413843379978500,2.932978515625,0.37993221403360367,0.3076361355643719,0.21013737290799617
1761413843389990700,2.94299072265625,0.40701603579223156,0.21129954855516553,0.2424936003779061
1761413843400003300,2.95300341796875,0.4473983150631189,0.12003653848320245,0.26323590762270616
1761413843410016500,2.9630166015625,0.5303308652937412,0.0523349481973797,0.2933349307503551
1761413843420029400,2.973029541015625,0.5780424645394087,-0.015528408521413802,0.3721308195676654
1761413843430042600,2.983042724609375,0.5900801083356142,-0.0948162455741316,0.3751905724644661
1761413843440054500,2.993054443359375,0.5277338345378637,-0.1280542791135609,0.3579270837787539
1761413843450067500,3.0030673828125,0.45111821236908434,-0.13490107626840472,0.3434992934430018
1761413843460080400,3.013080322265625,0.3661579557031393,-0.15437310784906147,0.34174729867652054
1761413843470093600,3.023093505859375,0.2433499066799879,-0.1262612582169473,0.3644554261015728
1761413843480106500,3.0331064453125,0.1317921504676342,-0.07668108862042426,0.3774967305149883
1761413843490118400,3.043118408203125,0.026275427985191342,-0.0065406538151204585,0.405580011639744
1761413843500131300,3.05313134765625,-0.07033318089842797,0.05833521152548492,0.4488877133706584
1761413843510144500,3.06314453125,-0.14714286433458326,0.10038483948670326,0.46863238788023587
1761413843520157700,3.07315771484375,-0.15916589508354662,0.10620017470195889,0.4724952738534659
1761413843530170400,3.08317041015625,-0.10956102943718432,0.13289382809922098,0.44544820390865203
1761413843540182500,3.0931826171875,-0.05133095878660678,0.17267309997566044,0.4121952650610357
1761413843550195500,3.103195556640625,0.030787936973571777,0.1840116555918008,0.4188124181784689
1761413843560208600,3.113208740234375,0.16664543718397617,0.1210960574734956,0.4938903824511915
1761413843570221300,3.12322119140625,0.2817097402125597,0.12018040393330157,0.474584099358879
1761413843580234500,3.133234375,0.2781751363456249,0.12733955497294663,0.4478153714314103
1761413843590246400,3.143246337890625,0.22576690371632574,0.13017434000745415,0.40835386026725173
1761413843600259600,3.153259521484375,0.14892507157623766,0.12901874023154378,0.39342575572654603
1761413843610272500,3.1632724609375,0.07752572275102138,0.09664119597896934,0.3610326485786587
1761413843620285400,3.173285400390625,0.027599954587221143,0.057159591874852776,0.3008765600352548
1761413843630298400,3.18329833984375,0.013702362138032912,0.014923209169879555,0.25644615615103394
1761413843640310500,3.193310546875,0.0034440029740333555,-0.038677301983907814,0.2465542374129407
1761413843650323500,3.203323486328125,0.04436462690532207,-0.06202412917129695,0.2311603785240091
1761413843660336400,3.21333642578125,0.01928162357509136,-0.09700805652998387,0.2150255650746636
1761413843670349300,3.223349365234375,-0.060143795317411416,-0.08678089622184634,0.19497156888758763
1761413843680362500,3.233362548828125,-0.17243512650132178,-0.0785249629214406,0.127170555081591
1761413843690374400,3.24337451171875,-0.2839163103461265,-0.051994683392345906,0.09834385344469919
1761413843700387600,3.2533876953125,-0.4094277731090784,-0.07277823596298694,0.16746943038534373
1761413843710400500,3.263400390625,-0.4481494256913662,-0.25925869282111524,0.3649561056327075
1761413843720413400,3.273413330078125,-0.34452363152205945,-0.49793856186345214,0.5628498638436198
1761413843730426600,3.283426513671875,-0.13322072196602822,-0.5797977837741375,0.5439165422495454
1761413843740438500,3.2934384765625,0.0070984338283538815,-0.6026752398841083,0.3942501507867127
1761413843750451500,3.303451416015625,0.11113631592988968,-0.5484283205855638,0.15890538098383694
1761413843760464400,3.31346435546875,0.18451076422035692,-0.5008957311686129,-0.013831377078872173
1761413843770477600,3.3234775390625,0.08354337560534476,-0.4953877814020961,-0.08720306715667248
1761413843780490500,3.333490478515625,-0.1550590442866087,-0.43942309840023513,-0.08694507380761206
1761413843790502700,3.343502685546875,-0.5794201826333999,-0.1797376315344125,-0.1243476248816587
1761413843800515300,3.353515380859375,-1.0064105004400015,0.10581154071055351,-0.08383989260019734
1761413843810528500,3.363528564453125,-1.1553308958411217,0.38712592492997644,0.042003633395023644
1761413843820541400,3.37354150390625,-1.1503080992430448,0.5342012769863009,0.23405652009062466
1761413843830554400,3.383554443359375,-0.9165320765942334,0.7152266833089291,0.4389866797443479
1761413843840566300,3.393566162109375,-0.5449199471384286,0.8373419277623295,0.5895274063562974
1761413843850579500,3.403579345703125,-0.1504489201426506,0.8315349950492381,0.687679408757016
1761413843860592400,3.41359228515625,0.23502865305840967,0.7866048432156443,0.7576946828126907
1761413843870605600,3.42360546875,0.5112181685447692,0.6919602278813719,0.7570138609416782
1761413843880618500,3.433618408203125,0.7214782910495996,0.6401889779813588,0.7621380720876156
1761413843890630400,3.44363037109375,0.798192697417736,0.5661380917340517,0.7473951879207045
1761413843900643000,3.45364306640625,0.7765075198322534,0.5121256387785077,0.6816914203885942
1761413843910656300,3.46365625,0.735343734794855,0.5026199976779521,0.6346689724508673
1761413843920669200,3.473669189453125,0.6447358276307582,0.48737332870736716,0.6549534163929521
1761413843930682000,3.48368212890625,0.5046060569286346,0.5888577269338071,0.6029678661551326
1761413843940694000,3.493694091796875,0.373016151034832,0.7050872743494808,0.5023301478859037
1761413843950707200,3.503707275390625,0.2305745962589979,0.79742536630705,0.5020123871736228
1761413843960720100,3.51372021484375,0.11793430550694466,0.8520913147352636,0.5600593928748742
1761413843970733000,3.523733154296875,0.012850129222869872,0.909432765983045,0.6157618812765926
1761413843980746000,3.53374609375,-0.07720949640870094,0.9317126945912837,0.7025266300812363
1761413843990758100,3.543758056640625,-0.09711188223063945,0.9747203539296984,0.8158933354116976
1761413844000771000,3.55377099609375,-0.1541957054555416,0.9495832823246717,0.8825923975914716
1761413844010784300,3.5637841796875,-0.25008009171783924,0.8923267328813671,0.8943553160995245
1761413844020797000,3.573796875,-0.35637773544490337,0.8888239854574203,0.8235868855889886
1761413844030810000,3.58381005859375,-0.49799920600950714,0.8683087284341454,0.7044581096004694
1761413844040822000,3.593822021484375,-0.6248749428629875,0.899760974535346,0.7104933711767196
1761413844050835200,3.603835205078125,-0.7498743644505739,0.9825779355622828,0.692187241570279
1761413844060847900,3.613847900390625,-0.8793868795484304,1.1086978856123983,0.6890908099249005
1761413844070861000,3.623861083984375,-0.9891501535594462,1.003907431577891,0.812626004178822
1761413844080874200,3.633874267578125,-0.9141939890354871,1.1217514284528791,0.7954379188168793
1761413844090886100,3.64388623046875,-0.8131915291070938,1.1366370090261102,0.7525833311483263
1761413844100899300,3.6538994140625,-0.6736258220285177,1.0220783174321055,0.7999448017820715
1761413844110912000,3.663912109375,-0.4853893152832985,0.9738329035706818,0.7172822275992482
1761413844120925200,3.67392529296875,-0.39840778192281723,0.8882251427814364,0.7685080455109476
1761413844130938000,3.683938232421875,-0.45952714427411556,0.8679740165870636,0.7791366992920636
1761413844140950300,3.6939501953125,-0.5853881511271,0.8998060557860881,0.7820393619310111
1761413844150963000,3.703962890625,-0.712068657669425,0.9401034332524985,0.7684876603100448
1761413844160976100,3.71397607421875,-0.8340741581380366,0.9823387930441647,0.7564373762279748
1761413844170989000,3.723989013671875,-0.8498352063715457,0.9826415753830223,0.7497370018064975
1761413844181002200,3.734002197265625,-0.7748153289616108,0.9637763505890965,0.7592080099850893
1761413844191014100,3.74401416015625,-0.5899363159507512,0.8965605710588395,0.7361949447967112
1761413844201027000,3.754027099609375,-0.3450789273172617,0.7922576813455671,0.6836426275216042
1761413844211040000,3.7640400390625,-0.10727204171717167,0.697940690530464,0.6637422144610434
1761413844221053200,3.77405322265625,0.05466916329860687,0.5809202119328081,0.6236610370285809
1761413844231066000,3.784066162109375,0.19897885003387927,0.4931995506428182,0.5971693724768236
1761413844241078000,3.794078125,0.250425544154644,0.4107724657163024,0.5585720769265666
1761413844251091000,3.804091064453125,0.238187409350276,0.3702424485377967,0.5447671677295118
1761413844261104000,3.814104248046875,0.18642682697474955,0.36731560130566354,0.4960806225044653
1761413844271117300,3.824117431640625,0.15753215640187263,0.3840264976099133,0.5013196191364899
1761413844281130000,3.8341298828125,0.14885492894947527,0.3839871885128319,0.5410111761968582
1761413844291142000,3.844141845703125,0.25082009643018244,0.34737054538577794,0.5626392898328602
1761413844301155000,3.854155029296875,0.4287549893915653,0.2918418426483869,0.5897170837095007
1761413844311168300,3.864168212890625,0.5806552773863077,0.17146496629491448,0.6321317821234465
1761413844321181200,3.87418115234375,0.7651753939568996,0.045619887663424015,0.6397955216843635
1761413844331194000,3.884194091796875,0.8838210626035928,-0.053175709870457645,0.6194565710760652
1761413844341206000,3.8942060546875,0.9426040909618139,-0.10098521653264761,0.6334435953743756
1761413844351219200,3.90421923828125,0.9381272378087043,-0.17126827467903494,0.6262019536830484
1761413844361232100,3.914232177734375,0.7969728002339601,-0.19326807117164133,0.6153709822628647
1761413844371245000,3.9242451171875,0.5779729064345359,-0.16008695545122026,0.5917768292509019
1761413844381258000,3.934258056640625,0.3387619992554188,-0.0978561247266829,0.5827144749384373
1761413844391270100,3.944270263671875,0.14360709142386913,-0.029908669921010732,0.6285280585430563
1761413844401283000,3.954282958984375,-0.02628127320408821,0.005842442417889833,0.6373293507665395
1761413844411296300,3.964296142578125,-0.0799129101485014,0.055001610123366115,0.6229470435403287
1761413844421309000,3.974308837890625,-0.10106325020492077,0.04567833985239267,0.5799389092778787
1761413844431322000,3.984322021484375,-0.14710662397742272,0.039827714128047226,0.5258876952145248
1761413844441334000,3.994333984375,-0.243685422244668,0.02834887325838208,0.43345187850352374
1761413844451347200,4.00434716796875,-0.3748246617615223,0.049921822641044854,0.34157230743579564
1761413844461360000,4.014360107421875,-0.5378688595831393,0.06798924812078476,0.3030455198384821
1761413844471373000,4.024373046875,-0.6867050838321447,0.09853446237966418,0.3052852981219068
1761413844481386200,4.03438623046875,-0.7879284930348396,0.16351503020375965,0.3162398228565231
1761413844491398100,4.044398193359375,-0.8880226059466599,0.21426891975477336,0.36278826007433235
1761413844501411000,4.0544111328125,-0.9498878182291984,0.2945176377288997,0.3915319048039615
1761413844511424000,4.064424072265625,-0.982184990721941,0.3586941956937313,0.44683213254772125
1761413844521437200,4.074437255859375,-0.9152484665244818,0.4310184042789042,0.48205827116444705
1761413844531449000,4.084448974609375,-0.7898305272638797,0.44951764530465005,0.5296399604201316
1761413844541462300,4.094462158203125,-0.5925456216663122,0.4220297727897763,0.5490824736453592
1761413844551475000,4.104474853515625,-0.3846142343699932,0.40428661082834005,0.519065155718103
1761413844561488100,4.114488037109375,-0.2085410436272621,0.3355181950286031,0.4940699768017977
1761413844571501000,4.1245009765625,-0.05364858807921409,0.2578532099373638,0.4929709295187145
1761413844581514200,4.13451416015625,0.06798398742377758,0.16281155810952186,0.560985385145992
1761413844591526100,4.144526123046875,0.19101941546201706,-0.061358724065124985,0.7549667191535234
1761413844601539000,4.1545390625,0.36271161464154716,-0.3272681069470942,0.9258595846489072
1761413844611552000,4.164552001953125,0.6166179866492748,-0.4904221948839724,0.8833585596583783
1761413844621565200,4.174565185546875,0.819634713897109,-0.5066944075100124,0.6710141051601618
1761413844631577000,4.1845771484375,0.9358031787753105,-0.4336971219688654,0.39773441270589827
1761413844641590000,4.194590087890625,0.8845429471373557,-0.4146007918328047,0.2997356829044409
1761413844651603200,4.204603271484375,0.7545674907028674,-0.38681685898080465,0.3478048816824332
1761413844661616000,4.2146162109375,0.6577046147972345,-0.2655037246905267,0.4508825039170682
1761413844671629300,4.22462939453125,0.5969464869737625,-0.11219620024636387,0.5368300180546939
1761413844681641200,4.23464111328125,0.5723322701990604,0.049986266179382795,0.5503178606592118
1761413844691654100,4.244654052734375,0.5543582220911979,0.26588395617976784,0.5039235910898074
1761413844701667000,4.2546669921875,0.5318634816884994,0.4462134891927242,0.4811903292234987
1761413844711680300,4.26468017578125,0.41662732922434803,0.5760697031617165,0.5068631516730413
1761413844721693000,4.27469287109375,0.21972528546452522,0.6304954130932688,0.5458743252538144
1761413844731705000,4.284705078125,0.031926001092791555,0.704560912387818,0.5486344376169144
1761413844741718000,4.294718017578125,-0.08378010697066783,0.7781292758151889,0.5374776317758485
1761413844751731200,4.304731201171875,-0.11670096431970596,0.8616885796420276,0.535294405985251
1761413844761744100,4.314744140625,-0.0023848493099212645,0.9178330761902034,0.46982159766480325
1761413844771757000,4.324757080078125,0.20019465556442737,0.9244485488072037,0.4359857078300789
1761413844781769000,4.33476904296875,0.3723918816566467,0.8974658493354916,0.41016244405917823
1761413844791782100,4.3447822265625,0.5061591315895319,0.8590585233993828,0.3448997348254546
1761413844801795000,4.354795166015625,0.6497253064811229,0.8364562309689819,0.2975650426007807
1761413844811808000,4.36480810546875,0.7706745758950709,0.8141372855246066,0.3231117544526234
1761413844821821200,4.3748212890625,0.8762573493510484,0.7759349806413054,0.3897104615304619
1761413844831833000,4.3848330078125,0.9544973578512668,0.7414394213214516,0.4486949307449162
1761413844841846000,4.394845947265625,0.9904881241649389,0.7042026004694402,0.47425614604614674
1761413844851859200,4.404859130859375,0.984974913701415,0.6825584855467081,0.46927627527434373
1761413844861872000,4.4148720703125,1.0321136814951897,0.592309182561934,0.4386649004440754
1761413844871885000,4.424885009765625,1.170192364886403,0.5035775906637311,0.3822945957833901
1761413844881897200,4.434897216796875,1.3771312340140343,0.391066625379771,0.41729770276658235
1761413844891910100,4.44491015625,1.4215940605968236,0.22880612528175115,0.434873947195895
1761413844901923000,4.454923095703125,1.256461950585246,0.11595832925885916,0.41531175311375407
1761413844911936000,4.46493603515625,0.8239432247459888,0.12398527610898018,0.22555443000942468
1761413844921949200,4.47494921875,0.35663784768581386,0.2501668932184577,0.09359371804185211
1761413844931961000,4.484961181640625,-0.20400866089463232,0.28988574014455076,0.11848950997060165
1761413844941974300,4.494974365234375,-0.6761252376288175,0.32530119078829883,0.17963970585158093
1761413844951987000,4.504987060546875,-0.9709773680090904,0.46292760036736724,0.1798262231333181
1761413844962000100,4.515000244140625,-1.1102011297821999,0.5924607198618352,0.18557706001130864
1761413844972013000,4.525012939453125,-1.13286070535779,0.6328248789541423,0.2089687492537312
1761413844982025200,4.535025146484375,-1.0920400346696375,0.6480721324466169,0.18807883196547626
1761413844992038000,4.545037841796875,-1.011558969244361,0.6635106707274914,0.13439897196516393
1761413845002051000,4.555051025390625,-0.9195908796429634,0.7039199841357767,0.12443688320084474
1761413845012064300,4.565064208984375,-0.8835825776726007,0.7542894044138491,0.1436474234342575
1761413845022077200,4.5750771484375,-0.8495686643898487,0.770421916308254,0.2360743992516771
1761413845032089000,4.585089111328125,-0.8518594056755304,0.797647192364186,0.3844581670254469
1761413845042102000,4.59510205078125,-0.8383809154212475,0.7693484418578446,0.5547123327584937
1761413845052115200,4.605115234375,-0.7896960872292518,0.7488670871041715,0.6124357690611854
1761413845062128000,4.615128173828125,-0.6793734257698059,0.703132340889424,0.6573994943708181
1761413845072140300,4.625140380859375,-0.5249398199051618,0.5962449145756662,0.6980687738895416
1761413845082153000,4.635153076171875,-0.3873983121305704,0.4417288911245763,0.7105262505330145
1761413845092166100,4.645166259765625,-0.23951252047419547,0.28085093142613765,0.6646350716475397
1761413845102179000,4.655178955078125,-0.03765665369927883,0.11749722926393151,0.625165231046453
1761413845112192300,4.665192138671875,0.13148527647554872,-0.014329261864721774,0.5939073750061914
1761413845122204200,4.6752041015625,0.2759451853364706,-0.1603800931788981,0.5669383387336507
1761413845132217000,4.685217041015625,0.3900765914291143,-0.2471136431276798,0.5444676733262837
1761413845142230000,4.69522998046875,0.4632406118392944,-0.32857407497912644,0.5290487895939499
1761413845152243200,4.7052431640625,0.47672319374680516,-0.3655973992109299,0.5046995804309845
1761413845162256100,4.715256103515625,0.44764849043190474,-0.38858094604387877,0.4948022365991026
1761413845172268000,4.72526806640625,0.3580284252613783,-0.3889409384626895,0.5030808201227337
1761413845182281000,4.735281005859375,0.267242238920927,-0.371319357054308,0.5115006752805784
1761413845192294100,4.745294189453125,0.1600122827798128,-0.3488474860705435,0.49316605023201554
1761413845202307000,4.75530712890625,0.043614100798964495,-0.304427256520465,0.48147528364472086
1761413845212320000,4.765320068359375,-0.058255789613723755,-0.21936098219677805,0.49253721427656705
1761413845222332000,4.775331787109375,-0.10979133106172084,-0.14565233351588247,0.4943134301688522
1761413845232345000,4.785344970703125,-0.14971125351786613,-0.10485182883292436,0.5027488116893917
1761413845242358300,4.795358154296875,-0.15270400559306144,-0.0613608429569751,0.488129480836913
1761413845252371200,4.80537109375,-0.09859306069910526,-0.05199366047903895,0.5094737360302358
1761413845262384000,4.815384033203125,-0.046424482044577595,-0.06320902810692787,0.546547548340261
1761413845272396000,4.82539599609375,0.0007446808874607086,-0.09179010268598795,0.5895281735412776
1761413845282409200,4.8354091796875,0.03145487644970417,-0.11272563094794749,0.5807661904148758
1761413845292422100,4.845422119140625,0.011363690057396889,-0.13325206695236264,0.517967569739744
1761413845302435000,4.85543505859375,-0.022903905725479123,-0.13222732701450585,0.4580195161901414
1761413845312448000,4.865447998046875,-0.059691375374794006,-0.15248532134108245,0.44815863191112876
1761413845322460200,4.875460205078125,-0.10134849688708782,-0.1709979333050549,0.4169699321169406
1761413845332473000,4.88547314453125,-0.06979249815046787,-0.15001637394428252,0.4252996613059193
1761413845342486000,4.895486083984375,0.035333179187774656,-0.17225385165028273,0.4156292580977082
1761413845352499000,4.9054990234375,0.23639468071460723,-0.1865033262770623,0.41904882075022903
1761413845362512100,4.91551220703125,0.41565994549691676,-0.20318806522674857,0.45040622817482795
1761413845372524000,4.92552392578125,0.5383534282296896,-0.2472059245210141,0.5033216066086664
1761413845382537200,4.935537109375,0.6190858380675316,-0.26178923421204087,0.4534273660942912
1761413845392550000,4.9455498046875,0.6270756677776574,-0.2960008620239794,0.4023382167069241
1761413845402563000,4.95556298828125,0.411862306779623,-0.36155791456177827,0.40056495995670555
1761413845412576300,4.965576171875,0.11824936280548572,-0.3544525395359844,0.3296232917711139
1761413845422588200,4.975588134765625,-0.14208265833556652,-0.28964805893115697,0.26879911297410725
1761413845432601000,4.98560107421875,-0.2721878786295652,-0.19529351258464156,0.22546483376352114
1761413845442614000,4.995614013671875,-0.21018764179050922,-0.10291238520294427,0.21019728640168905
1761413845452627200,5.005627197265625,-0.08331599659025668,0.0088497344750911,0.2529549895670265
1761413845462640000,5.01564013671875,0.0927051717042923,0.050905719111859794,0.29282365675996985
1761413845472652300,5.02565234375,0.21304420026540755,0.0350452290918678,0.32858561928644775
1761413845482665000,5.0356650390625,0.317394217056036,-0.07577171869054436,0.4489104001265019
1761413845492678100,5.04567822265625,0.4433645295023918,-0.30698103265650567,0.5897306373108178
1761413845502691000,5.055691162109375,0.576557194417715,-0.4499258607793599,0.5450318830803036
1761413845512703200,5.065703125,0.5949111817538738,-0.4633304090145975,0.3560912466537207
1761413845522716200,5.075716064453125,0.42947278227210045,-0.45808885509930547,0.14088245223294943
1761413845532729000,5.08572900390625,0.0909445917725563,-0.48522060765288766,0.07719921247670426
1761413845542742000,5.095741943359375,-0.35385610801279543,-0.44536395969130094,0.1320949510728009
1761413845552755200,5.105755126953125,-0.793134829506278,-0.24642653764635322,0.14750453725382684
1761413845562767000,5.11576708984375,-1.2050257778584956,-0.0042206864349544045,0.1392924430951476
1761413845572780000,5.125780029296875,-1.6053794331520794,0.2072381443351507,0.15268442410975694
1761413845582793000,5.13579296875,-1.9415081612944602,0.43734797262661157,0.22769741512117905
1761413845592806100,5.14580615234375,-2.0527742410838603,0.6232370394628495,0.2772347319566645
1761413845602819300,5.1558193359375,-1.9935043059915303,0.6852238322984426,0.28471904156375677
1761413845612831200,5.165831298828125,-1.8166116155594587,0.7711113598771393,0.34528869761042297
1761413845622844200,5.17584423828125,-1.5519588086098433,0.82613949268125,0.3958462974043563
1761413845632857000,5.185857177734375,-1.2484101615548133,0.8111490634940565,0.4044220372436568
1761413845642870300,5.195870361328125,-0.9384171606659889,0.7712270952112972,0.4001362862158567
1761413845652883000,5.205883056640625,-0.6725462100982665,0.7176078793570398,0.3712910442752763
1761413845662895000,5.21589501953125,-0.4259492843210697,0.670942062837258,0.3419263815704733
1761413845672908000,5.225907958984375,-0.1835626697152853,0.5952287963356823,0.28322529587466266
1761413845682921200,5.235921142578125,-0.01137538049519062,0.531644651306048,0.23293610122594982
1761413845692934100,5.24593408203125,0.16703063710927962,0.5090510536387562,0.19915873664543032
1761413845702947000,5.255947021484375,0.3085930709630251,0.5049801509380341,0.1803148103678599
1761413845712959000,5.265958984375,0.4075537959307432,0.5300050674054771,0.2018551543888636
1761413845722972200,5.27597216796875,0.48614510208666323,0.5725716319128871,0.2711497677534819
1761413845732985000,5.285985107421875,0.5716004487931728,0.6090026893399656,0.3440290894707665
1761413845742998000,5.295998046875,0.6475719278395176,0.6343513578690588,0.42592272510770707
1761413845753011000,5.306010986328125,0.7344967625766993,0.6466410767301917,0.5075277530616149
1761413845763023000,5.316023193359375,0.793459239155054,0.627002018019557,0.5834843633323907
1761413845773036000,5.3260361328125,0.8156196330368518,0.6014814269896597,0.6042224693261087
1761413845783049200,5.33604931640625,0.831969879335165,0.6126687375668436,0.5862399456508457
1761413845793062100,5.346062255859375,0.8079471987128257,0.6044860156331211,0.6464426315486431
1761413845803075000,5.356074951171875,0.7613450220137834,0.6042535220514983,0.6908927447803318
1761413845813087000,5.3660869140625,0.6524146916955709,0.6129376176360994,0.7452037422910333
1761413845823100200,5.37610009765625,0.4396224203646183,0.6133876994911581,0.8127184317026287
1761413845833113000,5.386113037109375,0.26316344517469403,0.6857051860745996,0.8638328251291066
1761413845843126000,5.3961259765625,0.15215338597297667,0.7291621235504746,0.9389286173194646
1761413845853138200,5.40613818359375,0.14083996479809283,0.7401797035839408,0.986246468007192
1761413845863151000,5.416151123046875,0.15574001228809356,0.779214440703392,0.9858866947840899
1761413845873164300,5.426164306640625,0.22641630753576755,0.782753647680208,0.9768442142158746
1761413845883177000,5.436177001953125,0.27849603886306284,0.7767725274439901,0.9520490148510783
1761413845893190100,5.446190185546875,0.2714408596545458,0.7260160075444728,0.9428587963752448
1761413845903203300,5.456203369140625,0.19180852001309392,0.7191711100857704,0.9128327106196433
1761413845913215200,5.46621533203125,0.03369184172153473,0.7638768785789608,0.8770934348490088
1761413845923228200,5.476228271484375,-0.1704945138275623,0.8106758199591189,0.8520905840829014
1761413845933241000,5.486240966796875,-0.3746878836393356,0.827597874796018,0.8523228584688156
1761413845943254300,5.496254150390625,-0.5199965182840823,0.9131250446297228,0.893448211191967
1761413845953266200,5.50626611328125,-0.6092500882297754,0.9745837219379841,0.9038885758593678
1761413845963279400,5.516279296875,-0.6351987684786319,1.0037035065036266,0.8945995731841773
1761413845973292000,5.5262919921875,-0.592881721752882,1.0181070026483385,0.9279914821110665
1761413845983305200,5.53630517578125,-0.543697711867094,0.9929473538853227,0.920024302624166
1761413845993318100,5.546318115234375,-0.4593804292798042,0.9157909759033471,0.9203221895921975
1761413846003330300,5.556330322265625,-0.3232715846568346,0.8230564319740981,0.9029330287002026
1761413846013343000,5.566343017578125,-0.19087971473038196,0.7036696626365184,0.9143423845302313
1761413846023356200,5.576356201171875,-0.05137772053778171,0.6194842628005892,0.9076647333972155
1761413846033369000,5.586369140625,0.0703185678511858,0.5142196153830737,0.8911557894058525
1761413846043382300,5.59638232421875,0.14082593627274034,0.40887196585722263,0.8841608159519732
1761413846053394200,5.606394287109375,0.1957090345829725,0.3148190328057855,0.8500608318209648
1761413846063407000,5.616406982421875,0.20768822619020938,0.24981837204173205,0.8136963368240744
1761413846073420000,5.626419921875,0.21504151156246662,0.19724596182666718,0.7755578178919851
1761413846083433200,5.63643310546875,0.23235154280364512,0.15227313989512622,0.7695334430359303
1761413846093446100,5.646446044921875,0.28805998602211474,0.15011303925178945,0.7516551834527403
1761413846103458000,5.6564580078125,0.3402706502526998,0.12277180866599083,0.7635953582238405
1761413846113471000,5.666470947265625,0.4123585658639669,0.08789864820539951,0.7755365559082478
1761413846123484200,5.676484130859375,0.48174715938866136,0.06998429439552128,0.752745755168423
1761413846133497300,5.686497314453125,0.5293225650340319,0.039240123498439784,0.7131924010023474
1761413846143510000,5.696510009765625,0.5727630628317594,-0.008082987886294721,0.6888887845467776
1761413846153522200,5.706522216796875,0.5710270328193903,-0.02018281019851565,0.6560241143643856
1761413846163535000,5.71653515625,0.5172311452239752,-0.023212825544178483,0.6123933181589469
1761413846173548300,5.72654833984375,0.41938218089044094,-0.036095468797162175,0.620239392016828
1761413846183561000,5.73656103515625,0.35785774486958977,-0.03139291712939739,0.6001738515224307
1761413846193574100,5.74657421875,0.2784662282466888,-0.05773783015422523,0.5758482789633795
1761413846203586000,5.7565859375,0.2577051797688007,-0.06507365293502808,0.5876859797406941
1761413846213599200,5.76659912109375,0.28327508983314037,-0.10778437515348195,0.563017329365015
1761413846223612200,5.776612060546875,0.33946225647926326,-0.14110329190939663,0.4880393183354288
1761413846233625000,5.786625,0.3927227220237255,-0.169467508867383,0.44561705766953524
1761413846243638000,5.796637939453125,0.42423488161861894,-0.20683489729650317,0.44663580625802274
1761413846253650200,5.806650146484375,0.40317221984565255,-0.26729630719572306,0.4355732545716688
1761413846263663000,5.8166630859375,0.33022622610032554,-0.323426994414255,0.42487157208696
1761413846273676000,5.826676025390625,0.2117261034041643,-0.3843546335857361,0.40294860369022933
1761413846283689200,5.836689208984375,0.13964227944612503,-0.44481567815877493,0.3591525339204818
1761413846293701000,5.846701171875,0.05188625458180904,-0.4669757797796279,0.32495223122015593
1761413846303714000,5.856714111328125,-0.03294540726840496,-0.4810669951047748,0.292565864340309
1761413846313727200,5.866727294921875,-0.10336392836272716,-0.4854448448628187,0.2111232421401888
1761413846323740200,5.876740234375,-0.1442319453239441,-0.49025187981836493,0.15467059295829386
1761413846333753000,5.886753173828125,-0.1908686088144779,-0.48355691222436725,0.1393485206639394
1761413846343765200,5.89676513671875,-0.2861070983886719,-0.4578836879160255,0.13694649189035407
1761413846353778200,5.906778076171875,-0.31487142058014866,-0.39341654950678345,0.11131697885957546
1761413846363791000,5.916791015625,-0.34089901128411293,-0.36761107712090013,0.11814650521920993
1761413846373804000,5.926803955078125,-0.4053396270126104,-0.33235571240969003,0.1511761384386569
1761413846383817200,5.936817138671875,-0.44758419302403923,-0.3096004944398999,0.19329726073350756
1761413846393829000,5.9468291015625,-0.49395548357665536,-0.36737902193069455,0.26781665954170747
1761413846403842300,5.95684228515625,-0.502042928442359,-0.5453698828630149,0.4763455926060676
1761413846413855000,5.96685498046875,-0.40160803926885125,-0.7899589759491383,0.6003456278927624
1761413846423868200,5.9768681640625,-0.19282558810114858,-0.88267919909209,0.5103540259961038
1761413846433881000,5.986881103515625,-0.01720949347615242,-0.8900827533468604,0.306536138433218
1761413846443893200,5.996893310546875,0.027594693890213965,-0.9607722003370522,0.1484940232152119
1761413846453906200,6.00690625,-0.0036608605951070784,-0.9653764061968773,0.11465970428306609
1761413846463919000,6.016919189453125,-0.17031506560742854,-0.932382337481156,0.08930228619193657
1761413846473932000,6.02693212890625,-0.39974341444075107,-0.8090908157899975,0.05299960438488051
1761413846483945200,6.0369453125,-0.6191548116505146,-0.6335679524064064,0.08898653477365151
1761413846493957000,6.04695703125,-0.7871160076081752,-0.4236708910603076,0.171156357003469
1761413846503970000,6.056969970703125,-0.8827718458116054,-0.23865517299249767,0.24500282498616724
1761413846513983200,6.066983154296875,-0.8970569762736559,-0.08477437870502472,0.2992024162779562
1761413846523996200,6.07699609375,-0.9011346009761094,0.029494609227403996,0.31465262673031535
1761413846534008000,6.087008056640625,-0.8958096065610647,0.11713489875756203,0.27442685319539156
1761413846544021200,6.097021240234375,-0.7793003654211759,0.17449929248951374,0.16407659134296698
1761413846554034200,6.1070341796875,-0.6351227806329727,0.21124840288981794,0.05966554681379348
1761413846564047000,6.117047119140625,-0.5360200168460607,0.2297299621284008,-0.02467847764994949
1761413846574060300,6.127060302734375,-0.4888350718230009,0.2697624050483107,-0.13343375279535538
1761413846584072200,6.137072265625,-0.4787093991279602,0.4122810436483472,-0.259387178038992
1761413846594085000,6.147085205078125,-0.46503392499685287,0.5482312636435032,-0.33330464716497804
1761413846604098000,6.15709814453125,-0.40697219665050505,0.6407812447860837,-0.3174240642050281
1761413846614111200,6.167111328125,-0.2887035446226597,0.7603815838091075,-0.3085682287827134
1761413846624124200,6.177124267578125,-0.15568448270857332,0.8750000427663326,-0.2860993169410154
1761413846634136300,6.18713623046875,-0.10176643003821373,0.9645574179641901,-0.32081191654503344
1761413846644149000,6.19714892578125,-0.08879413574039935,1.011909097856283,-0.32524083890318867
1761413846654162200,6.207162109375,-0.09669687168896197,1.0816675476066768,-0.3110276046335697
1761413846664175000,6.217175048828125,-0.1680342611938715,1.1726974795751273,-0.2464145732139237
1761413846674188000,6.22718798828125,-0.24895780968964099,1.2457564321756363,-0.21718332763044162
1761413846684200000,6.237199951171875,-0.26876199583411214,1.3067870933301746,-0.26304699745448307
1761413846694213000,6.247213134765625,-0.20508301212787627,1.3089406181022525,-0.3876620045680553
1761413846704226300,6.257226318359375,-0.1097235265225172,1.2799408797197043,-0.5006353997319937
1761413846714239200,6.2672392578125,0.019438275441527365,1.2173689804725347,-0.6001934330057352
1761413846724252200,6.277252197265625,0.13920154994130135,1.1628159908995033,-0.6410396034613252
1761413846734264000,6.28726416015625,0.2729904271841049,1.1015319395057857,-0.6304797771327197
1761413846744277200,6.29727734375,0.3901940803289413,1.0415282833114266,-0.5552193324325606
1761413846754290200,6.307290283203125,0.48655368288755413,1.0053887561768293,-0.47564237624015654
1761413846764303000,6.31730322265625,0.5159726695954799,1.024442123953998,-0.39261513346340504
1761413846774316000,6.32731591796875,0.4903478144735098,1.042658894776553,-0.2762389441186562
1761413846784328200,6.337328125,0.41201662055850025,1.0033794621810317,-0.12538513296954332
1761413846794341000,6.347341064453125,0.31892391084134575,0.9913733825668692,-0.045123774709552526
1761413846804354300,6.357354248046875,0.2934247279256582,0.9313400618866086,0.01565685720667243
1761413846814367000,6.367366943359375,0.3054109337955713,0.8619057295240461,0.01788399520423263
1761413846824380200,6.377380126953125,0.3433206854730844,0.7465538417257368,0.02936049798633903
1761413846834392000,6.38739208984375,0.4075619792371988,0.633709552834183,0.0676546458715573
1761413846844405200,6.3974052734375,0.509176433584094,0.5034918120764196,0.09267459390293806
1761413846854418000,6.40741796875,0.6027022740215062,0.39417365148440003,0.09714026807490736
1761413846864431000,6.41743115234375,0.6582686784207821,0.2969792055368423,0.11456650957427918
1761413846874443000,6.427443115234375,0.6778951699107885,0.21927198873907328,0.14913045795522628
1761413846884456200,6.437456298828125,0.6850006180018187,0.16130349163413046,0.16828626319356263
1761413846894469400,6.447469482421875,0.710955143469572,0.08466726506873964,0.20917915886770932
1761413846904482000,6.45748193359375,0.6680617581605911,-0.005733575215935707,0.222703643688187
1761413846914495000,6.467494873046875,0.6549222906023263,-0.03295519801005721,0.22341975606828926
1761413846924507100,6.477507080078125,0.6642600277900695,-0.09043255059719085,0.23016729409974068
1761413846934520000,6.48752001953125,0.7073509814977645,-0.15648191669657827,0.2324786580483429
1761413846944533000,6.497532958984375,0.7703554269433021,-0.24454729977101086,0.23746055638045072
1761413846954546200,6.507546142578125,0.8426829965293406,-0.33521088264510035,0.22360399006139486
1761413846964559000,6.51755908203125,0.8772785090923308,-0.3937430049821734,0.2116295476945117
1761413846974571000,6.527571044921875,0.9010305560797452,-0.46089857875779267,0.22030206243917344
1761413846984584200,6.537584228515625,0.9028373132407664,-0.47775940492674707,0.18823013180335982
1761413846994597000,6.54759716796875,0.8506260644882917,-0.5122762992955744,0.1947508936079219
1761413847004610000,6.557610107421875,0.7511836934834718,-0.5490051706254482,0.24085960596790537
1761413847014623200,6.567623291015625,0.6054787529975175,-0.5673319776937366,0.2759658445320092
1761413847024635100,6.57763525390625,0.45877135747075076,-0.5461627868063748,0.31824268711153414
1761413847034648000,6.58764794921875,0.3699643622487783,-0.5332457298271358,0.3263826293494552
1761413847044661000,6.597660888671875,0.2841699928462505,-0.5295056665159762,0.3765569654468447
1761413847054674200,6.607674072265625,0.24653555097877977,-0.5523965666294097,0.39286629521287975
1761413847064687000,6.61768701171875,0.2305003619790077,-0.6042997723460197,0.4133412202257663
1761413847074699300,6.62769921875,0.23899638764560222,-0.6470877975843846,0.44220308450758455
1761413847084712000,6.6377119140625,0.2262397819250822,-0.6995949605435132,0.5000523391470313
1761413847094725000,6.64772509765625,0.16427520092129708,-0.7551226403675972,0.5394341361384839
1761413847104738000,6.657738037109375,0.08816694375276565,-0.7827752019248903,0.5856401531267911
1761413847114750200,6.667750244140625,0.01174479832947254,-0.8196740229941905,0.6348961322702467
1761413847124763100,6.67776318359375,-0.03154372377693653,-0.8423878129750489,0.6620128333851695
1761413847134776000,6.687776123046875,-0.05546469759047031,-0.895771612638235,0.6701305272586643
1761413847144789200,6.697789306640625,-0.07698504000306129,-0.9383161845095455,0.6452385164558887
1761413847154802200,6.70780224609375,-0.09268120630681514,-0.9755898302406072,0.6190067814819514
1761413847164814000,6.71781396484375,-0.12499591445624827,-0.9946662866324186,0.5740827671281993
1761413847174827000,6.727826904296875,-0.1866951225221157,-0.9285986542239785,0.4861139762960374
1761413847184840200,6.737840087890625,-0.28691549216210843,-0.8172389048017561,0.35493835029155013
1761413847194853000,6.74785302734375,-0.4582265830695629,-0.7278624391287565,0.2453673657159321
1761413847204866000,6.757865966796875,-0.6539145748645067,-0.6230478735662996,0.22517573289014398
1761413847214878200,6.767878173828125,-0.8891437189310789,-0.5473983199506998,0.276834992049355
1761413847224891100,6.77789111328125,-1.0899497843921184,-0.5896003619946539,0.4330511156829074
1761413847234904000,6.787904052734375,-1.1378151128947733,-0.6723788907073438,0.5914117222655564
1761413847244917200,6.797917236328125,-0.9781611420333385,-0.6632648792728781,0.5045905670985579
1761413847254930000,6.807929931640625,-0.8732757031917572,-0.5355708117738366,0.29008303454862905
1761413847264942000,6.817942138671875,-1.028562126493454,-0.46169162883162496,0.16050085174804551
1761413847274955000,6.827955078125,-1.266713880008459,-0.3497783371798694,0.12801170948031357
1761413847284968200,6.83796826171875,-1.503987681645155,-0.23487112440913915,0.15164530858667566
1761413847294981000,6.847981201171875,-1.6927245391279457,-0.08654723359644413,0.14613533125985412
1761413847304994000,6.857994140625,-1.6971289115667343,0.08586465815976262,0.16209984790990128
1761413847315006000,6.868005859375,-1.4842588988244532,0.24201032863929867,0.2511712114227935
1761413847325019100,6.87801904296875,-1.1070593246251343,0.2919571395911276,0.3385731256198138
1761413847335032000,6.888031982421875,-0.677655515936017,0.2583667124174535,0.3968354180395603
1761413847345045000,6.898044921875,-0.3166659027814865,0.20063217019885776,0.3924472660832107
1761413847355058200,6.90805810546875,-0.12117255677580832,0.10643880576342343,0.3514054269250482
1761413847365070000,6.918070068359375,-0.05983633680343627,0.05177504929229617,0.289375653464254
1761413847375083300,6.928083251953125,-0.06087970837652683,0.04491276230737567,0.2574806502979249
1761413847385096200,6.93809619140625,-0.12070552378594875,0.09375658045336603,0.2676632225456647
1761413847395109000,6.948109130859375,-0.2087199073255062,0.1381393275372684,0.3045924935521558
1761413847405121000,6.95812109375,-0.2120920141071081,0.2210739235945046,0.32555436183176933
1761413847415134200,6.96813427734375,-0.12932839070260524,0.34273820941001176,0.3486481641061604
1761413847425147100,6.978147216796875,0.025573417195677756,0.4251170712806284,0.43340413037166
1761413847435160000,6.98816015625,0.23746669386029243,0.5068158419325948,0.5002836271522566
1761413847445173000,6.998173095703125,0.4414221632629633,0.5945489243127405,0.5543410882933065
1761413847455185200,7.00818505859375,0.563770778080821,0.6805405698530376,0.628060441031307
1761413847465198000,7.018197998046875,0.6204308229357004,0.7627012589283287,0.684912720522657
1761413847475211300,7.028211181640625,0.6429594656080008,0.8507600661315023,0.7071935259137302
1761413847485224000,7.038223876953125,0.6002963819235563,0.9037668491758406,0.7179643646445125
1761413847495237000,7.048237060546875,0.5932751049846411,0.9245267286099493,0.752732238099724
1761413847505249000,7.0582490234375,0.6264286020457744,0.9290010975450277,0.7913022072516381
1761413847515262200,7.06826220703125,0.6877034472197294,0.9131373195894062,0.8341603751167654
1761413847525275000,7.07827490234375,0.776564218455553,0.9198834328487515,0.881070740982145
1761413847535288000,7.0882880859375,0.899514890819788,0.8821768025279044,0.9531056112319231
1761413847545301200,7.09830126953125,1.0604589014917611,0.808469907412678,1.0300910165611654
1761413847555313200,7.108313232421875,1.1750924118876456,0.7099452357746661,1.111037434475869
1761413847565326300,7.118326416015625,1.1710182943165302,0.6335068698689341,1.1819894779250024
1761413847575339000,7.128339111328125,1.0780898352503776,0.5874506366148591,1.239806437730044
1761413847585352200,7.138352294921875,0.9523965861797332,0.6041961658410727,1.3368636671639977
1761413847595364000,7.148364013671875,0.787823279094696,0.5910178275771438,1.4215920147702097
1761413847605377300,7.158377197265625,0.6004284838706254,0.6250505916908383,1.5320407868273556
1761413847615390000,7.168389892578125,0.3530523904144764,0.7233715574502945,1.5645304131522775
1761413847625403100,7.178403076171875,0.12704174107015132,0.8322843521118164,1.5636023385219275
1761413847635416000,7.188416015625,-0.06808686327636242,0.8924981439255177,1.5624864862345158
1761413847645428200,7.19842822265625,-0.18387421988248823,0.9439423538282513,1.5017470631115137
1761413847655441200,7.208441162109375,-0.21277882732748984,1.001920495544374,1.4299498010098934
1761413847665454000,7.2184541015625,-0.23486089527606963,1.048055785384029,1.4080666166342795
1761413847675467000,7.228467041015625,-0.2404915946394205,1.1111933556899427,1.400817960680276
1761413847685480200,7.238480224609375,-0.24077391871213913,1.1287583846054972,1.423245919457078
1761413847695492000,7.2484921875,-0.2246580656915903,1.1414638446606695,1.383644269169867
1761413847705505000,7.258505126953125,-0.2274386363208294,1.1379722031526267,1.3079581829361617
1761413847715518000,7.26851806640625,-0.22670915300250052,1.0895932260394097,1.2208751619625835
1761413847725531100,7.27853125,-0.20965572687089443,1.037261127386242,1.1302955310449003
1761413847735544300,7.28854443359375,-0.2152940250188112,0.9802594294868409,1.0539905822604894
1761413847745556200,7.29855615234375,-0.2068687265008688,0.9209276812046766,0.9680280166842042
1761413847755569200,7.308569091796875,-0.22235095779299735,0.8557740949012339,0.9531782380767166
1761413847765582000,7.31858203125,-0.1802595365166664,0.8282939673013985,0.9847150937214493
1761413847775595300,7.32859521484375,-0.10343407098948955,0.7822466480061412,1.0222614189140498
1761413847785608000,7.33860791015625,0.004176993423700332,0.7017391329653561,1.0478694690316914
1761413847795620000,7.3486201171875,0.11483107879459857,0.6504872307643293,1.0138426962673663
1761413847805633000,7.358633056640625,0.21322774013876913,0.5668190597355366,1.011490434052795
1761413847815646200,7.368646240234375,0.27247487887740135,0.48680341986492276,1.0081779485039413
1761413847825659100,7.3786591796875,0.3373252444505691,0.42972047342285513,1.0009523811645806
1761413847835671300,7.38867138671875,0.3770458449423313,0.39771731544062494,0.9481675703078508
1761413847845684000,7.39868408203125,0.37597733892798424,0.34814562141150235,0.9655408760435878
1761413847855697200,7.408697265625,0.3322568551450968,0.3046978170901537,0.9285591259311884
1761413847865710000,7.4187099609375,0.2381342178583145,0.265027631611377,0.8670473301962017
1761413847875723000,7.428722900390625,0.1552893459111452,0.21094927381277084,0.7944266228824853
1761413847885735000,7.43873486328125,0.08557458917200565,0.1587823025934398,0.7507483708061278
1761413847895748000,7.448748046875,0.0888923354178667,0.09518924360498786,0.739204501876235
1761413847905761300,7.45876123046875,0.16291618752777576,0.01975391726195812,0.7517956879019737
1761413847915774500,7.4687744140625,0.24613456896245478,-0.04171279722228646,0.7304924953714013
1761413847925787400,7.478787353515625,0.2924579287201166,-0.052548152556642885,0.6942512614279985
1761413847935799300,7.48879931640625,0.2405097148180008,-0.06194828745611012,0.6785608672779053
1761413847945812500,7.4988125,0.08242927688360213,-0.06401135746575892,0.6229517927806824
1761413847955825400,7.508825439453125,-0.12695523183047772,-0.008796981374546885,0.5757209627892822
1761413847965838300,7.51883837890625,-0.38026422246694563,0.04638137355521321,0.5135377340661361
1761413847975851300,7.528851318359375,-0.5513303987026215,0.0937097456369549,0.4260641428723931
1761413847985863400,7.538863525390625,-0.6822235545039177,0.17488083915300667,0.3429989427054301
1761413847995876400,7.54887646484375,-0.8294529280781745,0.19795498687885701,0.29934863808192314
1761413848005889500,7.5588896484375,-0.9601303953021764,0.20920009205788373,0.2150753407668322
1761413848015902200,7.568902099609375,-1.0785884324222803,0.195010165598616,0.1286840649170801
1761413848025915400,7.578915283203125,-1.1190852779835463,0.167773126039654,0.02546086019929498
1761413848035927300,7.58892724609375,-1.0647715039938688,0.12116466573029756,-0.04966708069499582
1761413848045940500,7.5989404296875,-0.9365916988044977,0.06327464068904519,-0.10543920026682317
1761413848055953200,7.608953125,-0.768149441331625,0.03929448403418064,-0.11964976765532045
1761413848065966300,7.61896630859375,-0.6086977150440216,0.01606616865992546,-0.1751948735382408
1761413848075978200,7.628978271484375,-0.5046908126026391,-0.011155454134196042,-0.19880849843565374
1761413848085991400,7.638991455078125,-0.4111269782423973,0.021642653618007896,-0.19911365539468823
1761413848096004400,7.64900439453125,-0.3955494698822498,-0.005814531497657299,-0.14068429931234566
1761413848106017300,7.659017333984375,-0.4230997401088476,-0.16721096211224792,0.13526322411168365
1761413848116030500,7.669030517578125,-0.29411154114603993,-0.3841086229354143,0.4271521573048085
1761413848126042400,7.67904248046875,-0.015143793118000029,-0.5347480972141028,0.48370033928304906
1761413848136055600,7.6890556640625,0.22480478068590162,-0.6225231190398335,0.4121715188592672
1761413848146068200,7.699068115234375,0.2827215476036072,-0.6383718455567956,0.2897203569823876
1761413848156081400,7.709081298828125,0.3003524813622236,-0.6474661293774843,0.025567060520127412
1761413848166094300,7.71909423828125,0.23132979854047298,-0.6558870439812541,-0.206289684503898
1761413848176106500,7.7291064453125,-0.16953998958170413,-0.6219682616360486,-0.3403101785454899
1761413848186119400,7.739119384765625,-0.660133887770772,-0.3813482183113694,-0.40007966065779327
1761413848196132400,7.74913232421875,-1.11156189674139,-0.09917655967548489,-0.4089419623535126
1761413848206145300,7.759145263671875,-1.3888491443365811,0.19591741663664577,-0.2924308945827186
1761413848216158500,7.769158447265625,-1.5299252559781074,0.5135794908486306,-0.038221009583771226
1761413848226170400,7.77917041015625,-1.5387012676298617,0.8005169025816022,0.20812340273708105
1761413848236183300,7.789183349609375,-1.4118220236450434,0.998145653180778,0.4146125553358346
1761413848246196200,7.7991962890625,-1.1094453429788351,1.1133121014095841,0.5030734405338764
1761413848256209400,7.80920947265625,-0.8646399767935276,1.1645168034680187,0.7049663513835519
1761413848266221300,7.81922119140625,-0.5709124665290117,1.1549291831724344,0.7907621090255678
1761413848276234500,7.829234375,-0.27492636368274687,1.099581536090374,0.7176597556747496
1761413848286247200,7.8392470703125,-0.04813011691868305,0.9928782341718673,0.6300793796382844
1761413848296260400,7.84926025390625,0.14506021284162998,0.8845758264936506,0.5329246811792254
1761413848306273500,7.8592734375,0.3465887473583221,0.7867506814271211,0.44089284215923397
1761413848316285400,7.869285400390625,0.5731383258849382,0.7295932084441185,0.3698826022494584
1761413848326298000,7.879298095703125,0.7760223666638135,0.6522538020454347,0.291639470210392
1761413848336311300,7.889311279296875,0.9706225632220506,0.6224282803632318,0.252492157828249
1761413848346324500,7.899324462890625,1.0698954228788613,0.5944486788086593,0.25681915418189016
1761413848356337400,7.90933740234375,1.0553981109708548,0.5557381321422755,0.2687465425366536
1761413848366349600,7.919349609375,0.9760743988871574,0.5385099339656532,0.2648746878056787
1761413848376362200,7.9293623046875,0.8267997832208871,0.5386084259040653,0.23485926957456393
1761413848386375400,7.93937548828125,0.6265753170400857,0.5146358680337667,0.1852308951884508
1761413848396388400,7.949388427734375,0.4503472279965877,0.47807723870426416,0.14596381061784922
1761413848406401300,7.9594013671875,0.29988369480669497,0.4564727251395583,0.08929019389534369
1761413848416413200,7.9694130859375,0.22827216453552246,0.4520164763830602,0.016071447623241693
1761413848426426400,7.97942626953125,0.14904665212929247,0.44129941366612907,-0.03366312708370387
1761413848436439300,7.989439208984375,0.005631283885240554,0.4586418858721852,-0.08922792404778301
1761413848446452500,7.999452392578125,-0.16841420042216776,0.5564490568906069,-0.12115827252212912
1761413848456464400,8.00946435546875,-0.3683259473919868,0.6410897262133658,-0.1221340039527975
1761413848466477300,8.019477294921876,-0.5846124905794858,0.7137745848044753,-0.04860224620876834
1761413848476490200,8.029490234375,-0.7637035678386688,0.8165751801960169,0.0543244049815461
1761413848486503400,8.03950341796875,-0.8668225815296172,0.9295159151993692,0.15804142109826205
1761413848496516400,8.049516357421876,-0.8727806131511926,1.0130804797232151,0.2567518245667219
1761413848506528300,8.0595283203125,-0.8221125021874904,1.050123385438323,0.37836576843447983
1761413848516541200,8.069541259765625,-0.7105611757159233,1.034088927090913,0.45315753617696464
1761413848526554400,8.079554443359376,-0.5309264930993318,1.0363485425859689,0.5174066479213536
1761413848536567600,8.089567626953125,-0.3388426632761955,0.9665417236492038,0.5724347441928461
1761413848546580200,8.099580322265625,-0.17948796762228011,0.871901492229104,0.5956611598709598
1761413848556592400,8.10959228515625,-0.052097851505875585,0.7446535610623657,0.5930961682211607
1761413848566605300,8.119605224609375,0.0688368048608303,0.6109634680189192,0.5407115356631577
1761413848576618500,8.129618408203125,0.1541746626675129,0.4919439976237714,0.5110605668302625
1761413848586631400,8.13963134765625,0.21521803717315197,0.38393838093504307,0.47788010869696734
1761413848596644400,8.149644287109375,0.30472879675030706,0.3041147565051913,0.4589259635105729
1761413848606656300,8.15965625,0.40760991003215313,0.26901187894195316,0.4054729710686952
1761413848616669400,8.16966943359375,0.4645657229632139,0.24150661690086125,0.42151780467964706
1761413848626682400,8.179682373046875,0.5002759187698363,0.2275454576961696,0.4465180250972509
1761413848636695300,8.1896953125,0.5345417609870433,0.2278790735647082,0.44163091064281756
1761413848646707200,8.199707275390624,0.5445587126106024,0.24880977952107786,0.42926922252401706
1761413848656720400,8.209720458984375,0.5648159032195806,0.23786942944228648,0.42446087239421904
1761413848666733300,8.2197333984375,0.5589636700600386,0.24354674442633986,0.4274306089200079
1761413848676746500,8.22974658203125,0.5707686741441488,0.23933701777681707,0.4060683796785772
1761413848686759400,8.239759521484375,0.6432967347383499,0.18489435671046375,0.39075544053874905
1761413848696771300,8.249771240234375,0.7353314598351717,0.1531380130961537,0.37980887991487977
1761413848706784300,8.2597841796875,0.7975631673425435,0.11144625866189599,0.40630445345677435
1761413848716797400,8.26979736328125,0.7939110745757818,0.07765987052470445,0.45607020875327287
1761413848726810400,8.279810302734376,0.7779641483813524,0.06626710050329565,0.5119623379755764
1761413848736823300,8.2898232421875,0.6851964328348636,0.053830666647851466,0.5563404088843613
1761413848746835500,8.29983544921875,0.5065682969123125,0.05814984502121806,0.5879253414545208
1761413848756848400,8.309848388671876,0.3107400198638439,0.04429316910430789,0.627325039428845
1761413848766861300,8.319861328125,0.13289280518591404,0.0574858281545341,0.6395008495867252
1761413848776874200,8.329874267578125,0.004228431349992752,0.02956964722499251,0.6551954084552825
1761413848786887400,8.339887451171874,-0.05523965666294098,0.010890519587695598,0.7026480645038187
1761413848796899300,8.3498994140625,-0.10112111787199973,-0.013490911344438791,0.7184292787425219
1761413848806912500,8.35991259765625,-0.10405834036767482,-0.026506752523034808,0.7016220824569463
1761413848816925200,8.36992529296875,-0.09744155257642269,-0.07656812976524234,0.6682748894546181
1761413848826938400,8.3799384765625,-0.0169967275083065,-0.09732684015557169,0.6297845614101737
1761413848836950300,8.3899501953125,0.06543722555041313,-0.1448915782764554,0.6002172157401219
1761413848846963500,8.39996337890625,0.0987871219664812,-0.2306434237115085,0.6150577515952289
1761413848856976400,8.409976318359375,0.13660393466353415,-0.2791854824319482,0.5640453572385012
1761413848866989300,8.4199892578125,0.15839841784238815,-0.31035832706987854,0.5192404026871547
1761413848877002200,8.430002197265624,0.17347674450874329,-0.32871056084036826,0.4835283071843907
1761413848887014400,8.440014404296875,0.1852443391919136,-0.38137949023246764,0.45484815614502877
1761413848897027300,8.45002734375,0.18929799849689005,-0.4043076536163687,0.4362413265589624
1761413848907040300,8.460040283203124,0.1833873131483793,-0.39869083664789795,0.43753282767422497
1761413848917053400,8.470053466796875,0.1672527554273605,-0.38881241671219463,0.45209491191413254
1761413848927066400,8.48006640625,0.1326110656350851,-0.37442674848511814,0.472524426882714
1761413848937078500,8.49007861328125,0.11877426346242427,-0.4036040353916585,0.4397813007207587
1761413848947091500,8.500091552734375,0.13220248483419417,-0.40605405889227986,0.4108075370296836
1761413848957104400,8.5101044921875,0.10021335537731647,-0.4562035528093576,0.4101393554445356
1761413848967117300,8.520117431640625,-0.0029015666604042052,-0.44280046587884425,0.46130193539429454
1761413848977130500,8.530130615234375,-0.1522872414857149,-0.371517583040148,0.5116895489161833
1761413848987142400,8.540142333984376,-0.22370938666462897,-0.3077918375827372,0.5614831055350601
1761413848997155300,8.5501552734375,-0.3077116119533777,-0.2542980016738176,0.576494139118865
1761413849007168300,8.560168212890625,-0.41707682655751704,-0.18649755412340163,0.4249583005223423
1761413849017181400,8.570181396484376,-0.470585713905096,-0.06970657343268394,0.11421331222243607
1761413849027193300,8.580193359375,-0.5190636213481425,-0.06601473317742347,0.00682595529621467
1761413849037206500,8.59020654296875,-0.6184943019151687,-0.2416851883381605,0.26097315032249313
1761413849047219200,8.60021923828125,-0.6502607285320758,-0.4623799033567309,0.645982393625751
1761413849057232400,8.610232421875,-0.5721978301644325,-0.5282644342832267,0.7553979501776397
1761413849067245600,8.62024560546875,-0.5341781883716583,-0.48584348879158495,0.6508537990543991
1761413849077257500,8.630257568359376,-0.626964608618617,-0.5144326005466282,0.557196295061335
1761413849087270400,8.6402705078125,-0.824946264308691,-0.5815653779685497,0.5358153611194342
1761413849097283300,8.650283447265625,-0.994609588009119,-0.5444412237107753,0.5842012063648552
1761413849107296500,8.660296630859374,-1.1571306387394666,-0.43257805481106043,0.5215273811131715
1761413849117309400,8.670309326171875,-1.2431862894266843,-0.26457842653915287,0.4623682859841734
1761413849127321600,8.680321533203125,-1.2568845599114895,-0.1495841200068593,0.5031453367263078
1761413849137334300,8.690334228515624,-1.1799579720973967,0.1184274958513677,0.39053580643869934
1761413849147347500,8.700347412109375,-0.9946329688847064,0.37195933545827864,0.27639636317007243
1761413849157360400,8.7103603515625,-0.7534802799880504,0.4758196690358221,0.32864158725738524
1761413849167372500,8.72037255859375,-0.5281926842212676,0.4965015147976577,0.45564142541456965
1761413849177385200,8.73038525390625,-0.32949440469443797,0.597385462912917,0.5493821141790598
1761413849187398400,8.7403984375,-0.1774193446546793,0.6957824165180325,0.6599310586750506
1761413849197411300,8.750411376953124,-0.029592005187273025,0.8037422943688929,0.746935826780647
1761413849207424500,8.760424560546875,0.12081015320420264,0.8593447929948568,0.8370021744139492
1761413849217436400,8.7704365234375,0.274019770231843,0.8935318708874285,0.9282653306163847
1761413849227449300,8.780449462890624,0.48798517699539656,0.9254885593794285,1.0151312747731804
1761413849237462300,8.790462158203125,0.733922762081027,0.9525663897886871,1.0779203239023685
1761413849247475500,8.800475341796876,0.9330839829444885,0.9629138885408639,1.1280435143344103
1761413849257488400,8.81048828125,1.0381085379958153,0.9803764799952507,1.2039436817102134
1761413849267500300,8.820500244140625,1.1589707136482,0.9910442967429757,1.2802407394491135
1761413849277513500,8.830513427734376,1.3623241255044936,1.0367357883378863,1.3248876904271543
1761413849287526400,8.8405263671875,1.601626218098402,1.0197076427780092,1.3863546971723437
1761413849297539600,8.85053955078125,1.7770529276311398,0.9900403803974389,1.4777078697457908
1761413849307552300,8.86055224609375,1.8733903183579443,0.94729254103899,1.4839660533577204
1761413849317564400,8.870564453125,1.963065913107991,0.9548610765971243,1.3992957195490598
1761413849327577300,8.880577392578125,1.9683704492568967,0.9805521288231015,1.39880574407503
1761413849337590500,8.890590576171874,1.8738690417855977,0.9807103881247341,1.4187645362593233
1761413849347603200,8.900603271484375,1.7311118451893328,1.0281061994194984,1.4406163025833665
1761413849357615400,8.910615478515625,1.5223773248165844,1.1184830743066967,1.4665630831360816
1761413849367628300,8.920628173828124,1.1924275775700808,1.2227486276842654,1.4387607378445564
1761413849377641500,8.930641357421875,0.8066700183838605,1.3320828626282513,1.392146432316303
1761413849387654400,8.940654296875,0.4174433217823505,1.447057149285823,1.3730296439141034
1761413849397667300,8.950667236328124,0.08564765440821648,1.4892555380679666,1.3429226749420164
1761413849407679200,8.96067919921875,-0.2356289570391178,1.5418680610977111,1.3102512623094023
1761413849417692400,8.9706923828125,-0.6136363404899835,1.5910538245491683,1.2419281060591338
1761413849427705300,8.980705322265624,-0.9785013337731361,1.6525538567811249,1.15943022091873
1761413849437718300,8.99071826171875,-1.3031594043523071,1.7020179987825452,1.114914933496341
1761413849447731500,9.0007314453125,-1.5757313138633966,1.7128034505605696,1.060548260275647
1761413849457743400,9.010743408203124,-1.7457699006170033,1.6751560030810535,1.014135395603627
1761413849467756500,9.020756591796875,-1.8335311861783266,1.6189491088211536,0.9944935604140162
1761413849477769500,9.03076953125,-1.7983084816277026,1.5732177236072717,0.9318976227041333
1761413849487782400,9.040782470703125,-1.6116642125099896,1.495436418659985,0.8647052240494638
1761413849497795300,9.05079541015625,-1.3557295495450497,1.4048521846324205,0.8063340644277632
1761413849507807500,9.060807373046876,-1.1403004999697208,1.2911599006094037,0.748556779045984
1761413849517820400,9.0708203125,-1.020835331633687,1.1737826444633304,0.6598294979967176
1761413849527833300,9.080833251953125,-0.9689519996613264,1.0436575504250825,0.5944391072627156
1761413849537846300,9.09084619140625,-0.9252876299798488,0.9092389969766139,0.5127816184692084
1761413849547858400,9.1008583984375,-0.8997206425249576,0.790352213050425,0.4365951814979315
1761413849557871400,9.110871337890625,-0.821826086461544,0.7157933772809804,0.355380175774917
1761413849567884500,9.120884521484374,-0.7131278113335371,0.6654128510870039,0.3091603494569659
1761413849577897200,9.130897216796875,-0.5863906061679125,0.6170153154037893,0.2715503844436258
1761413849587910400,9.140910400390625,-0.45222003613114353,0.5602369048662483,0.26272527295313775
1761413849597922300,9.15092236328125,-0.3495306460291147,0.46367695742994547,0.23790654658228158
1761413849607935500,9.160935546875,-0.21296879694163798,0.3810788998506963,0.2513714101700112
1761413849617948400,9.170948486328125,-0.06141513042747974,0.33838235228806735,0.24336455625984815
1761413849627961300,9.18096142578125,0.02338730532824993,0.2809849330693483,0.21660927233584223
1761413849637974500,9.190974609375,0.08241641740202903,0.2519935241237283,0.2042055351736024
1761413849647986400,9.200986328125,0.09285305574238299,0.21157471223473548,0.18882749490831047
1761413849657999400,9.210999267578124,0.0362374345511198,0.2192912779614329,0.16091741492599249
1761413849668012300,9.22101220703125,-0.05664192467629909,0.184825821518898,0.13142850478701293
1761413849678025500,9.231025390625,-0.09626841714382171,0.16913929982632397,0.1630637793049216
1761413849688037400,9.241037353515624,-0.0872585967361927,0.1858519496962428,0.19690171496625988
1761413849698050600,9.251050537109375,-0.03996025446653366,0.18901728185936809,0.23633562573743983
1761413849708063500,9.2610634765625,0.04246726885139942,0.21990634111985563,0.2840375621056184
1761413849718076400,9.271076416015624,0.10624562127888203,0.22313699360415337,0.3206316280746832
1761413849728089300,9.28108935546875,0.1651543218433857,0.1935262837164104,0.36040392222106454
1761413849738101500,9.2911015625,0.12993804703354836,0.18976108596399424,0.3571697991380468
1761413849748114400,9.301114501953125,0.0421194783270359,0.20124051135554907,0.32474085349179804
1761413849758127400,9.31112744140625,-0.08131868529319762,0.14717179816812276,0.2874141441329382
1761413849768140300,9.321140380859376,-0.1419184076845646,0.09396759285554289,0.26474790135454385
1761413849778153500,9.331153564453125,-0.14333938039839267,0.05021262228116393,0.2323176770666614
1761413849788165400,9.341165283203125,-0.12044599606692791,0.011513181530684232,0.19381290037175639
1761413849798178600,9.351178466796876,-0.06590308949649333,-0.037854368228465315,0.14564895424870775
1761413849808191200,9.361191162109375,-0.024044892454147336,-0.06859028275385498,0.10961142618386074
1761413849818204400,9.371204345703125,0.031442016968131065,-0.10801409225612878,0.10709087646398693
1761413849828217600,9.381217529296874,0.10053776502609252,-0.1215969196677208,0.0801343343468383
1761413849838229500,9.3912294921875,0.1655330920279026,-0.1590029596067965,0.10192815993856638
1761413849848242200,9.4012421875,0.1871475424647331,-0.18041764968782661,0.13116858434234746
1761413849858255400,9.41125537109375,0.14926467879414557,-0.17055150471180677,0.12361376678231172
1761413849868268500,9.4212685546875,0.10844050097465514,-0.12878566212803125,0.12051144425226375
1761413849878280400,9.431280517578125,0.043161680856347084,-0.0877088247217238,0.09250931120547465
1761413849888293600,9.441293701171874,-0.0313707052975893,-0.09356456501260399,0.0849697368803434
1761413849898306300,9.451306396484375,-0.10528232920467853,-0.0899731163918972,0.0878549095283728
1761413849908319700,9.46131982421875,-0.16763620178699493,-0.08500234224200248,0.14489236372774467
1761413849918333000,9.4713330078125,-0.22809680796861648,-0.21164003255590796,0.36101401694342494
1761413849928344800,9.4813447265625,-0.15345686978697776,-0.4404200004830956,0.5597555510900915
1761413849938357800,9.491357666015626,0.060953942656517025,-0.5782099300608039,0.6104305667186155
1761413849948370700,9.50137060546875,0.1922580173462629,-0.6974559026882052,0.5389269903339445
1761413849958383900,9.5113837890625,0.22944062379300592,-0.8418399698339403,0.4910018214028328
1761413849968396500,9.521396484375,0.17052023279070852,-0.9485853573285042,0.4582971640877425
1761413849978408700,9.53140869140625,0.12612696431279183,-0.9406230001471936,0.29094597152089696
1761413849988421600,9.541421630859375,0.0512777672946453,-0.8103408158510923,0.1327828968043439
1761413849998434800,9.551434814453126,-0.170670454916358,-0.7303862585179507,-0.10531977513823658
1761413850008447700,9.56144775390625,-0.5131792394846677,-0.5857062771655619,-0.3196335934806615
1761413850018460000,9.5714599609375,-0.8611386906743049,-0.3544884145669639,-0.3786490423552692
1761413850028472600,9.58147265625,-1.0930267076194287,-0.14125161433890462,-0.34631201277617363
1761413850038485800,9.59148583984375,-1.184051378890872,0.07454524563550949,-0.2404950287055224
1761413850048498700,9.601498779296875,-1.149485092422366,0.2407346096150577,-0.16802609615372494
1761413850058511600,9.61151171875,-0.9917734878003597,0.4182831336073577,-0.1609632998943329
1761413850068523500,9.6215234375,-0.7942161950021982,0.5758059376589953,-0.1082059615664184
1761413850078536700,9.63153662109375,-0.6074304715871811,0.6834696090422571,-0.06780046581672504
1761413850088549600,9.641549560546874,-0.3773287535369396,0.7435948457896709,-0.02206000224724412
1761413850098562800,9.651562744140625,-0.15309855786859988,0.7436155963167548,0.01645447385776788
1761413850108575700,9.66157568359375,0.1065600940555334,0.6853190363012254,-0.003640658057294786
1761413850118587600,9.671587646484374,0.40603170092999935,0.580062426059693,-0.05834175086412578
1761413850128600800,9.681600830078125,0.723629916125536,0.4449235955126583,-0.04071012298576534
1761413850138613800,9.69161376953125,0.894949190339446,0.3519197331227362,-0.034682021802663804
1761413850148626700,9.701626708984374,1.0131377628684044,0.29048794382140036,-0.0717504638178274
1761413850158638600,9.711638671875,1.0471768105924129,0.24220950447320938,-0.10503145971614866
1761413850168651800,9.72165185546875,0.9611801966160535,0.2049637696623802,-0.08288860149104148
1761413850178664700,9.731664794921874,0.8190197968691587,0.1923489105001092,-0.07835311348587275
1761413850188678000,9.741677978515625,0.5956833351701498,0.1785226297214627,-0.1314944826953113
1761413850198690600,9.751690673828126,0.3394084804654121,0.18267054318115114,-0.16447510740756988
1761413850208702700,9.76170263671875,0.13891454969346523,0.17717223802581428,-0.17352131430283188
1761413850218715600,9.771715576171875,-0.01307458562850952,0.1965831870689988,-0.19217194649800656
1761413850228728800,9.781728759765626,-0.06519523348808288,0.21502558334097266,-0.26370679480377585
1761413850238741800,9.79174169921875,-0.024847441008687018,0.242123433624953,-0.28106366086136547
1761413850248754700,9.801754638671875,0.09008534459471702,0.20906857463270426,-0.2654924361115321
1761413850258766600,9.8117666015625,0.1965285342723131,0.1745231848217547,-0.28740112025458364
1761413850268779800,9.82177978515625,0.24102467860281465,0.18800386703312397,-0.3504080499181524
1761413850278792700,9.831792724609375,0.1994482211112976,0.2373883679270744,-0.40387631299439813
1761413850288805600,9.8418056640625,0.03639291737377643,0.2831400652766228,-0.44583570538889616
1761413850298817500,9.851817626953125,-0.1681394751340151,0.3641270343974232,-0.4263755103765055
1761413850308830700,9.861830810546875,-0.37692251082360745,0.4282278967775404,-0.3855480080887675
1761413850318844000,9.871843994140624,-0.5223182392299175,0.5379346182957291,-0.32125564172454174
1761413850328856800,9.88185693359375,-0.6021557460546493,0.6274968157991767,-0.22433157368358222
1761413850338869800,9.891869873046875,-0.5895441017627716,0.6939359118685126,-0.11299001750517636
1761413850348881700,9.901881591796876,-0.43105625207126136,0.7315555945582688,0.03643398003652692
1761413850358894800,9.911894775390625,-0.15708791976571082,0.6595059651307761,0.16576518375072627
1761413850368907800,9.92190771484375,0.19091069439053535,0.5492933399170636,0.21551625293474644
1761413850378920700,9.931920654296874,0.5038514391690493,0.40135479516014455,0.2617973809858784
1761413850388933600,9.94193359375,0.7705132478535175,0.22284780139923094,0.26008243029415606
1761413850398945800,9.95194580078125,0.9342483505487441,0.05073211611062288,0.2763541679961607
1761413850408958700,9.961958740234374,0.9931085357964038,-0.038623160643875595,0.20492226860821247
1761413850418972000,9.971971923828125,0.9995452908456325,-0.21998086766079067,0.18476335074193775
1761413850428984600,9.981984619140626,0.9703864163786172,-0.3578456160403788,0.16836623309459536
1761413850438996700,9.991996826171874,0.9419500109672546,-0.337212577856332,0.07161383182611317
1761413850449009700,10.002009765625,0.8925579112887382,-0.3712625853657722,0.03659899787250906
1761413850459022800,10.01202294921875,0.872929081711173,-0.4074496049039066,0.03865450563021004
1761413850469035500,10.022035400390624,0.8616910638600588,-0.3906856632381677,0.015579809915088116
1761413850479048700,10.032048583984375,0.8871651123344898,-0.397624814851582,0.021545148060284555
1761413850489060600,10.042060546875,0.9837222832918167,-0.3791634216181934,0.019371786076575515
1761413850499073800,10.05207373046875,1.0839128423154354,-0.40539208785220976,0.03190046479273587
1761413850509086700,10.062086669921875,1.10024146130383,-0.40972558701187367,0.02691438347585499
1761413850519099600,10.072099609375,1.0175205079972744,-0.40181393710449337,0.02307089632283896
1761413850529112800,10.08211279296875,0.8180079894781113,-0.3828773275747895,-0.0017664616832509636
1761413850539124700,10.092124755859375,0.6166647484004497,-0.3560908813275397,-0.005561141258478165
1761413850549138000,10.102137939453126,0.46368718656301494,-0.307932122836262,-0.024921419560350475
1761413850559150600,10.112150634765625,0.3973521353900432,-0.31295988787040113,-0.02924512797836214
1761413850569163800,10.122163818359375,0.3530377773672342,-0.2926991901300847,-0.011900390749983489
1761413850579175700,10.13217578125,0.33020459879040714,-0.35219884232506155,-0.022761209319159387
1761413850589188900,10.14218896484375,0.31290391989946365,-0.4183228810958564,-0.024069186645187438
1761413850599201800,10.152201904296875,0.3035685207992792,-0.4810713059537112,0.016384513894096016
1761413850609214700,10.162214599609374,0.3203337776392698,-0.5751335913553833,0.08125289004798979
1761413850619227600,10.1722275390625,0.3689887952148914,-0.6368989965252578,0.1395712965691462
1761413850629239800,10.18223974609375,0.3740349726885557,-0.7159409690581262,0.14632665258087216
1761413850639252700,10.192252685546874,0.27343407929837704,-0.8195648635312914,0.14873733045179396
1761413850649265700,10.202265625,0.13975333860516548,-0.8429236734174191,0.1409746605610475
1761413850659278600,10.212278564453126,-0.021927754169702527,-0.8878479800321161,0.07307358391406014
1761413850669291800,10.222291748046874,-0.2510106505662203,-0.8171160090744495,0.09211641203090548
1761413850679303700,10.2323037109375,-0.6930728652983903,-0.8338787816964089,-0.07835126858865842
