time,seconds_elapsed,z,y,x
1761413818643095300,0.07309521484375,0.05028291103839874,-0.2561084851618856,0.2602988129911944
1761413818653108500,0.0831083984375,0.1352946056306362,-0.22446590412035583,0.3416165484363213
1761413818663121200,0.09312109375,0.1806774696677923,-0.2192950773537159,0.40587603544425216
1761413818673134300,0.10313427734375,0.19884440999925135,-0.18991751863472162,0.45002928462121633
1761413818683146200,0.113146240234375,0.189775552880764,-0.17302753943651913,0.43317781080249695
1761413818693159400,0.123159423828125,0.16235037033855915,-0.1653008907072246,0.42737486014477905
1761413818703172400,0.13317236328125,0.14731938994526864,-0.16261106710135936,0.4078584779657423
1761413818713185300,0.143185302734375,0.11755670436620712,-0.17019100083634256,0.398044172774814
1761413818723198500,0.153198486328125,0.09059680124819278,-0.1860154696948826,0.38789570372607557
1761413818733211400,0.16321142578125,0.08920388558506966,-0.23318558247499166,0.43476493386346843
1761413818743224300,0.173224365234375,0.07522972076833248,-0.31786081165447827,0.46720385291446
1761413818753237200,0.1832373046875,0.09103227005600929,-0.39414537523798643,0.4995727389365434
1761413818763249400,0.19324951171875,0.08591302734613418,-0.4161485327314585,0.5415724998740479
1761413818773262300,0.203262451171875,0.07071721177995205,-0.44193961126580833,0.5120756986895576
1761413818783275300,0.213275146484375,0.06840835031569004,-0.48694925807639955,0.48494712447375055
1761413818793288200,0.2232880859375,0.01422317114174366,-0.48901313180364664,0.5045714605392888
1761413818803301400,0.23330126953125,-0.08329962997734547,-0.47469702168144284,0.5017694452632219
1761413818813314600,0.243314453125,-0.18774843096733093,-0.483161044774577,0.4839307139728218
1761413818823327200,0.2533271484375,-0.23763386712074278,-0.4580438469137996,0.5035343360438943
1761413818833340400,0.26334033203125,-0.21487726091146467,-0.4790753828961402,0.5468274612601847
1761413818843352300,0.273352294921875,-0.11397358518242835,-0.4898977326184511,0.5688140329450369
1761413818853365500,0.283365478515625,0.0027022446960210797,-0.5143032020132988,0.5824721540825442
1761413818863378200,0.293378173828125,-0.0015530746608972549,-0.569381092243269,0.5651434546735138
1761413818873391400,0.303391357421875,0.033092122262716295,-0.6253741976220161,0.5294303727900609
1761413818883404000,0.313404052734375,0.09245850346684455,-0.6558196778334677,0.5476836762307211
1761413818893417000,0.3234169921875,0.06370645623505115,-0.6918219884544611,0.5452662398254499
1761413818903430000,0.333429931640625,0.08400105624496937,-0.6869723564662039,0.5185134035868569
1761413818913441800,0.34344189453125,0.11205635338425636,-0.6792712805695832,0.5050168296866119
1761413818923455000,0.353455078125,0.16286942577660082,-0.7135710250563919,0.48354014375265686
1761413818933468000,0.363468017578125,0.2005769328802824,-0.7531502443160861,0.4414502203136682
1761413818943481000,0.373481201171875,0.22356559427976608,-0.7629486578181386,0.4176260579381138
1761413818953494000,0.383493896484375,0.2735831323802471,-0.7505794439800083,0.3886288037735969
1761413818963507000,0.3935068359375,0.34129356355965135,-0.7745750904649495,0.41348884853553025
1761413818973520100,0.40352001953125,0.4097796552866697,-0.8012560305111109,0.4598221451653167
1761413818983532800,0.41353271484375,0.506416321220994,-0.7847893182262777,0.4971439774196595
1761413818993545000,0.423544921875,0.5840338139086961,-0.7963789990592748,0.49787093998733906
1761413819003558000,0.433557861328125,0.6621335371553897,-0.8225910794846714,0.4953652773093432
1761413819013571000,0.443571044921875,0.6876619461655616,-0.8395050971455872,0.4980852037925273
1761413819023584000,0.453583984375,0.6704027683287859,-0.8517028999395668,0.47488819687198847
1761413819033597000,0.463596923828125,0.597960047930479,-0.8643558260899037,0.4571669179487973
1761413819043609900,0.47360986328125,0.556541995871067,-0.854054431501776,0.44462680452317
1761413819053623000,0.483623046875,0.510586300382018,-0.8745685925465077,0.4523862230109051
1761413819063636000,0.493635986328125,0.4656716383785009,-0.9070780926156788,0.45845721348766233
1761413819073647900,0.50364794921875,0.4589309319466352,-0.9234434634178876,0.4285654581688344
1761413819083661000,0.5136611328125,0.4248217415958643,-0.9672278062172234,0.39407738803569226
1761413819093674000,0.523674072265625,0.3229132727384567,-0.9966301340512931,0.36594029436446723
1761413819103687200,0.533687255859375,0.20895839225649832,-1.0228005672920495,0.3423906380813569
1761413819113699800,0.543699951171875,0.04952127901613712,-1.046311791260913,0.31892716224435713
1761413819123713000,0.553713134765625,-0.08041209184229374,-1.0052100386090577,0.28141035540718584
1761413819133726000,0.563725830078125,-0.2048287451058626,-1.0015900945462286,0.28450448549762364
1761413819143738000,0.573738037109375,-0.2878741080611944,-1.00451562660411,0.3024344022028148
1761413819153750800,0.583750732421875,-0.348413040176034,-1.0137111057769506,0.3400063002280891
1761413819163764000,0.593763916015625,-0.3624181846529245,-0.9945789736751467,0.31522761360667645
1761413819173777000,0.60377685546875,-0.3558049039930105,-0.9727901165194809,0.24105171274021267
1761413819183790000,0.6137900390625,-0.42080666073560713,-0.9469956039190291,0.2249322064578533
1761413819193803000,0.623802978515625,-0.5767436569005251,-0.9178244544923305,0.16818229136243462
1761413819203816000,0.63381591796875,-0.7565168712049722,-0.8615911106169223,0.10654957266151904
1761413819213829000,0.6438291015625,-0.9305079949766397,-0.752324314885959,0.016972835176065564
1761413819223841000,0.653841064453125,-1.0459154123544692,-0.6580115618545561,-0.004513531901687383
1761413819233854000,0.66385400390625,-1.0884843880146742,-0.5343753183789551,-0.005810366779193282
1761413819243867000,0.673866943359375,-1.0579390276253222,-0.4155136688940227,-0.03000270488001406
1761413819253880000,0.683880126953125,-0.9579799392700195,-0.4294995972137898,-0.09076185561679304
1761413819263893000,0.69389306640625,-0.7759089694172143,-0.5607844557464122,-0.07751147502996027
1761413819273906000,0.703906005859375,-0.61269175311625,-0.8198563207585364,0.05261975648812949
1761413819283918800,0.7139189453125,-0.45971419127881524,-1.0204888562835752,0.06504596121050417
1761413819293932000,0.72393212890625,-0.27413842817544937,-1.1020482184648512,-0.23050562267601488
1761413819303944000,0.73394384765625,-0.1617541580110788,-1.1775831327248365,-0.513901562409848
1761413819313956900,0.743956787109375,-0.2054004075139761,-1.298643095971644,-0.655655865573883
1761413819323970000,0.753969970703125,-0.2985316956758499,-1.3483110899820923,-0.7550676953099668
1761413819333983000,0.76398291015625,-0.3755886318713426,-1.232057138777524,-0.7835499126244336
1761413819343996200,0.77399609375,-0.40332536458075047,-0.9741713417448102,-0.6670452745944261
1761413819354008800,0.7840087890625,-0.45676001764833923,-0.6312834216658025,-0.5067102626662701
1761413819364022000,0.79402197265625,-0.509390953117609,-0.24307415847852826,-0.3432872946601361
1761413819374034000,0.804033935546875,-0.5069406373560428,0.055059185529500246,-0.19601430113986135
1761413819384047000,0.814047119140625,-0.4514513898462057,0.2637305775381625,-0.05354213203005492
1761413819394059800,0.824059814453125,-0.3531511746138334,0.41591845030263064,0.09288768866434693
1761413819404073000,0.834072998046875,-0.23938334113657472,0.5331562979780137,0.18796945330686865
1761413819414086000,0.8440859375,-0.14438099840581417,0.5645621476542204,0.24327618385665117
1761413819424099000,0.85409912109375,-0.010846972706913947,0.5582027686901391,0.23694383902996777
1761413819434112000,0.864112060546875,0.12701952923834323,0.5309492894530295,0.17006996827255932
1761413819444125000,0.874125,0.25560849975049493,0.4871240301214158,0.10699651271142065
1761413819454136800,0.88413671875,0.3882914615780115,0.44890945027843115,0.10705463610682636
1761413819464150000,0.89414990234375,0.5238192914426326,0.4386597128123045,0.12899342312719672
1761413819474163000,0.904162841796875,0.7025526413053274,0.468140658840537,0.1564011796105653
1761413819484176000,0.91417578125,0.8669540989547967,0.5112786665603518,0.18206972774378954
1761413819494189000,0.92418896484375,1.0142904400348662,0.5469688424922525,0.14093915085624903
1761413819504202000,0.934201904296875,1.143448150345683,0.552784104642272,0.06695785924643277
1761413819514215000,0.94421484375,1.2029933952480554,0.49718613606095313,-0.018444295968115327
1761413819524226800,0.954226806640625,1.1992466099351644,0.40853842305392024,-0.11627714941706507
1761413819534240000,0.964239990234375,1.1666016469180582,0.3280538504973054,-0.20521328744404016
1761413819544253000,0.9742529296875,1.1196902581393717,0.2561409991919994,-0.3038972412969917
1761413819554265900,0.984265869140625,1.066686397704482,0.230024268899858,-0.35319665772337466
1761413819564279000,0.994279052734375,1.0111492193996905,0.214861771081388,-0.4148110005173832
1761413819574292000,1.0042919921875,0.9011416152387857,0.22532310547158121,-0.44069081678111105
1761413819584305200,1.01430517578125,0.818069948798418,0.23985607321485874,-0.5032254162251949
1761413819594317800,1.02431787109375,0.6686912882357835,0.18627353610917924,-0.38210510109327733
1761413819604330000,1.034330078125,0.4663385778546333,0.19274974638596176,-0.3260552240259945
1761413819614343000,1.044343017578125,0.1686176140397787,0.23153744994178413,-0.29280451366808263
1761413819624356000,1.054356201171875,-0.14592413619458675,0.2987256108127534,-0.3325552535697818
1761413819634369000,1.064369140625,-0.48624739341735834,0.3826173614643514,-0.3678349855372682
1761413819644382000,1.0743818359375,-0.7651362309902906,0.4006241427980363,-0.2342780173541978
1761413819654395000,1.084394775390625,-0.960325041091442,0.45317938268259167,-0.13097637710534035
1761413819664408000,1.094407958984375,-1.0493225904494523,0.4770476033955812,-0.017231851438432932
1761413819674420000,1.104419921875,-1.0345043760240078,0.5152751888506114,0.153555727051571
1761413819684433000,1.114432861328125,-0.8250409568548202,0.5140218277886509,0.2685631853263825
1761413819694445800,1.12444580078125,-0.5259142178952694,0.4646218370646238,0.35386239162310956
1761413819704459000,1.134458984375,-0.23744214394092558,0.3766511465363204,0.4105236055217683
1761413819714472000,1.144471923828125,-0.05783493385314941,0.28200843089818955,0.37358364872448147
1761413819724484900,1.15448486328125,0.0825263075172901,0.10836056760624051,0.36449696368835866
1761413819734498000,1.164498046875,0.218173964369297,-0.06016907588914036,0.39446839664727446
1761413819744511000,1.174510986328125,0.33427813183963295,-0.15584186522737145,0.34642055118456483
1761413819754523100,1.184523193359375,0.43182782096564765,-0.2398953823119402,0.3775609548576176
1761413819764535800,1.194535888671875,0.5662421366304159,-0.29025793445780873,0.41693522612974043
1761413819774549000,1.204549072265625,0.709623602604866,-0.3456193178042769,0.41802207151837645
1761413819784562000,1.21456201171875,0.8749924439817667,-0.3957420698449015,0.42675979698635635
1761413819794574800,1.224574951171875,1.0415864432394504,-0.4653117190249264,0.4670102300385013
1761413819804588000,1.234588134765625,1.1789888348042965,-0.5372514583371579,0.4312277727132663
1761413819814601000,1.24460107421875,1.2765104668796061,-0.6185628371067344,0.37208785720877346
1761413819824612900,1.25461279296875,1.2668629330903292,-0.7083673189334571,0.2731835751360282
1761413819834626000,1.2646259765625,1.1693237653583288,-0.8149081237666308,0.1543414340691641
1761413819844639000,1.274638916015625,0.9583528642356395,-0.9035343555942177,0.03345328372530639
1761413819854652000,1.28465185546875,0.7254173840641975,-0.9909542803719639,-0.0790245830066502
1761413819864665000,1.2946650390625,0.5488251378834247,-1.0049142705328762,-0.12960074137058109
1761413819874678000,1.304677978515625,0.4837707741707563,-0.9886261296853422,-0.1273764529172331
1761413819884691500,1.31469140625,0.508715830335021,-0.9578113047048449,-0.048476665334030986
1761413819894704600,1.32470458984375,0.5649520968198776,-0.9117984722010791,0.05547912797462195
1761413819904716500,1.334716552734375,0.6165700558543205,-0.8347793837979436,0.13493388255946337
1761413819914729500,1.3447294921875,0.5418091216415166,-0.8255052133657038,0.20919621960036455
1761413819924742400,1.354742431640625,0.3718289870768785,-0.8195008583843707,0.26147220415212213
1761413819934755600,1.364755615234375,0.18766718242466449,-0.8669953077480197,0.28535028867200013
1761413819944768500,1.3747685546875,0.015399813705682754,-0.9439880196008831,0.3051123892404139
1761413819954781400,1.384781494140625,-0.15587620588839055,-1.0087757682666183,0.3765097653042525
1761413819964794400,1.39479443359375,-0.2711649653226137,-1.0500604032047092,0.40987986425813283
1761413819974806500,1.404806640625,-0.3630488837718963,-1.1072773512899874,0.4673368316443637
1761413819984819500,1.4148193359375,-0.4322755647331476,-1.1270949814379214,0.5016026373289525
1761413819994832600,1.42483251953125,-0.4792530044853687,-1.0790770927220583,0.5583945649351925
1761413820004845600,1.434845458984375,-0.5148153162539005,-1.0465008110269904,0.5812267571313307
1761413820014858500,1.4448583984375,-0.5170592957884073,-1.0169397854998707,0.5646892811652272
1761413820024871700,1.45487158203125,-0.5111386735677719,-0.9805246562942862,0.562212588853389
1761413820034884400,1.46488427734375,-0.5098632468044757,-1.0015011010885237,0.5324207137124612
1761413820044896500,1.474896484375,-0.5663198780417442,-1.0126927955798803,0.4999653184507042
1761413820054909400,1.484909423828125,-0.6926064168304205,-1.0700988364964723,0.5365646816493943
1761413820064922600,1.494922607421875,-0.8302958086431026,-1.2770268919691443,0.7337254859432578
1761413820074935600,1.504935546875,-0.9114251088440418,-1.3652571102164686,0.6577778261639178
1761413820084948500,1.514948486328125,-0.9871353066056966,-1.2067197222948074,0.2344165490420535
1761413820094961400,1.52496142578125,-1.1874012738406658,-0.9774563547648489,-0.05865932891331613
1761413820104974600,1.534974609375,-1.4834095885187386,-0.7760166675753891,-0.10560356051567941
1761413820114987500,1.544987548828125,-1.9243629652261733,-0.6234840730264782,-0.1076051461290568
1761413820124999400,1.55499951171875,-2.4061387661874294,-0.3641422319665551,-0.10148089109510183
1761413820135012400,1.565012451171875,-2.740212315365672,-0.04163783228993415,-0.11095065716467797
1761413820145025500,1.575025634765625,-2.9201977111160753,0.24705066089406608,-0.08494951607622206
1761413820155038700,1.585038818359375,-2.786432214748859,0.5273484884820878,-0.03407726084254682
1761413820165051400,1.595051513671875,-2.3510960934013125,0.7543629080414772,0.021293547919392586
1761413820175064600,1.605064697265625,-1.6778554712980984,0.8859474071078002,0.0935571854237467
1761413820185077500,1.615077392578125,-0.9646867434322833,0.8443804480969905,0.09708163322284817
1761413820195089700,1.625089599609375,-0.4001175084501505,0.7463193023175001,0.04731134788170457
1761413820205102300,1.635102294921875,0.024649288088083265,0.6374390947513282,-0.08792677832134067
1761413820215115500,1.645115478515625,0.2794733594626188,0.5425564328774809,-0.222914363829419
1761413820225128400,1.65512841796875,0.38511633867323397,0.4629916055142879,-0.28803287881948053
1761413820235141600,1.6651416015625,0.3396720998376608,0.4486021378949284,-0.2837594392839819
1761413820245154600,1.675154541015625,0.3172358116239309,0.5214066773429513,-0.22541231812499463
1761413820255167500,1.68516748046875,0.4075888672441244,0.6446537023052573,-0.05375475186742842
1761413820265179400,1.695179443359375,0.6433329750955105,0.7599636506579815,0.13614420819729567
1761413820275192600,1.705192626953125,1.0005343018829822,0.8426752516143023,0.2878949316535145
1761413820285205500,1.71520556640625,1.4928782586097717,0.8462972415037453,0.4382257053092122
1761413820295218400,1.725218505859375,1.9099182602882385,0.7436779940284788,0.5205371279668063
1761413820305231600,1.735231689453125,2.1724878312230107,0.6163545134074986,0.48314380137883123
1761413820315244500,1.74524462890625,2.2577894486725327,0.49157721013799305,0.3700842623014003
1761413820325257500,1.755257568359375,2.063351164677739,0.34713220658525823,0.2322955017674714
1761413820335270400,1.7652705078125,1.632518199968338,0.25128172259256243,0.1457030407898128
1761413820345282600,1.775282470703125,1.0819377428501844,0.2974855476237833,0.10424472978524862
1761413820355295500,1.78529541015625,0.6092307990074157,0.4558759282901883,0.14176007531769572
1761413820365308400,1.795308349609375,0.3009329115986824,0.6694467827782035,0.20382387891225515
1761413820375321300,1.8053212890625,0.13730594545304775,0.8330351704791188,0.29013167772963644
1761413820385334500,1.81533447265625,0.08632745336592197,0.9570885433882474,0.38291013386584816
1761413820395347700,1.82534765625,0.11578151138722896,1.052936543162912,0.4625163892179727
1761413820405360400,1.8353603515625,0.15544482873380183,1.1259960802853106,0.5047038182146847
1761413820415372500,1.84537255859375,0.16749182488024233,1.1233875052221118,0.4703014901362359
1761413820425385500,1.855385498046875,0.06487023931741714,1.0155201279602943,0.4115902849052101
1761413820435398700,1.865398681640625,-0.10775836392939091,0.8480049222044647,0.3148751469071954
1761413820445411300,1.875411376953125,-0.24126959327459335,0.7331332191385328,0.21253778511323035
1761413820455424500,1.885424560546875,-0.3100941231757402,0.6807545048646628,0.16279862556271255
1761413820465437400,1.8954375,-0.3282628170728683,0.6839540315583348,0.13266352647468446
1761413820475450600,1.90545068359375,-0.24344927540123462,0.6646496116295456,0.19210246145837007
1761413820485462500,1.915462646484375,-0.10308628046512604,0.6482581565380096,0.25870003602504726
1761413820495475500,1.925475341796875,0.054306759727001185,0.6196504862129688,0.29877354160770775
1761413820505488400,1.93548828125,0.22930443019270896,0.576796994522959,0.29746742744520305
1761413820515501600,1.94550146484375,0.4251052347123623,0.48036666481569407,0.2505126379162073
1761413820525514500,1.955514404296875,0.6064221713274717,0.3697907592475414,0.20336407938078044
1761413820535527400,1.96552734375,0.7422440157026052,0.24665333213955162,0.17609145705178378
1761413820545540600,1.97554052734375,0.871608646762371,0.13944748752638697,0.13247721012234687
1761413820555552500,1.985552490234375,0.8949310701608657,0.028227731096744535,0.11957820025645195
1761413820565565700,1.995565673828125,0.8476607849419117,-0.06537132070735097,0.10395389361251145
1761413820575578400,2.005578369140625,0.7228530865341425,-0.14259820664227008,0.11836378296539186
1761413820585591600,2.015591552734375,0.6398918947309256,-0.19278306413367388,0.13130907965842634
1761413820595604500,2.0256044921875,0.624900077304244,-0.19860811702534556,0.15924224825538694
1761413820605617400,2.035617431640625,0.6624713908076286,-0.21693331665843724,0.19878814976736903
1761413820615630300,2.04563037109375,0.7412322083115577,-0.25853037854656574,0.23755605264417826
1761413820625643500,2.0556435546875,0.8094798151075839,-0.3052601271480322,0.21768092015534637
1761413820635655400,2.065655517578125,0.8353963466525077,-0.35767990408465267,0.1850654754936695
1761413820645668600,2.075668701171875,0.8298439732223749,-0.38669191742688414,0.15396032579708843
1761413820655681500,2.085681640625,0.7593383583664893,-0.4464458366438746,0.09835154356081038
1761413820665694500,2.095694580078125,0.6254910289347172,-0.5108030118726193,0.03176755912806838
1761413820675707600,2.105707763671875,0.4430646697729826,-0.5136302711877971,0.03730952076204121
1761413820685720300,2.11572021484375,0.20284429329037665,-0.5343493071548641,0.04650258878208697
1761413820695733500,2.1257333984375,-0.01374912388920784,-0.5504413409084081,0.05732318493872881
1761413820705745400,2.135745361328125,-0.18016542849242687,-0.5406457769505679,0.0757617818184197
1761413820715758600,2.145758544921875,-0.27253976080715653,-0.5383819236718118,0.10365746794920414
1761413820725771500,2.155771484375,-0.2811673038989305,-0.5631815800160169,0.14218005429543554
1761413820735784400,2.165784423828125,-0.20739012002646923,-0.5961291792415082,0.14615312264487146
1761413820745797400,2.17579736328125,-0.12955401615202425,-0.6476407552920281,0.12564250526409595
1761413820755810600,2.185810546875,-0.08262509171664714,-0.7173516395736486,0.08036744898296892
1761413820765823500,2.195823486328125,-0.10290800128877162,-0.7455694337982683,0.028404877761937675
1761413820775835400,2.20583544921875,-0.1787736818730831,-0.7453292683668434,-0.04542922392953187
1761413820785848600,2.2158486328125,-0.32803017736077306,-0.7055956622630357,-0.06792838477902113
1761413820795861500,2.225861572265625,-0.5570552060902119,-0.6311604528732597,-0.1193936009371653
1761413820805874700,2.235874755859375,-0.745787971919775,-0.5107168679591269,-0.16779427842553704
1761413820815887400,2.245887451171875,-0.849851572984457,-0.4416870247442275,-0.031277693251892925
1761413820825900500,2.255900634765625,-0.8235545176893472,-0.549827519859001,0.41795729918647556
1761413820835913500,2.26591357421875,-0.5709276640981436,-0.7535756301213056,0.7305927408754825
1761413820845925600,2.275925537109375,-0.2935866404891014,-0.7604344830401242,0.43151258100401607
1761413820855938600,2.2859384765625,-0.28765023617744445,-0.7049853483449667,0.07117675558310002
1761413820865951500,2.295951416015625,-0.5043178876370191,-0.7527649713255464,-0.0722000342162326
1761413820875964400,2.30596435546875,-0.7322861007899045,-0.7953736214090138,-0.2065320784250274
1761413820885977900,2.315977783203125,-0.9476976147085427,-0.7325279467217624,-0.39407877627518023
1761413820895990500,2.325990478515625,-1.1878069320321083,-0.5566590463794767,-0.4408702650012448
1761413820906003700,2.336003662109375,-1.415599204096198,-0.2779842899486422,-0.3771523740567267
1761413820916015600,2.346015625,-1.554105757510662,0.05830379347391426,-0.24572262716069815
1761413820926028800,2.35602880859375,-1.6235136402577162,0.34846827749460935,-0.14256401211172343
1761413820936041700,2.366041748046875,-1.5743389827221632,0.5706846491225064,-0.049702042410522694
1761413820946054700,2.3760546875,-1.6150024170219897,0.7387121883146465,-0.021483115674741565
1761413820956067800,2.38606787109375,-1.5804536662101745,0.8890970302451402,-0.060674943052045995
1761413820966080800,2.396080810546875,-1.4749667543441056,0.9607103871472179,-0.0353449426908046
1761413820976093700,2.40609375,-1.3215256666481494,0.9705635995764285,0.07515384252052754
1761413820986105600,2.416105712890625,-1.159951541379094,0.9803183200672269,0.07417148041967302
1761413820996118800,2.426118896484375,-0.8920458701133728,0.9439598164197057,0.039263065982609986
1761413821006131700,2.436131591796875,-0.5417652824997902,0.8791861693445593,-0.03000014759674668
1761413821016144600,2.44614453125,-0.2008937437444925,0.8011859609495848,-0.10076430379096418
1761413821026157600,2.456157470703125,0.035375849285721774,0.7111112108141183,-0.20265772120971232
1761413821036170800,2.466170654296875,0.1846218233793974,0.6663066581215709,-0.25332784146741033
1761413821046184000,2.476183837890625,0.342515798830986,0.6362373908113688,-0.3065012497829273
1761413821056196600,2.486196533203125,0.4428010504007339,0.6088692722186446,-0.35520825327411293
1761413821066208500,2.49620849609375,0.523721676287055,0.6072456165395677,-0.3950848115125671
1761413821076221700,2.5062216796875,0.6145259828060865,0.6393932975590229,-0.41834008795898403
1761413821086235000,2.51623486328125,0.7228326282680034,0.6774623314514756,-0.44467612355761227
1761413821096247600,2.52624755859375,0.8497621411353349,0.7007207497030497,-0.4160092338586226
1761413821106260700,2.5362607421875,0.9428566044181584,0.7070053829304873,-0.35301231413241474
1761413821116273700,2.546273681640625,1.0262018271028994,0.6999101639725267,-0.29415022918861355
1761413821126286800,2.556286865234375,1.1016969208091496,0.705072076780349,-0.26279366201423104
1761413821136298800,2.566298828125,1.1442682345569133,0.6934823228821158,-0.239958401078172
1761413821146311700,2.576311767578125,1.0913608202338219,0.6241105343617499,-0.19320538119897246
1761413821156324600,2.58632470703125,1.004018636867404,0.5552371968828141,-0.13223996730037033
1761413821166337800,2.596337890625,0.9324924467921256,0.5252857107333838,-0.12280154621712863
1761413821176350700,2.606350830078125,0.9055956720381975,0.4702662726923823,-0.07905841221101581
1761413821186363600,2.61636376953125,0.9233072698175907,0.404845267624408,-0.0208345886381343
1761413821196376800,2.626376953125,0.9921054962337017,0.29088191157504917,0.025255510352924466
1761413821206388700,2.636388671875,1.058414828443527,0.21388474274277686,-0.0019259630938991902
1761413821216402000,2.64640185546875,1.0438877059191465,0.16105609274432062,-0.019371384217776358
1761413821226414600,2.65641455078125,1.130762271773815,0.09907821386754512,0.0012548588993027807
1761413821236427800,2.666427734375,1.1261118156194687,0.030180910991132258,0.0408475586950779
1761413821246440700,2.676440673828125,1.0430278742194175,0.01864347180202603,0.049721002839319406
1761413821256453600,2.68645361328125,0.9431582177132367,0.030802111629396674,0.02084288154244423
1761413821266466600,2.696466552734375,0.8315326569616794,0.0024557225890457627,0.09075118809230626
1761413821276478700,2.706478759765625,0.7033189495027065,-0.01733823442235589,0.20416542235892265
1761413821286491600,2.71649169921875,0.6023246728807687,-0.006706511901319026,0.20150551896728575
1761413821296504800,2.7265048828125,0.5219681106179952,0.0017293080106377601,0.2181738182388246
1761413821306517500,2.736517578125,0.47556876301467416,-0.03220861742645502,0.23909020340889692
1761413821316530700,2.74653076171875,0.43371933380067346,-0.04053739676736295,0.2622301463799551
1761413821326544000,2.7565439453125,0.4300695791214704,-0.08386223229616879,0.2688943900421262
1761413821336556800,2.766556884765625,0.40631928569972514,-0.14332038343697787,0.2712196911845356
1761413821346568700,2.776568603515625,0.36971886305511,-0.1906990244012326,0.25121779051087795
1761413821356581600,2.78658154296875,0.36380174796581266,-0.2165712784130126,0.20600407249554992
1761413821366594800,2.7965947265625,0.29972762746214865,-0.2774392963517457,0.1876334262855351
1761413821376607700,2.806607666015625,0.19700491961240768,-0.35153044154420493,0.20706490666009483
1761413821386620700,2.81662060546875,0.07336275785267353,-0.3876063288580626,0.2404640125127509
1761413821396633600,2.826633544921875,-0.02947802341878414,-0.35943105860091745,0.2721209874058142
1761413821406646800,2.836646728515625,-0.08793956473767757,-0.2821296461250633,0.3184392325969413
1761413821416658700,2.84665869140625,-0.10489829832315445,-0.2361777500282973,0.4127957517048344
1761413821426671600,2.856671630859375,-0.07000526411831379,-0.22731917465962467,0.5284295617170631
1761413821436684500,2.8666845703125,-0.04751870702207088,-0.22795155427902936,0.6220553553976118
1761413821446697700,2.87669775390625,-0.024237200155854222,-0.2581344380315393,0.6718897920161485
1761413821456711000,2.8867109375,-0.08113514541983603,-0.3277853357542306,0.6701901484914123
1761413821466723600,2.8967236328125,-0.20622107624709604,-0.4041096468262374,0.5930680746378377
1761413821476736800,2.90673681640625,-0.3552005083590746,-0.4945532302740961,0.45168965558148916
1761413821486748700,2.916748779296875,-0.5232102196335793,-0.5328183712605387,0.29621706205792725
1761413821496761900,2.926761962890625,-0.6681658030569553,-0.5610344119194894,0.15621464406251906
1761413821506774800,2.93677490234375,-0.8626993641197681,-0.5203097489517182,0.09827212164904922
1761413821516787700,2.94678759765625,-1.0851713179439306,-0.45648390412069856,0.036828422714211044
1761413821526800600,2.956800537109375,-1.2521768206119537,-0.3802659029673785,0.01963737821020186
1761413821536813800,2.966813720703125,-1.2943214333802462,-0.29288265693821014,0.049240014389343556
1761413821546826500,2.976826416015625,-1.2382137617111206,-0.25484971727244554,0.09779997409265488
1761413821556838700,2.986838623046875,-1.1159914036214351,-0.32791758383177216,0.26135763786174354
1761413821566851600,2.9968515625,-0.8609580734103918,-0.538737239915505,0.4978982298530638
1761413821576864800,3.00686474609375,-0.5102613062113524,-0.7750043487276882,0.48191732832379636
1761413821586877700,3.016877685546875,-0.3554349016368389,-0.9519644783727824,0.269962457665056
1761413821596890600,3.026890625,-0.47589141909778115,-1.0609382094413042,0.11305321893449873
1761413821606903800,3.03690380859375,-0.7053390571534633,-1.0972087425444275,-0.07038447269424795
1761413821616916700,3.046916748046875,-1.0515683235496283,-1.0575428679145873,-0.3012146511495113
1761413821626929000,3.056928955078125,-1.518762056928873,-0.9324337023422121,-0.35854382743760943
1761413821636941600,3.066941650390625,-2.0696318523824213,-0.7451189135517925,-0.332437837735191
1761413821646954800,3.076954833984375,-2.5235721364349124,-0.5045293384306132,-0.3287667114743963
1761413821656967700,3.0869677734375,-2.7101456784039732,-0.18886779038608073,-0.32734215856399385
1761413821666980900,3.09698095703125,-2.6618647548377514,0.10215499096438288,-0.23447854489497838
1761413821676993500,3.10699365234375,-2.411600538724661,0.3290027487199753,-0.07499759251289069
1761413821687006700,3.1170068359375,-1.9210685998558996,0.4643138670939952,0.13108524430729449
1761413821697018600,3.1270185546875,-1.3426093712091445,0.4475795168489218,0.2611648187033832
1761413821707031800,3.13703173828125,-0.8328536764323711,0.34397001622729,0.22686595099940896
1761413821717044700,3.147044677734375,-0.3544330311179161,0.2256438618585467,0.0507538895510137
1761413821727057700,3.1570576171875,0.07134323472380638,0.15326872680373488,-0.13050517939701675
1761413821737070800,3.16707080078125,0.368467401689291,0.05658551831394434,-0.19083792141526937
1761413821747083800,3.177083740234375,0.5929799214303493,0.020300299098342654,-0.17502879625633358
1761413821757096700,3.1870966796875,0.7082096441537141,0.0823318078584969,-0.059820846973359584
1761413821767109600,3.197109619140625,0.8325304358273744,0.2507961310327053,0.07641049151811748
1761413821777121800,3.207121826171875,1.0441437265068292,0.41278015227690334,0.2572159349471331
1761413821787134700,3.217134765625,1.3299994804829358,0.45684462719187136,0.4727565916707739
1761413821797147600,3.227147705078125,1.689315022945404,0.48539545276314017,0.6377241953030228
1761413821807160600,3.23716064453125,1.9515970091104506,0.4962941556572914,0.6839721517369151
1761413821817173800,3.247173828125,2.1098779380530117,0.5039668822422624,0.6444556224498897
1761413821827187000,3.25718701171875,2.1325310838878155,0.41154184265360233,0.5690628931395709
1761413821837199600,3.26719970703125,1.9871458768755197,0.2274436047568917,0.6391027171146124
1761413821847211500,3.27721142578125,1.6488690307885407,0.14522066410034895,0.6057167630044743
1761413821857224700,3.287224609375,1.1906073764055967,0.15492036646828056,0.48879864880274976
1761413821867238000,3.29723779296875,0.6806815857589245,0.3106881435461342,0.38461193281505257
1761413821877250600,3.30725048828125,0.32773499380648136,0.49084465807974337,0.3674742989987135
1761413821887263500,3.317263427734375,0.11574585555195807,0.634548634006828,0.41329708882309496
1761413821897276400,3.3272763671875,0.046446109354496,0.7779039426267147,0.5234513714456931
1761413821907289600,3.33728955078125,0.01086860001683235,0.9077018505372106,0.6453260486088693
1761413821917301500,3.347301513671875,-0.04601239411234855,0.9893906843170523,0.6983740404464304
1761413821927314400,3.357314453125,-0.10753741465508937,1.0548447148717939,0.686462580313161
1761413821937327600,3.36732763671875,-0.18532734130024908,1.0675592350162566,0.6405374260928481
1761413821947340500,3.377340576171875,-0.26905834843218324,1.0719462179288268,0.5960412086971104
1761413821957353500,3.387353515625,-0.3544488132089376,1.0287672936767338,0.493992454586178
1761413821967366400,3.397366455078125,-0.42908992043435573,0.9245523014426231,0.4205180530525744
1761413821977379600,3.407379638671875,-0.477227051615715,0.8454569912873208,0.41692116107176985
1761413821987391500,3.4173916015625,-0.4738970304101705,0.8286560786120593,0.36844157312829046
1761413821997404700,3.42740478515625,-0.4196978227108717,0.7638716178819537,0.265815037395712
1761413822007417300,3.437417236328125,-0.33814474413990975,0.6335906026296317,0.21421050409842282
1761413822017430500,3.447430419921875,-0.2180781027793884,0.5124309053353965,0.233838639556244
1761413822027443500,3.457443359375,-0.1320399877488613,0.4252361676156521,0.22080761907482518
1761413822037456600,3.46745654296875,-0.000675122782588005,0.3077576430521905,0.1479733968745917
1761413822047468500,3.477468505859375,0.15404899046123027,0.2157934989735484,0.17906307500740512
1761413822057481500,3.4874814453125,0.2583037301838398,0.17812778518497943,0.2362642227353528
1761413822067494400,3.497494384765625,0.3907353475987911,0.17877879643961786,0.20480152830537407
1761413822077507600,3.507507568359375,0.5288929414451122,0.19666443561166524,0.21351740726772694
1761413822087520500,3.5175205078125,0.6021984161525964,0.2174710037317127,0.28210326957479115
1761413822097533400,3.527533447265625,0.6974269688546657,0.25355266319923103,0.29555178481591865
1761413822107546600,3.537546630859375,0.7500958982467651,0.27513620704114433,0.3003188165546395
1761413822117558500,3.54755859375,0.7594400651752948,0.32944508565999564,0.31463308177962895
1761413822127571500,3.557571533203125,0.8208551956027745,0.3684716394729912,0.2961231549630873
1761413822137584400,3.56758447265625,0.8739595938026905,0.3568708527240902,0.3141400740982964
1761413822147597600,3.57759765625,0.8921072449117898,0.349069458258152,0.2887173539523035
1761413822157610500,3.587610595703125,0.8168138112574815,0.309618906879425,0.2521546877685003
1761413822167623400,3.59762353515625,0.7270955464094877,0.24709647279717026,0.1580280501600355
1761413822177636600,3.60763671875,0.6607657559335232,0.208264783969149,0.08930292551275343
1761413822187648500,3.6176484375,0.5477238986432552,0.1788161327753216,0.014146735771512611
1761413822197661400,3.627661376953125,0.47491117588877674,0.12731595490165054,-0.0905414908643812
1761413822207674600,3.637674560546875,0.42470600626170635,0.0840626502390951,-0.11751481971954926
1761413822217687600,3.6476875,0.4062327764600515,0.03316358006373048,-0.10893591980878263
1761413822227700500,3.657700439453125,0.3441816862165928,-0.0200467627286911,-0.1074528964431025
1761413822237713700,3.667713623046875,0.25719489215910435,-0.06822941355220973,-0.11639746959479524
1761413822247726300,3.677726318359375,0.15806582488715648,-0.13460245864801107,-0.15537793751005083
1761413822257738500,3.687738525390625,0.032600539353489874,-0.2225011799186468,-0.22901626090109348
1761413822267751400,3.69775146484375,-0.08705167598724364,-0.27104893772751093,-0.36550164721887557
1761413822277764600,3.7077646484375,-0.22363924403786659,-0.30229835473299027,-0.42525370327234263
1761413822287777500,3.717777587890625,-0.4255108929038047,-0.3057809361517429,-0.5282446336042136
1761413822297790500,3.72779052734375,-0.6307815365582704,-0.29729733157530425,-0.6239723680000752
1761413822307803400,3.737803466796875,-0.7572679818332195,-0.28358269447758794,-0.7125671087108552
1761413822317816600,3.747816650390625,-0.9045902943879366,-0.23056159064695236,-0.715182259645313
1761413822327828500,3.757828369140625,-0.9088654874891042,-0.22902970490455626,-0.48398229802958664
1761413822337841400,3.76784130859375,-0.7428174316763877,-0.3599504793651402,-0.17433884123079477
1761413822347854600,3.7778544921875,-0.38498949742317196,-0.4792129647359252,-0.07650757695073261
1761413822357867500,3.787867431640625,0.04328033879995346,-0.5005684719756245,-0.2308136291792616
1761413822367880700,3.797880615234375,0.252851894518733,-0.5067148657761514,-0.413966329854168
1761413822377893400,3.807893310546875,0.22022855881154535,-0.5213273284964263,-0.6207813168738037
1761413822387906600,3.817906494140625,0.1052484269350767,-0.5344745409697294,-0.8357348578918725
1761413822397918500,3.82791845703125,-0.04038578640222549,-0.5367753652580082,-0.9192758954096585
1761413822407931600,3.837931640625,-0.26892215483188625,-0.5146764923050999,-0.9294155235648155
1761413822417944300,3.8479443359375,-0.5285246926546097,-0.38567791807875035,-0.8811121689710766
1761413822427957500,3.85795751953125,-0.7818500499039888,-0.19268164958581327,-0.8315658285789191
1761413822437970400,3.867970458984375,-0.9588105448752641,0.008695859087631106,-0.8269673948727547
1761413822447983600,3.877983642578125,-1.0611521444529295,0.206291072743386,-0.8497642600271851
1761413822457996500,3.88799658203125,-1.1060481017559767,0.3507527351699769,-0.9509116813842207
1761413822468008400,3.898008544921875,-1.1141630191504954,0.4770084404289722,-0.9858785114776343
1761413822478021600,3.908021728515625,-1.170406884419918,0.5698073548313229,-0.8992350509651005
1761413822488034600,3.91803466796875,-1.2026608022928238,0.639592984849587,-0.9012884032983333
1761413822498047500,3.928047607421875,-1.2003460956096648,0.6869386003270744,-0.9248357214938848
1761413822508060400,3.938060302734375,-1.2129659232079981,0.7707321513012051,-0.906424889403954
1761413822518073600,3.948073486328125,-1.1595704331070185,0.8569789406463504,-0.9151411336924881
1761413822528086500,3.95808642578125,-1.0367764126092196,0.8849697211820632,-0.8961534515626728
1761413822538098700,3.9680986328125,-0.8174316508948802,0.9351082553137093,-0.8541749160762876
1761413822548111400,3.978111328125,-0.4988602067530155,0.9652747724533081,-0.7758898993905633
1761413822558124500,3.98812451171875,-0.14301847788095473,0.9662408410064875,-0.7250388330753892
1761413822568137500,3.998137451171875,0.14391922611296176,0.8699198899578302,-0.7553122446555643
1761413822578150400,4.008150390625,0.3551788810491562,0.7670562392674386,-0.8094451091203838
1761413822588163600,4.01816357421875,0.47418227709233757,0.6324341260708868,-0.8814867744371294
1761413822598176500,4.028176513671875,0.5089408712625503,0.48632286980636413,-0.9680132575064897
1761413822608188400,4.0381884765625,0.5382768558621406,0.378878759457916,-1.0119948033783583
1761413822618201600,4.04820166015625,0.5541600691705941,0.3034747050359845,-1.032643696718663
1761413822628214500,4.058214599609375,0.5782178211063146,0.27917262295037504,-1.010592096973583
1761413822638227500,4.0682275390625,0.630787966299057,0.29417160077020527,-0.9663883597183972
1761413822648240600,4.07824072265625,0.6653337945014238,0.3027496056318283,-0.8725144364956766
1761413822658253300,4.08825341796875,0.7045715799123048,0.3372365432538092,-0.8283196131993085
1761413822668266500,4.0982666015625,0.749984254565835,0.35610023367777466,-0.8040158506132662
1761413822678278400,4.1082783203125,0.6917465851306915,0.3348696679919958,-0.7612265832658857
1761413822688291600,4.11829150390625,0.5343716651171445,0.32281580371335145,-0.7314771955598145
1761413822698304500,4.128304443359375,0.3344038040459156,0.3408448699440807,-0.6898986922416835
1761413822708317400,4.1383173828125,0.1710439644038677,0.34407698373310264,-0.6907601313766092
1761413822718330600,4.14833056640625,0.02562719320952892,0.3327721842560917,-0.6481609797738492
1761413822728343600,4.158343505859375,-0.07364625096917152,0.318128595745191,-0.5663350025456398
1761413822738356500,4.1683564453125,-0.07722294041216372,0.3018738457106054,-0.49314168297573924
1761413822748368400,4.178368408203125,-0.03483808914721012,0.33221023952439427,-0.5105272271385416
1761413822758381600,4.188381591796875,0.08495733405649661,0.3355736515428871,-0.5101775003854185
1761413822768394500,4.19839453125,0.25306232239902016,0.2661157921742648,-0.5161742565821856
1761413822778407700,4.20840771484375,0.4630412898749113,0.15255341814123094,-0.4965313254140317
1761413822788420400,4.21842041015625,0.6670552114665508,0.047594475672021505,-0.4887104225300252
1761413822798433500,4.22843359375,0.748380326500535,-0.06717990449927747,-0.4849847896030172
1761413822808446500,4.238446533203125,0.8860831623166799,-0.18080811031013727,-0.464176906308718
1761413822818458600,4.248458740234375,1.021797454664111,-0.2758190016735345,-0.44763482723273335
1761413822828471300,4.25847119140625,1.1556336781799792,-0.34180472795218225,-0.44041572616677727
1761413822838484500,4.268484375,1.2019079380989075,-0.42118871885575354,-0.4086179545635357
1761413822848497400,4.278497314453125,1.1433411828398703,-0.5410376258123666,-0.38275636807624247
1761413822858510600,4.288510498046875,1.0460381619513035,-0.6260688288226723,-0.4087637562423944
1761413822868523500,4.2985234375,0.9975181689321995,-0.6742628778230398,-0.46001730241123584
1761413822878535400,4.308535400390625,0.9900333661347627,-0.7349328159064054,-0.4597575920291245
1761413822888548400,4.31854833984375,1.0034668482035398,-0.8051188434191048,-0.435655124168843
1761413822898561500,4.3285615234375,1.0360393305063247,-0.8345883182052523,-0.4133021303243935
1761413822908574500,4.338574462890625,1.1010866799563168,-0.888481455630064,-0.4267596143232658
1761413822918587400,4.34858740234375,1.1317349161982535,-0.8903433770444243,-0.4044877228910103
1761413822928600600,4.3586005859375,1.1530857472628355,-0.8658015679188072,-0.4072619733773172
1761413822938613500,4.368613525390625,1.1812731463491917,-0.8514565239630639,-0.406779487089999
1761413822948625700,4.378625732421875,1.0848708736926316,-0.8903577708959579,-0.40268268276304003
1761413822958638300,4.388638427734375,0.93671795553267,-0.9133378105975687,-0.41387941875569517
1761413822968651500,4.398651611328125,0.7530664384901523,-0.901371843798086,-0.395313871028088
1761413822978664400,4.40866455078125,0.5189858799368143,-0.889687543484196,-0.37312859843336044
1761413822988677400,4.418677490234375,0.20246084693074226,-0.9485494822975248,-0.33850272726472463
1761413822998690300,4.428690185546875,-0.1424362940788269,-1.0098330222345888,-0.3939811245869845
1761413823008703500,4.438703369140625,-0.38561318227946756,-1.0654236842922866,-0.4860493135619908
1761413823018715400,4.44871533203125,-0.7495078692257404,-1.159076073718816,-0.5959900995643809
1761413823028728600,4.458728515625,-0.9622902036845683,-1.16245585235022,-0.6196382843185216
1761413823038741200,4.4687412109375,-0.9994254638582467,-1.1314413400791585,-0.5598415854057297
1761413823048754400,4.47875439453125,-0.9422983860135078,-1.0723920620001852,-0.4161909471010789
1761413823058767600,4.488767578125,-0.8235001571536064,-0.9460554004594683,-0.224054583373107
1761413823068780500,4.498780517578125,-0.6947136182427406,-0.796153812001273,-0.0196530233039055
1761413823078793500,4.50879345703125,-0.6185884099394082,-0.6903807036049664,0.1102714883946348
1761413823088805400,4.518805419921875,-0.6488005928516387,-0.6324743119508027,0.21043829208333045
1761413823098818600,4.528818603515625,-0.8033090175181626,-0.6335567003600299,0.2651602084824815
1761413823108831500,4.53883154296875,-0.9465613041549921,-0.7297190998461097,0.4215978841785341
1761413823118844400,4.548844482421875,-0.9100240098744631,-1.003455450026691,0.8154504139497876
1761413823128857300,4.558857421875,-0.6802151372909545,-1.170379484956339,1.1522255502369254
1761413823138870500,4.56887060546875,-0.41583413302004335,-1.122571366533637,1.085477826609835
1761413823148883500,4.578883544921875,-0.27960663045346734,-1.0018195924531668,0.9756019590698182
1761413823158895600,4.5888955078125,-0.24506898555755613,-0.7970433812521398,0.9385261739984154
1761413823168908300,4.598908203125,-0.36458559181988237,-0.5977144026063382,0.8852124438967556
1761413823178921500,4.60892138671875,-0.657229983022809,-0.45089404822438955,0.7926762720838189
1761413823188934700,4.6189345703125,-1.0920271751880646,-0.30178620395977046,0.6544548922862857
1761413823198947300,4.628947265625,-1.5386474916160107,-0.12120211166385561,0.5024749997166916
1761413823208960500,4.63896044921875,-1.8700491912364958,-0.02188935838807374,0.3818054605595767
1761413823218973400,4.648973388671875,-2.222742100688815,0.019067250172048807,0.33002646574452515
1761413823228985600,4.658985595703125,-2.339224453821778,0.14874540416039525,0.2953822369352914
1761413823238998500,4.66899853515625,-2.246539740383625,0.2981444499239325,0.2970063858047128
1761413823249011500,4.679011474609375,-1.9215069912731646,0.3832067787248641,0.344433030629158
1761413823259024400,4.6890244140625,-1.4698995340824126,0.37228688691221173,0.44268918752409514
1761413823269037600,4.69903759765625,-1.0256512074828148,0.3714024322278797,0.5355094369754195
1761413823279050200,4.70905029296875,-0.6438339103549718,0.4158974075146019,0.5434307314939797
1761413823289062400,4.7190625,-0.35100539475679393,0.44144481348618864,0.5632182952972129
1761413823299075300,4.729075439453125,-0.10206570524573326,0.47979565999470647,0.6658707509223372
1761413823309088500,4.739088623046875,0.09817512754797934,0.5006592189989983,0.7835480129282921
1761413823319101700,4.749101806640625,0.24019407299757004,0.54799935458377,0.8754029244787991
1761413823329114400,4.7591142578125,0.4338222096532583,0.5991924392696469,0.9694032505601644
1761413823339127600,4.76912744140625,0.6314303558558225,0.6770100576393305,1.0794036943279206
1761413823349140500,4.779140380859375,0.8829565547287463,0.7285355160847306,1.172474192213267
1761413823359152600,4.789152587890625,1.0870809509575365,0.7633363419614732,1.2447408253923058
1761413823369165300,4.799165283203125,1.19776250885725,0.7878791009351611,1.2707245769545434
1761413823379178500,4.809178466796875,1.1317436840265989,0.8144244319029152,1.2798394651718437
1761413823389191400,4.81919140625,0.9281862740308046,0.8468075291134417,1.2669646398991345
1761413823399204600,4.82920458984375,0.6455769546300173,0.9413185811959206,1.2833277456790209
1761413823409217300,4.83921728515625,0.4149889143675565,0.9780551974408328,1.3133357843212783
1761413823419230500,4.84923046875,0.24974866780638694,0.9672561555288731,1.3492885567121207
1761413823429242400,4.859242431640625,0.1445049170464277,1.0083514053747058,1.3770523235589265
1761413823439255600,4.869255615234375,0.07148819615244865,1.0689261394552887,1.3654025100365281
1761413823449268500,4.8792685546875,0.08481295714974403,1.1334485882483423,1.3296576813079417
1761413823459281400,4.889281494140625,0.1681160942584276,1.2217485107310115,1.335117700279504
1761413823469294600,4.899294677734375,0.2572890001833439,1.2984183473050595,1.3047399515420197
1761413823479307500,4.9093076171875,0.25884499745368955,1.3326447342947125,1.2477055204167962
1761413823489320400,4.919320556640625,0.09203764770627021,1.3635786556102334,1.1345062806077302
1761413823499332400,4.929332275390625,-0.19934826786816118,1.3780162001550196,1.037348440343514
1761413823509345500,4.939345458984375,-0.45215515420138835,1.3824939300909638,0.9813413064394145
1761413823519358500,4.9493583984375,-0.6033002399146556,1.3836806556574999,0.9761077897001057
1761413823529371400,4.959371337890625,-0.6679156276881695,1.4209278517730533,0.9863879223044961
1761413823539384300,4.96938427734375,-0.5813771619200706,1.4233948264084755,0.9641337126594036
1761413823549397500,4.9793974609375,-0.36722003197669983,1.4089993674397467,0.9408950950868428
1761413823559410700,4.98941064453125,-0.14261632682085038,1.3398235398828982,0.8733235609214752
1761413823569422600,4.999422607421875,0.07047989589273929,1.2253721080556512,0.8110994521986693
1761413823579435300,5.009435302734375,0.20440438221395016,1.0856273911483585,0.7792210896398871
1761413823589448400,5.019448486328125,0.2527040104806423,0.9959684552721678,0.7643224303893744
1761413823599461600,5.029461669921875,0.2632224818855524,0.9089205786772072,0.6929634135745465
1761413823609474300,5.039474365234375,0.28613749352693557,0.8090576441727578,0.7152856469545513
1761413823619487500,5.049487548828125,0.39249242039918897,0.7353231303982436,0.6993752533782273
1761413823629499400,5.05949951171875,0.4621107310265302,0.6334281055442988,0.7004123413410037
1761413823639512600,5.0695126953125,0.5476935035049915,0.5584618580177426,0.7023371719237417
1761413823649525500,5.079525390625,0.6322510245889424,0.5081722249776125,0.6933786433119327
1761413823659538400,5.089538330078125,0.6976847430080175,0.4437658037796616,0.6978752240788191
1761413823669551400,5.09955126953125,0.7338117029219865,0.4100564264014363,0.7111437979094684
1761413823679564500,5.109564453125,0.7501210326880217,0.32219840246737,0.71596171958521
1761413823689577500,5.119577392578125,0.7607868036091328,0.226158971773833,0.7180641717571765
1761413823699589400,5.12958935546875,0.735381144195795,0.14348025017380714,0.6575620645213872
1761413823709602300,5.139602294921875,0.6447457645028829,0.057736734175682064,0.5746783218685537
1761413823719615500,5.149615478515625,0.4794008885234594,-0.005415303047001362,0.4943080964066088
1761413823729628700,5.159628662109375,0.34024843842089175,-0.046104748570919035,0.3853513895381242
1761413823739641300,5.169641357421875,0.16150748977363108,-0.10768486030176282,0.3093313221096992
1761413823749654500,5.179654541015625,-0.035413843208551406,-0.12572525164410472,0.24025289051271972
1761413823759667500,5.18966748046875,-0.18671382722258567,-0.13085749996602533,0.1923065326631069
1761413823769679600,5.1996796875,-0.333692440906167,-0.14513035546839237,0.22712642856650053
1761413823779692300,5.2096923828125,-0.4331073393821716,-0.12220467630252241,0.30966216149926185
1761413823789705500,5.21970556640625,-0.4738642971843481,-0.049720600980520245,0.34694055647067723
1761413823799718400,5.229718505859375,-0.4172001606762409,-0.016535101345926524,0.37285146199241276
1761413823809731600,5.239731689453125,-0.34498481929302216,0.0013810790948569774,0.42779798092767596
1761413823819744300,5.249744140625,-0.2488654552310705,-0.02979600332677364,0.4543725379899144
1761413823829757400,5.25975732421875,-0.22397183699309825,-0.08761135569661856,0.40172611269056796
1761413823839769300,5.269769287109375,-0.25552608216404915,-0.09933774158656597,0.3069386548195034
1761413823849782500,5.279782470703125,-0.3212462163090706,-0.09704714643135666,0.22116101735606788
1761413823859795500,5.28979541015625,-0.4744692773401737,-0.07960764359161257,0.108195074846223
1761413823869808400,5.299808349609375,-0.6496978339523076,-0.06233034557625651,0.004836187984794378
1761413823879821600,5.309821533203125,-0.8171604327380657,-0.12265768076702951,-0.07786971388310193
1761413823889834800,5.319834716796875,-0.878326556840539,-0.23115473423451183,-0.05728920960389077
1761413823899846700,5.3298466796875,-0.8183949429690838,-0.45223070365563034,0.09314349005632101
1761413823909859600,5.339859619140625,-0.5215834952145815,-0.6531327768370508,0.23076252004653214
1761413823919872500,5.34987255859375,-0.21140929253995416,-0.7347361242905258,0.11110124461650847
1761413823929885700,5.3598857421875,-0.08177402784526347,-0.7302171855613588,-0.10257365476787089
1761413823939898400,5.3698984375,-0.11624562176764011,-0.8088833105191587,-0.31410474705658853
1761413823949911600,5.37991162109375,-0.24546587592065333,-0.908743760805577,-0.3597547375973314
1761413823959924700,5.3899248046875,-0.41278000614643096,-0.9480635254114865,-0.31674115997478364
1761413823969936600,5.3999365234375,-0.4801993454247713,-0.9029384355276823,-0.2818953989777714
1761413823979949600,5.409949462890625,-0.44789282058179375,-0.767424780318886,-0.22502079805675892
1761413823989962500,5.41996240234375,-0.3498562247216701,-0.6051157649040222,-0.030738654471747576
1761413823999975700,5.4299755859375,-0.2550467742145061,-0.4911575234211981,0.19148367197290062
1761413824009988600,5.439988525390625,-0.232719207072258,-0.3890620075590908,0.3242013032549992
1761413824020001500,5.45000146484375,-0.30418928304612636,-0.32516821205839513,0.36017862556520847
1761413824030014500,5.460014404296875,-0.4327735773831606,-0.2778971961870789,0.3325858679037541
1761413824040026600,5.470026611328125,-0.6202192260116338,-0.2699754632771015,0.33595355423856527
1761413824050039600,5.48003955078125,-0.8155494904100894,-0.1931909142822027,0.35852943358607586
1761413824060052700,5.490052734375,-0.9648568393021821,-0.024543489626049995,0.2915930555190891
1761413824070065400,5.5000654296875,-1.0685592058390379,0.17120003174841403,0.2870964382195845
1761413824080078600,5.51007861328125,-1.1249217290520668,0.3938819750614464,0.35386564302612095
1761413824090091800,5.520091796875,-1.052577792853117,0.621421879799664,0.39846217899117614
1761413824100103700,5.530103759765625,-0.9185837484270334,0.8389160452112555,0.44873814883213486
1761413824110116600,5.54011669921875,-0.7147188799172639,1.0449914293773472,0.5404712971664964
1761413824120129500,5.550129638671875,-0.48151685776412484,1.1686749460607766,0.6414961150571703
1761413824130142700,5.560142822265625,-0.22321429662406445,1.2700687433943152,0.7196626199297607
1761413824140155600,5.57015576171875,0.0191448454529047,1.3204063072293997,0.7730163167156279
1761413824150168600,5.58016845703125,0.2018044288486242,1.3056670032590627,0.7876577132694422
1761413824160181500,5.590181396484375,0.3111024234354496,1.2798467716954647,0.7613839657846838
1761413824170193700,5.600193603515625,0.3719675187647343,1.2484434793025254,0.715322983290255
1761413824180206600,5.61020654296875,0.4237140726149082,1.1453111677385865,0.6480624878354371
1761413824190219500,5.620219482421875,0.5272083493590355,1.0926308401696383,0.6147607414100319
1761413824200232400,5.630232421875,0.6611673224717378,1.0560093747369945,0.5837901413459331
1761413824210245600,5.64024560546875,0.8039215964585542,1.08145171289891,0.5902920705858618
1761413824220258600,5.650258544921875,0.9092956955999135,1.1167733477793633,0.6252794320106506
1761413824230271500,5.660271484375,0.9599795886546373,1.1864106553681195,0.6453519137024879
1761413824240283400,5.670283447265625,0.8954021948039531,1.269510671120137,0.6870676335342228
1761413824250296600,5.680296630859375,0.7105237663149834,1.3418477391868828,0.7029064231790602
1761413824260309800,5.690309814453125,0.4359796799480915,1.365649616665393,0.6995816626705229
1761413824270322700,5.70032275390625,0.12631868749260902,1.3986184048093855,0.6834254776395857
1761413824280335600,5.710335693359375,-0.1394827049702406,1.4165313703797757,0.67504825604707
1761413824290348500,5.7203486328125,-0.3098392716318369,1.4212315108947455,0.6737386347532272
1761413824300360700,5.730360595703125,-0.37430677536726,1.451532395003736,0.6736174195263535
1761413824310373600,5.74037353515625,-0.2865986812978983,1.4496826754838228,0.7044612514056265
1761413824320386600,5.750386474609375,-0.14061609291434288,1.4023429782904684,0.7623750226486474
1761413824330399500,5.7603994140625,0.08728197761178016,1.3562905444286764,0.791637284424901
1761413824340412700,5.77041259765625,0.29236031356453895,1.2763117294371127,0.7905660019315779
1761413824350425600,5.780425537109375,0.4535685281306505,1.1450813045054673,0.7315585171677171
1761413824360438500,5.7904384765625,0.5334785156697035,0.9867588745087384,0.6540004995822906
1761413824370450400,5.800450439453125,0.5612824683964253,0.8227895246662199,0.6291390300482511
1761413824380463600,5.810463623046875,0.536830748707056,0.693709409636259,0.6225440156973898
1761413824390476800,5.820476806640625,0.50797173396945,0.6102167413048446,0.637610213534534
1761413824400489500,5.830489501953125,0.5146826297849416,0.5527122084498405,0.6492712791033088
1761413824410502700,5.840502685546875,0.5237298595935106,0.4867046356655657,0.6191010356366634
1761413824420515600,5.850515625,0.5613485193699598,0.42773105317130683,0.612625556012243
1761413824430528800,5.86052880859375,0.582055207312107,0.3754892631500959,0.5474555300306528
1761413824440540700,5.870540771484375,0.5687134951800108,0.32681554087400433,0.5133803150147199
1761413824450553600,5.8805537109375,0.580535450398922,0.2834551225751638,0.47649632618837057
1761413824460566500,5.89056640625,0.5912164188891649,0.20891469924524425,0.4603065311487764
1761413824470579700,5.900579833984375,0.593362783268094,0.14544468211457132,0.46289990864284336
1761413824480592400,5.91059228515625,0.5744686977058648,0.1126513966679573,0.4688490993708372
1761413824490605600,5.92060546875,0.5219073203414678,0.08933686431497335,0.4839516836956143
1761413824500617500,5.930617431640625,0.5097556947767734,0.13401640238836407,0.46587147179953753
1761413824510630700,5.940630615234375,0.43812545980513096,0.1596111546330154,0.49046698387376964
1761413824520643600,5.9506435546875,0.3396265071302652,0.1413373929262161,0.5680257321115583
1761413824530656500,5.960656494140625,0.23266017036139963,0.10483955387324094,0.6843637083377688
1761413824540669700,5.970669677734375,0.2426695232003927,0.07353855281099676,0.7395540459662675
1761413824550682600,5.9806826171875,0.2978431288897991,0.012041735449433325,0.7599917807739227
1761413824560695600,5.990695556640625,0.4262637570977211,-0.05196925669014454,0.7289275841422379
1761413824570707500,6.00070751953125,0.4948515556335449,-0.13786080285683275,0.6942107832871377
1761413824580720600,6.010720703125,0.5132312619328498,-0.26416487730219956,0.6925022258035838
1761413824590733600,6.020733642578125,0.5072732303112745,-0.3645708326421678,0.7239889586962759
1761413824600746800,6.030746826171875,0.4955921448677778,-0.4210040830038488,0.7091843344047665
1761413824610759400,6.040759521484375,0.4549789794504642,-0.4949712364904582,0.7042181633647531
1761413824620772600,6.050772705078125,0.4080792811095714,-0.5321363072805106,0.7381898449409753
1761413824630784500,6.060784423828125,0.3407125488013029,-0.5434120267935096,0.7937846717171371
1761413824640797700,6.070797607421875,0.2476929043203592,-0.5528163994766772,0.7723145981870592
1761413824650810400,6.080810302734375,0.16660159804224967,-0.5775077731408178,0.7454809517972171
1761413824660823600,6.090823486328125,0.07510755569338798,-0.6403897612504661,0.7578544764842837
1761413824670836700,6.100836669921875,-0.04316752607524395,-0.6585911883734166,0.7438268279146403
1761413824680849700,6.110849609375,-0.12572364420890808,-0.6888450184702872,0.7431365806281566
1761413824690862600,6.120862548828125,-0.20941958002746103,-0.7001528866872191,0.770535240489617
1761413824700874500,6.13087451171875,-0.3461252214998007,-0.6546642241880297,0.729787488907203
1761413824710887700,6.1408876953125,-0.4764420387178659,-0.610360387559235,0.7417571820337325
1761413824720900600,6.150900634765625,-0.6239040520042181,-0.5980601473040879,0.7628055960856378
1761413824730913500,6.16091357421875,-0.8234528108805418,-0.5711867534257471,0.7777596387851983
1761413824740926500,6.170926513671875,-0.8822165500164032,-0.5669324569821358,0.8566145643133669
1761413824750939600,6.180939697265625,-0.808299080890417,-0.7284776484176516,1.1303063446998596
1761413824760952600,6.19095263671875,-0.5631207897394895,-1.002694694787264,1.4801792282953858
1761413824770964700,6.20096484375,-0.12602642654776572,-1.0743732989452779,1.6415198370695112
1761413824780977400,6.210977294921875,0.2321568970143795,-0.9849867502696812,1.49259213514477
1761413824790990600,6.220990478515625,0.44374446873068807,-0.8867005635626614,1.1245583025671542
1761413824801003800,6.231003662109375,0.3939981487870216,-0.8807514458999037,0.8542150288909673
1761413824811016400,6.241016357421875,-0.01414426068663597,-0.9883280235216021,0.7347100400011987
1761413824821029600,6.251029541015625,-0.819216780745983,-1.0879551034435628,0.7228133390456437
1761413824831041500,6.26104150390625,-1.7573907803058624,-0.8273480647534132,0.671638009212166
1761413824841054700,6.2710546875,-2.4506986234039068,-0.41281434680745005,0.6772648361179977
1761413824851067600,6.281067626953125,-2.698827581053972,-0.020620032572001217,0.7629541377108544
1761413824861080600,6.29108056640625,-2.454650575900078,0.4579693934381008,0.7593971028164028
1761413824871093500,6.301093505859375,-1.9105676641076803,0.8288828731052577,0.7164040565252303
1761413824881106700,6.311106689453125,-1.3511667716741562,1.06125838130638,0.5402392419762909
1761413824891119900,6.321119873046875,-1.074808329361677,1.1866213755093513,0.3857723183639347
1761413824901131800,6.3311318359375,-1.13321492562294,1.2350688878141343,0.3371733418244868
1761413824911145000,6.34114501953125,-1.3364824127614496,1.1674071180820464,0.4407655990503728
1761413824921158100,6.351158203125,-1.459003461536765,1.1732171195350587,0.47662736868951466
1761413824931170800,6.3611708984375,-1.481118847233057,1.3211166474558411,0.40921643191333856
1761413824941184000,6.37118408203125,-1.2584317893534898,1.4819044446527958,0.35021205242201686
1761413824951197000,6.381197021484375,-0.8956126226842402,1.5774230663426219,0.33245435047857463
1761413824961209000,6.391208984375,-0.5802133788377046,1.6534326854422687,0.27748768380442634
1761413824971222000,6.401221923828125,-0.3015998510748148,1.6567007473275064,0.2801182149711065
1761413824981235000,6.41123486328125,-0.0400368268340826,1.6053627742782235,0.26230553143741564
1761413824991248000,6.421247802734375,0.21695289814174173,1.639154715373367,0.17005535522531717
1761413825001261000,6.431260986328125,0.6367080039978027,1.7195752827830613,0.1961854564556852
1761413825011274000,6.44127392578125,0.9207897340387106,1.6860403851889072,0.22884583623763172
1761413825021287000,6.451286865234375,1.0109855532705783,1.6346775699593126,0.22903144020391628
1761413825031298800,6.461298828125,0.9547416880011558,1.6976111421257256,0.27747566457306966
1761413825041312000,6.47131201171875,0.7653916670560836,1.7558504189960658,0.2997869747002609
1761413825051325200,6.4813251953125,0.5643810189336538,1.8054333650715648,0.2992004435165785
1761413825061337900,6.491337890625,0.46167409317493435,1.8332507618017493,0.278894646259211
1761413825071351000,6.50135107421875,0.45179859584867954,1.8450325311407445,0.294580820891913
1761413825081364000,6.511364013671875,0.4624398168504238,1.8264724998384714,0.3215308054041117
1761413825091376000,6.521376220703125,0.4471405409097671,1.7805764255821703,0.32348409489635377
1761413825101389000,6.53138916015625,0.43203181910514826,1.7174457234084606,0.2990271145099774
1761413825111402000,6.541402099609375,0.36706922532916064,1.6364077547527849,0.26142750649387014
1761413825121415000,6.551414794921875,0.20954232962429523,1.5999574081033467,0.24917337040277196
1761413825131428000,6.561427978515625,-0.07362462365925311,1.5720913499258458,0.2686882912770845
1761413825141440800,6.571440673828125,-0.3979091847509145,1.5869650939308106,0.2989854855916463
1761413825151454000,6.581453857421875,-0.641498745405674,1.6019696247085928,0.30033697326583786
1761413825161465900,6.5914658203125,-0.7679390134513377,1.580605349640548,0.2914116345375776
1761413825171479000,6.60147900390625,-0.8084867124170064,1.5303874666623771,0.30521398645136505
1761413825181492000,6.611491943359375,-0.7971440651476382,1.4557896140567959,0.2621568254154175
1761413825191505000,6.6215048828125,-0.7340688925534486,1.3471613354250789,0.2171352507050149
1761413825201518000,6.63151806640625,-0.66075289645195,1.2095363871507345,0.17430088384058326
1761413825211531000,6.641531005859375,-0.5372907674342393,1.0962431854479013,0.12274221724532544
1761413825221544000,6.6515439453125,-0.37125264849364753,0.9580148644529283,0.09640131367533467
1761413825231555800,6.661555908203125,-0.24041093061864374,0.828370393538475,0.08763804277414455
1761413825241569000,6.671569091796875,-0.08234861286282538,0.7251810910902917,0.09207695680335164
1761413825251582000,6.68158203125,0.06811141319572925,0.6185305422723293,0.10330789645970799
1761413825261595100,6.69159521484375,0.24630524935424328,0.547265633481741,0.09425099464049562
1761413825271607800,6.70160791015625,0.36578853786885734,0.44819224191978574,0.0997886088929139
1761413825281621000,6.71162109375,0.4579086031615734,0.2767778367683291,0.27782909938693046
1761413825291633000,6.7216328125,0.521532057288289,0.236628197209537,0.2231576162670739
1761413825301646000,6.73164599609375,0.5176648604661226,0.23511560068950055,0.15508876357143744
1761413825311658800,6.74165869140625,0.5546276866823434,0.18540026040598748,0.15586573929330333
1761413825321672000,6.751671875,0.60825289388597,0.07622311571985482,0.1954605031820014
1761413825331685000,6.76168505859375,0.6432920585632323,-0.014135638988763093,0.1864050170017406
1761413825341698000,6.771697998046875,0.6803706201136112,-0.09623436874374747,0.18503157322406769
1761413825351711000,6.7817109375,0.6733791537910699,-0.1574758961699903,0.1750193343082443
1761413825361723000,6.791722900390625,0.6845932062447071,-0.1840979456357658,0.14225618827156722
1761413825371736000,6.801736083984375,0.6293453662753105,-0.21193623902350664,0.11428659665435552
1761413825381749000,6.8117490234375,0.5698258403360843,-0.239594499669224,0.15448146359436213
1761413825391762000,6.821761962890625,0.48741176102161404,-0.26797800584957004,0.16584796666335314
1761413825401774800,6.83177490234375,0.42480829759240146,-0.29230303041934963,0.2106028349952772
1761413825411788000,6.8417880859375,0.3518395074933767,-0.3200333333879709,0.22607881920970976
1761413825421800000,6.851800048828125,0.2746498848289251,-0.3608450901173055,0.24277941331565378
1761413825431813000,6.861813232421875,0.20895137799382207,-0.40241541012898085,0.23295104306675493
1761413825441825800,6.87182568359375,0.16236264529824257,-0.4078651999674737,0.23266992457043378
1761413825451839000,6.8818388671875,0.09486907173991203,-0.4357113844007253,0.22996877585295586
1761413825461852200,6.89185205078125,0.05333060817122459,-0.45428325227126476,0.2129148382646963
1761413825471864800,6.90186474609375,0.052940147548913956,-0.39479777473211286,0.1747656518081203
1761413825481878000,6.9118779296875,0.08000877173840999,-0.3161415866464376,0.14473525520358232
1761413825491890000,6.921889892578125,0.08707447234094143,-0.17490034757107495,0.12956260131727904
1761413825501903000,6.931903076171875,-0.04710954169929027,-0.05107040815427899,0.15955346962902694
1761413825511916000,6.941916015625,-0.29083880308568477,0.03032674920260906,0.2834117218248546
1761413825521929000,6.951928955078125,-0.5381915156662463,0.007783493483066559,0.49755990127678956
1761413825531942000,6.96194189453125,-0.6041413669139146,-0.08783259723186493,0.6944529214799404
1761413825541955000,6.971955078125,-0.42952831185162066,-0.14274331420138478,0.6032393035076559
1761413825551967000,6.981967041015625,-0.16068039129972456,-0.09929770183712243,0.31194990711025894
1761413825561980000,6.99197998046875,-0.011939444118738174,-0.0696104195818305,0.050154206624813374
1761413825571992800,7.001992919921875,-0.07230711131989956,-0.06546908199340104,-0.05158570073265582
1761413825582006000,7.012006103515625,-0.32749592435359953,-0.04628419679105281,0.009261091754958033
1761413825592019200,7.022019287109375,-0.6474708055526017,0.0014319324992597103,0.15495675295591355
1761413825602031900,7.032031982421875,-0.8456225571125745,0.13388327752798795,0.3070332377677783
1761413825612043800,7.042043701171875,-0.8373527414172888,0.30297128555849195,0.4520491730762645
1761413825622057000,7.052056884765625,-0.7012135016560554,0.40130277271196246,0.5034423103788868
1761413825632070100,7.062070068359375,-0.5117582667708397,0.4170997690416872,0.5135405836103484
1761413825642082800,7.072082763671875,-0.40658407411575315,0.3382701240852475,0.4689801053393632
1761413825652096000,7.082095947265625,-0.4059025215923786,0.22032032874822616,0.3578116772381589
1761413825662109000,7.09210888671875,-0.49331134045422076,0.14815920177027583,0.2600874717954546
1761413825672122000,7.1021220703125,-0.584703675994277,0.08793196595311165,0.23348734190054238
1761413825682134000,7.112134033203125,-0.6689800420492887,0.11361936491727828,0.21088446494825183
1761413825692147000,7.12214697265625,-0.6655564973413944,0.24382614588961005,0.22120551408492029
1761413825702160000,7.132159912109375,-0.5739186626076698,0.3730959382727742,0.21171792009770868
1761413825712173000,7.142173095703125,-0.4624509227663278,0.4932314070858061,0.21629136549308894
1761413825722185700,7.152185791015625,-0.4063262999624014,0.5878308681041002,0.17239176228363065
1761413825732199000,7.162198974609375,-0.3498030332297086,0.6740110219538211,0.10134798543043434
1761413825742210800,7.1722109375,-0.34318916804790495,0.7639006978459656,0.013150756137259304
1761413825752224000,7.18222412109375,-0.3368728245079517,0.8494136199586093,-0.02878876251298934
1761413825762237200,7.1922373046875,-0.3051356239855289,0.9033229048006236,-0.10351177586819976
1761413825772249900,7.202249755859375,-0.23695114555358884,0.9454686866126955,-0.15528645983431488
1761413825782263000,7.212262939453125,-0.23081132762432097,0.9793694949097931,-0.15195249310601502
1761413825792276000,7.22227587890625,-0.20965572687089443,0.9900682913176715,-0.14368833996653557
1761413825802289000,7.232288818359375,-0.10055003998577594,0.9791077752336859,-0.1990973618470132
1761413825812300800,7.24230078125,0.05465513477325439,0.891386091030389,-0.286445390432328
1761413825822314000,7.25231396484375,0.24984979009330271,0.8098847426466643,-0.3991750399682671
1761413825832327000,7.262326904296875,0.43798868168294425,0.7170400163412094,-0.48234384664017704
1761413825842340000,7.272340087890625,0.619950345942378,0.6502468461371957,-0.5718453269323334
1761413825852352800,7.282352783203125,0.7495984701186418,0.5879032026879489,-0.6250682734780013
1761413825862366000,7.292365966796875,0.7821914106875657,0.5595607591703534,-0.6374206092465668
1761413825872377900,7.3023779296875,0.708450467172265,0.5597318779535592,-0.6831859697952866
1761413825882391000,7.31239111328125,0.5355266803711652,0.5970937864899635,-0.6973984734125435
1761413825892403200,7.3224033203125,0.33050095138847824,0.6469999731704592,-0.6464985264543444
1761413825902416000,7.332415771484375,0.09121814801692962,0.749765204987675,-0.556485845237039
1761413825912429000,7.342428955078125,0.0110363577991724,0.838323924537003,-0.48149124839883295
1761413825922442000,7.35244189453125,0.10841361296772956,0.8470610654830932,-0.36552773150820284
1761413825932454100,7.3624541015625,0.08526829970180988,0.7828602498598396,-0.26175810842141506
1761413825942467000,7.372467041015625,0.03847556886672973,0.7599709571816027,-0.3003395488154143
1761413825952480000,7.38247998046875,0.08587678698897361,0.6622675387986003,-0.33451698209680614
1761413825962493000,7.392492919921875,0.01720247921347618,0.564154078309983,-0.32659203431643546
1761413825972506000,7.402506103515625,-0.04425532131195068,0.5010290752246975,-0.35195604654513296
1761413825982518800,7.412518798828125,-0.1112917987525463,0.4446507699206471,-0.4084199112407863
1761413825992532000,7.422531982421875,-0.2267851408481598,0.35880467033088204,-0.4333676708187908
1761413826002543900,7.4325439453125,-0.35193244647383687,0.31642844076380133,-0.44237478781267997
1761413826012557000,7.44255712890625,-0.38443244806230065,0.2946386337600648,-0.468934987556003
1761413826022570000,7.452570068359375,-0.32710604825317857,0.29149156790599223,-0.50795302926898
1761413826032583000,7.4625830078125,-0.2116822642624378,0.22733123042359946,-0.4828171997729689
1761413826042596000,7.47259619140625,-0.09553718025982379,0.12736352037042378,-0.5422320962939411
1761413826052609000,7.482609130859375,0.07587620197832584,0.04006064610108733,-0.5847951171373948
1761413826062621200,7.49262109375,0.29468729520738124,-0.039456688858568664,-0.6118319579491391
1761413826072633900,7.5026337890625,0.46786242642104625,-0.205498461060971,-0.6691952191699296
1761413826082647000,7.51264697265625,0.6370259839057922,-0.33704861946627496,-0.6808179254896939
1761413826092660000,7.522659912109375,0.7499328166395426,-0.4191195844314992,-0.6263084827974438
1761413826102673200,7.532673095703125,0.8329238190591335,-0.47963119014799593,-0.5658289161870256
1761413826112685800,7.542685791015625,0.9162655346125363,-0.5090412628971039,-0.5819101362856105
1761413826122699000,7.552698974609375,0.9764122525393962,-0.5661965439230203,-0.6106313134551048
1761413826132711000,7.5627109375,1.056850647866726,-0.6214210030168295,-0.4794465542960912
1761413826142724000,7.57272412109375,1.0252864658236502,-0.618378274320066,-0.2746290247039869
1761413826152737000,7.582737060546875,0.9639292030632496,-0.5860761333912611,-0.23550120247360318
1761413826162750000,7.59275,0.9405296227753162,-0.503445488716662,-0.2434573125772178
1761413826172763100,7.60276318359375,0.8452911332011223,-0.4677703642234206,-0.13280574795696884
1761413826182776000,7.612776123046875,0.7473597512811422,-0.4742959665998816,-0.1164433728294447
1761413826192788200,7.622788330078125,0.7343751820236444,-0.47720367074012754,-0.06766761495098471
1761413826202801000,7.63280078125,0.7105968315511941,-0.46357978066578504,0.056514352773874996
1761413826212814000,7.64281396484375,0.6883575272142887,-0.4582974563486874,0.13977028973996639
1761413826222827000,7.652826904296875,0.7116244210332632,-0.4546908101588487,0.1809516104340553
1761413826232840000,7.66283984375,0.6830442232370376,-0.46590500874295826,0.29502240891326215
1761413826242852900,7.672852783203125,0.5226180989593268,-0.4813577216796577,0.36012360744234173
1761413826252865000,7.682864990234375,0.2983089928358793,-0.4701695343196392,0.41259785451255737
1761413826262878000,7.6928779296875,0.11409925738871098,-0.47433849056735633,0.5140598217114806
1761413826272891100,7.70289111328125,-0.0417623354524374,-0.4298080055758357,0.6277230257704853
1761413826282903800,7.71290380859375,-0.12774141377210615,-0.3844143278837204,0.622187457344681
1761413826292917000,7.7229169921875,-0.10500175869762897,-0.3877831467296928,0.5848407463774085
1761413826302930200,7.73293017578125,0.007032382854819297,-0.38923707186505196,0.5890220506500452
1761413826312943000,7.742943115234375,0.15012860214710236,-0.35196671406961977,0.6403815779440104
1761413826322955000,7.752955078125,0.16628361813426018,-0.3399341117747128,0.6055964976256712
1761413826332968000,7.762968017578125,0.022754268121719358,-0.3699554482899606,0.5870774559209123
1761413826342981000,7.772981201171875,-0.20345394962131977,-0.5426402387034147,0.7149970392715186
1761413826352994000,7.782994140625,-0.31852526691257954,-0.7800305793918669,0.8870321336045861
1761413826363007000,7.793007080078125,-0.22529285646378994,-0.9239962749950588,0.8191684846248477
1761413826373020000,7.80302001953125,-0.19238719668388365,-0.9537326570890843,0.4994621547015384
1761413826383032000,7.813031982421875,-0.3238274649739265,-0.9257341316383332,0.23934615093134343
1761413826393045000,7.823044921875,-0.6489864708125591,-0.8181934290476143,0.18920999141987413
1761413826403058200,7.83305810546875,-0.9949258143514395,-0.6261130332905799,0.17066672858931123
1761413826413070800,7.84307080078125,-1.3611182568460702,-0.4196854016207158,0.2036435356429778
1761413826423084000,7.853083984375,-1.7698434346437453,-0.24693485249467192,0.3375783789614215
1761413826433097200,7.86309716796875,-2.0798609854519365,-0.0021746406253427266,0.4904351274307817
1761413826443109000,7.873109130859375,-2.155104150223732,0.24400595943592487,0.572327630556561
1761413826453121800,7.883121826171875,-1.9878554864495992,0.39897878674380477,0.6435936718583106
1761413826463135000,7.893135009765625,-1.6099895572960377,0.4217600159376859,0.6692780020825565
1761413826473148200,7.903148193359375,-1.187501811605692,0.3622580256551504,0.664105640945956
1761413826483161000,7.9131611328125,-0.8901701393693685,0.2874331593606621,0.6566795825984328
1761413826493174000,7.923174072265625,-0.8147557096838951,0.20164595035128294,0.6131760295018553
1761413826503187000,7.93318701171875,-0.8163339187860489,0.16369805862046777,0.5752601403445005
1761413826513199000,7.94319921875,-0.7969611097961664,0.1802851093493402,0.5670744227360933
1761413826523212000,7.9532119140625,-0.641314036488533,0.2386276273984462,0.6168279030729085
1761413826533225000,7.963224853515625,-0.3184165458410978,0.3311736630182713,0.6816006733652203
1761413826543238000,7.97323779296875,0.11146131010055542,0.4247613166455179,0.7140355738282204
1761413826553251000,7.9832509765625,0.506026445120573,0.4823347500182688,0.7217801235403866
1761413826563264000,7.993263916015625,0.8391694354504347,0.5468000617966056,0.6624983518797903
1761413826573276200,8.003276123046875,1.0393494779676198,0.577388603740558,0.6547057983074337
1761413826583288800,8.013288818359374,1.084459954804182,0.6103163292217999,0.6171922794058918
1761413826593302000,8.023302001953125,1.0683885254472494,0.6763173261348158,0.5144667220119387
1761413826603315200,8.033315185546876,0.9130945033609866,0.7209481296956539,0.397505937712267
1761413826613328000,8.043327880859374,0.7206815877139567,0.7830304918602109,0.3198759143365547
1761413826623341000,8.053341064453125,0.47238837941288947,0.8481096246879547,0.2732138606764376
1761413826633353000,8.06335302734375,0.25350714355707166,0.858931755214557,0.30227296456340697
1761413826643366100,8.0733662109375,0.20761574547588824,1.0329133074402808,0.4816403380133211
1761413826653379000,8.083379150390625,0.29405484252274033,1.2068348000418394,0.6744660722449421
1761413826663392000,8.09339208984375,0.4153203382790088,1.3289609312154351,0.8326236670687794
1761413826673405000,8.103405029296875,0.5115396555840969,1.4179536582678556,0.9535421029530465
1761413826683418000,8.113418212890625,0.6442845767319202,1.4517106741800903,1.020775710400939
1761413826693430800,8.1234306640625,0.6565583673715591,1.4251821482166647,1.0571079105634242
1761413826703443000,8.13344287109375,0.6977753439009189,1.3915830993451177,1.0422693109370766
1761413826713455900,8.143455810546875,0.6542927605271339,1.3296939216651023,1.0411168529663235
1761413826723469000,8.153468994140624,0.45206455330848694,1.2385454778835177,1.0914282594468443
1761413826733482200,8.163482177734375,0.23173896386325357,1.2477478982537984,1.1272257682107387
1761413826743495000,8.173494873046875,0.0570686256557703,1.2692200176104902,1.1764210301429032
1761413826753508000,8.183508056640624,0.029875498303771016,1.2603789778985082,1.2460650597333907
1761413826763520000,8.19352001953125,0.12909399742484093,1.238250294329226,1.3381094294413924
1761413826773533200,8.203533203125,0.2049070710390806,1.18400841653198,1.4006874661684034
1761413826783545900,8.2135458984375,0.2458411389738321,1.1154674528125672,1.3930173699319361
1761413826793559000,8.22355908203125,0.2619061385899782,1.0618644574407488,1.383719526363164
1761413826803572000,8.233572021484376,0.22379005068540572,0.9678710725568235,1.3912423230834305
1761413826813585200,8.243585205078125,0.1464139655381441,0.8678195566777139,1.36344027005285
1761413826823597000,8.25359716796875,0.06040683016777038,0.790735513279587,1.3224790218502283
1761413826833610000,8.26360986328125,0.10021335537731647,0.7223045858059078,1.3003762033745645
1761413826843623000,8.273622802734375,0.20410861413776873,0.6539030305571853,1.297239951175451
1761413826853636000,8.283635986328125,0.27346739704608913,0.618469094408676,1.2632150781072675
1761413826863648800,8.293648681640626,0.25809271778166293,0.6262558758273721,1.2100192022316156
1761413826873662000,8.303661865234375,0.24521336246430872,0.6396669999338687,1.1692686741702258
1761413826883673900,8.313673828125,0.32097675171792506,0.5597461256746202,1.2732353907316922
1761413826893687600,8.3236875,0.34210254185497757,0.5212628118928522,1.3577753761589526
1761413826903700200,8.3337001953125,0.296060337126255,0.5536683401308954,1.316905751762539
1761413826913713400,8.34371337890625,0.38232407760620113,0.5207268783852458,1.3231822016835213
1761413826923726600,8.3537265625,0.43084465514719483,0.41958026074580845,1.3861160661108791
1761413826933739500,8.363739501953125,0.3673217387855053,0.35434228409454227,1.41676576365754
1761413826943752400,8.37375244140625,0.272904502466321,0.3119672235712409,1.3917711692631243
1761413826953764400,8.383764404296874,0.1841372547328472,0.25972316852770744,1.3845216365262865
1761413826963777500,8.393777587890625,0.07413140413761138,0.22557404802534728,1.405774998565763
1761413826973790500,8.40379052734375,-0.047323476710915566,0.2315756630603224,1.4065375073708593
1761413826983803400,8.413803466796875,-0.19213351418375968,0.28665662203021347,1.4017071646049617
1761413826993816300,8.42381640625,-0.3034241438925266,0.37136747051235286,1.4274112224429845
1761413827003829500,8.43382958984375,-0.395644162428379,0.45029126002565023,1.37384709777683
1761413827013841400,8.44384130859375,-0.43143326869010923,0.45902175203524526,1.3399993348412216
1761413827023854600,8.4538544921875,-0.44432431444525716,0.44639370459783817,1.3016786642752587
1761413827033867300,8.4638671875,-0.4549643664032221,0.4780979161661118,1.2448815490372478
1761413827043880400,8.47388037109375,-0.37401042276918883,0.48663737911563365,1.1388018589098006
1761413827053893600,8.4838935546875,-0.24952011974751948,0.4279021354218945,1.0515106020130216
1761413827063906300,8.49390625,-0.16758359481692314,0.32593452025577424,1.020192795946449
1761413827073918500,8.50391845703125,-0.11718144131302832,0.2836966397134587,0.9396251482162624
1761413827083931400,8.513931396484375,-0.14116671253442764,0.255469200877659,0.8815878967240453
1761413827093944600,8.523944580078124,-0.20128361984491347,0.24889088193327186,0.7793371903002262
1761413827103957500,8.53395751953125,-0.24636545510888097,0.252116821709834,0.7583337113685905
1761413827113970400,8.543970458984376,-0.29274609801173207,0.2562703246600926,0.7550329162575304
1761413827123983400,8.5539833984375,-0.37407530469894407,0.27487361058220267,0.74782546909675
1761413827133996500,8.56399658203125,-0.4582727602988481,0.26743545993808654,0.7077993097871541
1761413827144008400,8.574008544921876,-0.5092664499551057,0.25863902655281124,0.6478675497852265
1761413827154021400,8.584021484375,-0.5759855320096016,0.23095756769459694,0.6239759481966495
1761413827164034300,8.594034423828125,-0.6694149263352155,0.2277925643250346,0.594794825365208
1761413827174047500,8.604047607421874,-0.7368149763911962,0.23190960772242394,0.5481528281124308
1761413827184060700,8.614060791015625,-0.8473901513069868,0.2508115112649277,0.5415161665769294
1761413827194073300,8.6240732421875,-0.9813105459749698,0.2945497133675963,0.5627443576425314
1761413827204085200,8.634085205078126,-1.1110784971386194,0.375526709083654,0.5787974841577932
1761413827214098400,8.644098388671875,-1.2319067705214022,0.4051471001151949,0.6293889862213283
1761413827224111600,8.654111572265625,-1.3301134622514248,0.3816722626339644,0.8028224030449986
1761413827234124500,8.66412451171875,-1.35032038397789,0.26771358275972307,1.0270603436283767
1761413827244137500,8.674137451171875,-1.2012369069695472,0.17716186276227236,1.1421392597042024
1761413827254150400,8.684150390625,-1.0295324328303337,0.1615817971188575,1.1348806668780744
1761413827264162600,8.69416259765625,-0.9550374560773373,0.1854578358121216,1.0372308783784507
1761413827274175500,8.704175537109375,-0.9225281021386385,0.19955869574844837,0.9900467370729893
1761413827284188400,8.7141884765625,-0.929696094071865,0.18037307989373802,0.9199383048411458
1761413827294201300,8.724201416015624,-0.934323169350624,0.08544993987902999,0.821750902333483
1761413827304214500,8.734214599609375,-0.8639981717586517,0.03161087072901428,0.7010197326496244
1761413827314227500,8.7442275390625,-0.6916460473656654,0.04301204325258732,0.5872392588865012
1761413827324239600,8.754239501953125,-0.5370639729410409,0.10788878537602722,0.5630617164960131
1761413827334252300,8.764252197265625,-0.4441822756260633,0.22679456626363098,0.5151573711572215
1761413827344265500,8.774265380859376,-0.4402221398234367,0.3257869284786284,0.5109393150707706
1761413827354278700,8.784278564453125,-0.4976671975761652,0.453312580608204,0.5662530598832294
1761413827364291300,8.794291259765625,-0.6334574777692557,0.6165126265786588,0.600846307423897
1761413827374304500,8.804304443359374,-0.7332552380830049,0.7580828053474425,0.6300785028554499
1761413827384316400,8.81431640625,-0.8017705559045076,0.9147137751258909,0.6289908537492156
1761413827394329600,8.82432958984375,-0.7360738026350736,1.020281204882264,0.6454223485901951
1761413827404342500,8.834342529296874,-0.5355898087352514,1.1030610487692059,0.6174187816381455
1761413827414355500,8.84435546875,-0.29643676922321316,1.1824912899672984,0.5388730316570028
1761413827424368400,8.854368408203126,-0.09042202920317649,1.235938364125043,0.4353877054043114
1761413827434381600,8.864381591796874,0.03760170864164829,1.282865096603334,0.33697920749187465
1761413827444394200,8.874394287109375,0.07562719565331935,1.3358929224357008,0.2797529801215976
1761413827454406400,8.884406494140626,0.07941489749848842,1.4399822424635291,0.25358146916860713
1761413827464419300,8.89441943359375,0.07764788782596588,1.5437125199206172,0.2694721533974632
1761413827474432500,8.9044326171875,0.08725041342973709,1.674642938992381,0.2500144060704857
1761413827484445700,8.91444580078125,0.15987901178896427,1.826610739265382,0.21830199292944744
1761413827494458400,8.924458251953125,0.27157529968917365,1.9157851064950226,0.14275906889294274
1761413827504471600,8.934471435546875,0.36452070989012714,1.9040983219631016,0.07353834274844266
1761413827514483500,8.9444833984375,0.48118251124322414,1.8754175864018499,-0.03084702848335728
1761413827524496600,8.95449658203125,0.5852765074461698,1.8283884164623916,-0.11060973477251827
1761413827534509300,8.96450927734375,0.7163005961507558,1.743885109783709,-0.11283169427146203
1761413827544522500,8.9745224609375,0.7730962500840425,1.7055585939988493,-0.08141077489028685
1761413827554535400,8.984535400390625,1.025857543709874,1.678200485343486,-0.04167206335309893
1761413827564548600,8.994548583984376,1.2036088967978953,1.575013667113334,-0.07177240165499969
1761413827574560500,9.004560546875,1.403060625040531,1.4362389642819762,-0.0248132282118313
1761413827584573400,9.014573486328125,1.4177619350880384,1.360066701966524,-0.05166836491427384
1761413827594586400,9.02458642578125,1.4095429727971553,1.2906614495679736,-0.054891505378973665
1761413827604599600,9.034599609375,1.3210615562677384,1.1997533904135227,-0.04017779707419686
1761413827614612500,9.044612548828125,1.1633540432989598,1.182706686283648,0.020925664455071092
1761413827624625400,9.05462548828125,0.9902034620046615,1.142105503565073,0.041569863353949035
1761413827634637300,9.06463720703125,0.8335287992149591,1.1451803809657692,0.04258307725079357
1761413827644650500,9.074650390625,0.7254045245826244,1.1719504606001079,0.04850073119620792
1761413827654663700,9.08466357421875,0.6763730749100446,1.1791947326399386,0.09581730324230156
1761413827664676400,9.09467626953125,0.6489689351558685,1.1281776621080934,0.15352767000086603
1761413827674689500,9.104689453125,0.5600853675663471,1.044042458089441,0.11867147894138469
1761413827684702500,9.114702392578126,0.4649193587064743,0.9630680561892687,0.003394894002145156
1761413827694714600,9.124714599609375,0.45086219178140163,0.8831351261660456,-0.052649548838194456
1761413827704727300,9.134727294921875,0.40295127057135105,0.7702255169533193,-0.005192490609176457
1761413827714740500,9.144740478515626,0.3272305514156818,0.6651736355036497,-0.025646984755387528
1761413827724753400,9.15475341796875,0.23656302301883697,0.6261898248538375,-0.006327887847274541
1761413827734766600,9.1647666015625,0.17735504724681375,0.5942785829387605,0.006899705519014969
1761413827744779300,9.174779296875,0.1784469341367483,0.5148068406865001,0.09251589620988815
1761413827754792400,9.18479248046875,0.04475859465897083,0.35555151375383137,0.08040396333476528
1761413827764804400,9.194804443359375,-0.0011515081226825714,0.28828838795050976,-0.0450156016273424
1761413827774817500,9.204817626953124,0.019046645775437354,0.2409424071468413,-0.09503154142578132
1761413827784830500,9.21483056640625,0.056821372896432874,0.1570963953331113,-0.04172831445182673
1761413827794843400,9.224843505859376,0.1329343062400818,0.0853521785929799,-0.02055013654041104
1761413827804856600,9.234856689453125,0.215376442605257,0.025810294691473244,-0.036796173545578494
1761413827814869500,9.244869384765625,0.24859423707425593,-0.08682342018932103,-0.00969285250203684
1761413827824881700,9.254881591796876,0.26833997102975843,-0.24190613761246202,0.027772671672469003
1761413827834894300,9.264894287109374,0.18641455201506613,-0.3437053008764982,0.06679871402881107
1761413827844907500,9.274907470703125,0.07878244481384754,-0.40642070024758575,0.06954783007386141
1761413827854920400,9.28492041015625,-0.09793196644186973,-0.46754978027530014,0.048873583096591754
1761413827864933400,9.294933349609375,-0.2880395277559757,-0.5008033767100424,-0.006952737180772237
1761413827874946300,9.3049462890625,-0.4101853134781122,-0.5121730581168085,0.03248959892545827
1761413827884958500,9.31495849609375,-0.5634212339907885,-0.5931569584976881,0.07672677265936509
1761413827894971100,9.32497119140625,-0.6359177304029464,-0.5965156212758272,0.054932536075683304
1761413827904984300,9.334984375,-0.5334124646961689,-0.566331933805719,0.0742899648333434
1761413827914997000,9.3449970703125,-0.2957160537332296,-0.5270091004598886,0.22069603019282222
1761413827925010200,9.35501025390625,-0.031626725885272024,-0.518383091738075,0.31676899782977996
1761413827935023400,9.3650234375,0.17372516631186008,-0.5051004893820733,0.316235292811878
1761413827945035300,9.37503515625,0.264179928740859,-0.5256433650646358,0.3303269099958241
1761413827955048400,9.38504833984375,0.2684112827003002,-0.6044311436407268,0.34497016971316186
1761413827965061000,9.39506103515625,0.18210428760051725,-0.6342812883075326,0.33187132642623035
1761413827975074300,9.40507421875,0.06215805774927139,-0.6338910468809307,0.2649644484483637
1761413827985087200,9.415087158203125,-0.010133271479606628,-0.5790219040308148,0.24196793253598733
1761413827995100200,9.42510009765625,-0.08777531408667563,-0.5046051070805638,0.23278542244257405
1761413828005112000,9.435112060546874,-0.15354104093909263,-0.4269013243488967,0.2439561654774472
1761413828015125200,9.445125244140625,-0.15995909128785132,-0.3427365289095789,0.2484048885146156
1761413828025138200,9.45513818359375,-0.1354910049855709,-0.28762743982374667,0.2841080335259437
1761413828035151400,9.4651513671875,-0.04497428323626518,-0.28399792421497405,0.30315771150868387
1761413828045164000,9.4751640625,0.02609656428694725,-0.29179661526717243,0.2943062965331599
1761413828055177200,9.48517724609375,0.06497253064811229,-0.2835884666312486,0.22992435218933968
1761413828065189000,9.495189208984375,0.04988075997829437,-0.25983795401379467,0.20248499499130992
1761413828075202300,9.505202392578125,-0.010142623829841614,-0.23887042317837476,0.22099757042266427
1761413828085215200,9.51521533203125,-0.04098082968592644,-0.18252207462117076,0.18930066537801174
1761413828095228200,9.525228271484375,-0.09932605114877223,-0.07057283487319946,0.11475383057361468
1761413828105241300,9.535241455078125,-0.16145371375977993,0.07266001641079783,0.07548552216030657
1761413828115254300,9.545254150390624,-0.23332535627186296,0.17193251074142754,0.06984486765852198
1761413828125266400,9.555266357421875,-0.29419454325437544,0.24864560193531213,0.03890139306336641
1761413828135279000,9.565279052734375,-0.3450035239934921,0.2088440451618284,0.06084911230886355
1761413828145292300,9.575292236328124,-0.3042091567903757,0.061489876164123415,0.30178119899109
1761413828155305200,9.58530517578125,-0.04970423436760902,-0.21632373339273034,0.5440840443035587
1761413828165318100,9.595318115234376,0.33133389508128164,-0.35348895520083606,0.3677019702747464
1761413828175331000,9.6053310546875,0.5443529609054326,-0.28458471112698314,0.05733655587695539
1761413828185343200,9.61534326171875,0.49934009922444816,-0.25669541820436714,-0.06587539777196944
1761413828195356200,9.625356201171876,0.2918213843822479,-0.29537542360201474,-0.06020071313641965
