time,seconds_elapsed,z,y,x
1761413803999291600,0.067291748046875,0.5164017086625099,-0.9131734138160943,0.2403092968750745
1761413804009304800,0.077304931640625,0.5297118566125631,-0.9494927544970064,0.2361460397157818
1761413804019317500,0.0873173828125,0.5060638545215129,-0.9874396963797509,0.24360939786639063
1761413804029330700,0.09733056640625,0.4310580056369304,-0.979919822268933,0.21350173477455972
1761413804039343600,0.107343505859375,0.35632512847483155,-0.9647324822701513,0.21205038518877697
1761413804049356800,0.117356689453125,0.26093992390632625,-0.9731436061322688,0.18449932951088993
1761413804059369500,0.127369384765625,0.16618308036923407,-0.984139339660108,0.16696160872736945
1761413804069382700,0.137382568359375,0.09530687863528728,-0.9729124277248978,0.09924326823614538
1761413804079395600,0.1473955078125,0.04865209496617317,-0.9606578532423824,0.06062688439292833
1761413804089408500,0.157408447265625,-0.001129296290874481,-0.9655587039612233,0.053912974636442956
1761413804099421700,0.167421630859375,-0.06345043564736842,-0.9369139164961874,0.05316232066592201
1761413804109433600,0.17743359375,-0.17185177365541457,-0.9109329414129257,0.0010492350582964717
1761413804119446800,0.18744677734375,-0.3167687786340713,-0.8572475284546613,-0.03761807525455951
1761413804129459700,0.197459716796875,-0.4340437434494495,-0.8295641333676874,-0.03774590288531035
1761413804139472600,0.20747265625,-0.5177344185709953,-0.8033069716915487,-0.026865539365448055
1761413804149485600,0.217485595703125,-0.6136626439750195,-0.7610593369401991,-0.040952498640585686
1761413804159498800,0.227498779296875,-0.7575082203298806,-0.7190010142158717,-0.040626445023994893
1761413804169511700,0.23751171875,-0.9234066385388374,-0.683786712167412,-0.0779568989762105
1761413804179524600,0.247524658203125,-1.0733476091593503,-0.6382021880783141,-0.08638795138150453
1761413804189537800,0.257537841796875,-1.1196195309907198,-0.5582413106022402,-0.07133172694910317
1761413804199550700,0.26755078125,-1.13854868786633,-0.5116216347791254,-0.027000454324111342
1761413804209563600,0.277563720703125,-1.0873568452894686,-0.4900870081128552,-0.014229235556349158
1761413804219575600,0.287575439453125,-0.9720406133264302,-0.5083469970226288,0.05018551507852971
1761413804229588700,0.297588623046875,-0.8219371456205844,-0.5735772287588566,0.14584328951071948
1761413804239601700,0.3076015625,-0.5919581771671771,-0.7545012935988604,0.31215726625062523
1761413804249614600,0.317614501953125,-0.30251813496351243,-0.9324602980881929,0.40318361802250147
1761413804259627500,0.32762744140625,-0.09011398616731166,-1.0526805225752294,0.3450857954494655
1761413804269640700,0.337640625,-0.004595511096715927,-1.1313720742352307,0.2156597895912826
1761413804279653600,0.347653564453125,-0.15213585031628607,-1.137677384924516,0.09730682028084993
1761413804289666600,0.35766650390625,-0.34840953304469585,-1.0741010578751564,0.004934095401316881
1761413804299679700,0.3676796875,-0.5638531956672668,-0.9959110259965062,-0.020842516216263172
1761413804309692700,0.377692626953125,-0.6896253551930188,-0.8842340273186564,-0.042405674857273694
1761413804319705600,0.38770556640625,-0.7408592833459376,-0.6951615812059492,-0.04601323436256498
1761413804329717800,0.3977177734375,-0.7495055311381816,-0.4913621791478246,0.03350041080266237
1761413804339730700,0.407730712890625,-0.6987532490223646,-0.326383579197526,0.1340307231746614
1761413804349743600,0.41774365234375,-0.5971387946754694,-0.1763028347801417,0.2371701585991308
1761413804359756800,0.4277568359375,-0.48402971736788747,-0.07381905025281012,0.327020927252993
1761413804369769500,0.43776953125,-0.3639993163645267,-0.02248458433486521,0.3734885908521712
1761413804379782700,0.44778271484375,-0.2667155846983194,-0.017172303270921112,0.3715538233973086
1761413804389795600,0.457795654296875,-0.19202888476550578,-0.016794848260655998,0.3433327777696773
1761413804399808800,0.467808837890625,-0.11914134320914745,-0.026359891398251054,0.26343457199996334
1761413804409821700,0.47782177734375,0.004857961425185203,-0.0023431290600448846,0.17547586417039857
1761413804419834600,0.487834716796875,0.13651684090197086,0.0646796121161431,0.08715199455656111
1761413804429847800,0.497847900390625,0.27848727103471754,0.1042654803123325,0.004175714782066643
1761413804439859700,0.507859619140625,0.38914720162451266,0.17258469103984533,-0.04712705908967182
1761413804449872600,0.51787255859375,0.4698825340718031,0.2694189984381199,-0.06908058702144772
1761413804459885600,0.527885498046875,0.44159342817664143,0.3365081559140235,-0.06492565929908305
1761413804469898800,0.537898681640625,0.3973194021642208,0.3800271257754415,-0.06820278127361089
1761413804479911700,0.54791162109375,0.3320224618673324,0.42579942752160127,-0.05966068797558546
1761413804489924600,0.557924560546875,0.2471843702763319,0.43461745168417687,-0.07654513248214498
1761413804499937500,0.5679375,0.21727496970295904,0.40614992048218845,-0.045536118370108306
1761413804509950700,0.57795068359375,0.19979367354810237,0.3558114798642695,-0.07333791567236185
1761413804519963600,0.587963623046875,0.21816227393150328,0.29430326432585713,-0.09237177503146231
1761413804529976600,0.5979765625,0.2533615976065397,0.26384587448090313,-0.13763117708573117
1761413804539989800,0.60798974609375,0.26913199819028377,0.21319734500050544,-0.1869263557284139
1761413804550001700,0.618001708984375,0.30333588108718396,0.1966141667291522,-0.23706909111114216
1761413804560014800,0.628014892578125,0.3612169921696186,0.22009894108250735,-0.2681068929262459
1761413804570027500,0.638027587890625,0.40760991003215313,0.29086729852780696,-0.27704397689122706
1761413804580040700,0.648040771484375,0.42339901531636714,0.3805038764417171,-0.2995209259089082
1761413804590053600,0.6580537109375,0.3812023800998926,0.4679176637396216,-0.2822841790996492
1761413804600066600,0.668066650390625,0.29278233836889267,0.5290275276102125,-0.2376966301586479
1761413804610079500,0.67807958984375,0.17571838595569134,0.5993610007695853,-0.20672862391043453
1761413804620092700,0.6880927734375,0.035514380973577495,0.6804812408812344,-0.17031795168425887
1761413804630105900,0.69810595703125,-0.12878712343275547,0.7123680790074169,-0.10257376436572521
1761413804640118500,0.708118408203125,-0.2759937006533146,0.7055814876072108,-0.05291736946152523
1761413804650131700,0.718131591796875,-0.32817513878941534,0.777587277892977,0.023948026217240837
1761413804660144600,0.72814453125,-0.2347919216930866,0.8045217543087899,0.09093078244291246
1761413804670156800,0.73815673828125,-0.07232932315170765,0.7911834031775593,0.16082306943973526
1761413804680169500,0.74816943359375,0.11264788953661918,0.7430228911206126,0.19758763313749803
1761413804690182700,0.7581826171875,0.2657014392197132,0.671971405884996,0.225453344255127
1761413804700195600,0.768195556640625,0.46264206142425535,0.59717021272704,0.2410298479682766
1761413804710208800,0.778208740234375,0.6372884342342615,0.47780675119981164,0.23076577144954352
1761413804720221700,0.7882216796875,0.7797820114582776,0.36756124662980433,0.22430353489918634
1761413804730234600,0.798234619140625,0.9211474614351988,0.2297535621996969,0.20924842471163718
1761413804740247800,0.808247802734375,0.9698965870350599,0.07917188252285122,0.20204927045516669
1761413804750260500,0.818260498046875,0.9807868143618106,-0.048490913055092094,0.1590113438426517
1761413804760273700,0.828273681640625,0.9691934072017669,-0.13835976535491645,0.11395728250159881
1761413804770286600,0.83828662109375,0.9207125771492719,-0.24938494906052946,0.060473168835672546
1761413804780298800,0.848298828125,0.8932640137314796,-0.3241884803060442,0.04324740464473143
1761413804790311700,0.858311767578125,0.8329132976651191,-0.3754141520872712,0.024211022251693064
1761413804800324600,0.86832470703125,0.7731956188052892,-0.4101766187150031,0.012093235024518798
1761413804810337500,0.878337646484375,0.7495499548017979,-0.42409459636509417,0.007328495707584079
1761413804820350700,0.888350830078125,0.7829214785277843,-0.43025311899483204,-0.0032519315926998384
1761413804830363600,0.89836376953125,0.8753343892872333,-0.4418582896579057,-0.0135673729724891
1761413804840376600,0.90837646484375,0.9461515543103217,-0.4667679091826081,-0.01256307189281797
1761413804850389800,0.9183896484375,0.9746662856549024,-0.5190294268175959,-0.02518872416045051
1761413804860402700,0.928402587890625,0.9280576792150735,-0.5805322355285286,-0.011620375082071404
1761413804870415600,0.93841552734375,0.857147575211525,-0.6577794335991144,-0.026190480514941737
1761413804880427800,0.948427734375,0.7729992194503545,-0.7173600420758127,-0.035476277452893556
1761413804890440700,0.958440673828125,0.6961211469531059,-0.7585184933509678,-0.010947040114481933
1761413804900454000,0.968453857421875,0.6085843177974224,-0.7810578035477549,-0.005254134835652075
1761413804910466600,0.978466552734375,0.4736848489642143,-0.8070479848507791,-0.07140000184576492
1761413804920479700,0.988479736328125,0.30768823107779025,-0.827868216169998,-0.09857605476537719
1761413804930492700,0.99849267578125,0.1457002643108368,-0.7996397544208913,-0.13698286924483255
1761413804940505900,1.008505859375,0.03545885139405727,-0.766974917659536,-0.20542187042711302
1761413804950518800,1.018518798828125,-0.07396364635527133,-0.7591838253919034,-0.22437354966178535
1761413804960531700,1.02853173828125,-0.14681319398880005,-0.776186471184343,-0.26788051855815576
1761413804970545000,1.038544921875,-0.18996201536357402,-0.8008648392364383,-0.2894653775743209
1761413804980557600,1.0485576171875,-0.2610036367923021,-0.7901041565734893,-0.3347617506381124
1761413804990569700,1.05856982421875,-0.31820494891703127,-0.8256699754733592,-0.40040918487310406
1761413805000582700,1.068582763671875,-0.3881196121424436,-0.8368262333251535,-0.42571638888064767
1761413805010595800,1.078595947265625,-0.472081505420804,-0.8722868382848799,-0.42937918570451433
1761413805020608800,1.08860888671875,-0.5327917024493217,-0.8896648932609706,-0.43719069970566776
1761413805030621700,1.09862158203125,-0.5228998385101556,-0.8766494174085557,-0.454588664958626
1761413805040634600,1.108634521484375,-0.4846645081400871,-0.8520223411522805,-0.4759249195085838
1761413805050647800,1.118647705078125,-0.47535482800304885,-0.8343899460889399,-0.4912702996132895
1761413805060660700,1.12866064453125,-0.4512070596963167,-0.811145483297482,-0.5210132941111922
1761413805070673700,1.138673583984375,-0.47703123678267,-0.7643341208271682,-0.5350519024662673
1761413805080686800,1.148686767578125,-0.5349181930840015,-0.699219551359862,-0.5630886410355568
1761413805090699800,1.15869970703125,-0.5577659847080707,-0.6162849553026258,-0.5738800476303324
1761413805100712000,1.1687119140625,-0.5170902754485607,-0.5073226954761892,-0.531563183567673
1761413805110724600,1.178724609375,-0.4819505730062723,-0.42313707644455134,-0.500888168916665
1761413805120737800,1.18873779296875,-0.43998950011134147,-0.40955023044496774,-0.45217546633705497
1761413805130750700,1.198750732421875,-0.37421266734302044,-0.5095116568878293,-0.32009317381642755
1761413805140763600,1.208763671875,-0.16461247005164623,-0.6384962756540626,-0.2933125179891474
1761413805150776600,1.218776611328125,-0.053394905579090116,-0.7034896298944949,-0.424044290949963
1761413805160789800,1.228789794921875,-0.18567863895595071,-0.7968826377324759,-0.5242358728868887
1761413805170803000,1.238802978515625,-0.44675124933123583,-0.8533659377809614,-0.6323474707007408
1761413805180815600,1.248815673828125,-0.731720283600688,-0.8384741466626524,-0.742959616626054
1761413805190828800,1.258828857421875,-0.9835217922836541,-0.7963795835811645,-0.8153198463726788
1761413805200840700,1.2688408203125,-1.2302695247083901,-0.6901872999247163,-0.8622760972063988
1761413805210854000,1.27885400390625,-1.3538479735821485,-0.4729273085951805,-0.8551566936552524
1761413805220866600,1.288866455078125,-1.4051713335841893,-0.2563109489314258,-0.8107018311832099
1761413805230879700,1.298879638671875,-1.3395733645141124,-0.0509583991471678,-0.7130420327462256
1761413805240892700,1.308892578125,-1.1978665537536144,0.1960821787443012,-0.6297249401774258
1761413805250905900,1.31890576171875,-1.018019105169177,0.3814312934849411,-0.5681961933076382
1761413805260918500,1.32891845703125,-0.8768962317764759,0.5121916897520422,-0.4467899373738095
1761413805270931700,1.338931640625,-0.7272206340938806,0.5397458324361593,-0.37329547943286595
1761413805280945000,1.34894482421875,-0.5860176812022924,0.5266996691845357,-0.31620708963070066
1761413805290957600,1.35895751953125,-0.42679333392977714,0.495955425222218,-0.22525281671434638
1761413805300970800,1.368970703125,-0.24502865354716777,0.5348883094023913,-0.1742837135100737
1761413805310982700,1.378982666015625,-0.06577975537776946,0.5809948846042156,-0.13045547677008434
1761413805320995800,1.388995849609375,0.12687164520025251,0.6102420218765735,-0.09666810225220397
1761413805331008800,1.3990087890625,0.3159825966924429,0.5986484685860574,-0.05708084581652656
1761413805341021700,1.409021728515625,0.4935357968598604,0.5742911491818725,-0.00035831191837787623
1761413805351034600,1.41903466796875,0.7000304293513298,0.542377276918292,0.05451696841157973
1761413805361047800,1.4290478515625,0.931620924654603,0.5231495754875243,0.10300050187781452
1761413805371060700,1.439060791015625,1.103845038753748,0.5122841903410852,0.17511185316359623
1761413805381073700,1.44907373046875,1.1939110941261053,0.4794270458780229,0.2877818084015511
1761413805391086800,1.4590869140625,1.1441314564347267,0.43611017445996403,0.3631916897760704
1761413805401099800,1.469099853515625,0.9712082541555166,0.420037576059252,0.3839872981106862
1761413805411112000,1.47911181640625,0.7822066082566976,0.48560997229665515,0.35232305322661994
1761413805421124600,1.48912451171875,0.6161451084405184,0.6094355277992785,0.30592648210227485
1761413805431137800,1.4991376953125,0.49891164467930793,0.6616922231286764,0.32285328617952763
1761413805441150700,1.509150634765625,0.36849195160865783,0.7123261395618319,0.3306715221824124
1761413805451163600,1.51916357421875,0.2550274849921465,0.7878292704440653,0.3263366347832605
1761413805461176600,1.529176513671875,0.12168985864818095,0.8391736732341348,0.32394667090680446
1761413805471189800,1.539189697265625,-0.010381693282723425,0.9068709526710211,0.3629783027537167
1761413805481203000,1.549202880859375,-0.07622808415591717,0.9525644900925457,0.4542126712530851
1761413805491215600,1.559215576171875,-0.09277999050617218,0.9883039119936525,0.5227656176712364
1761413805501228800,1.569228759765625,-0.09128829064369201,0.9811154617942869,0.5659532366864383
1761413805511241700,1.57924169921875,-0.09298691125512122,0.9416682714164256,0.5686892375215887
1761413805521254000,1.58925390625,-0.06039806233942508,0.8877491958327591,0.5374246960122138
1761413805531266800,1.599266845703125,0.0086269585698843,0.7760651828922331,0.4416303261209279
1761413805541279700,1.60927978515625,0.07257832947671412,0.6369868209391832,0.35354338880181313
1761413805551292700,1.619292724609375,0.10963467919528484,0.5034031108796596,0.2649194402628578
1761413805561305900,1.629305908203125,0.1790881546497345,0.36388445781320333,0.20060632337154818
1761413805571318500,1.639318603515625,0.21334172190725803,0.2775501363150775,0.12530860626776702
1761413805581331700,1.649331787109375,0.23012100727260112,0.20275135430991648,0.09267122376891784
1761413805591345000,1.659344970703125,0.20085224269032478,0.16922697810977697,0.05707418774687685
1761413805601357800,1.66935791015625,0.1506920812487602,0.15491437511891126,0.06702057661856524
1761413805611370800,1.679370849609375,0.10310673873126507,0.18930968893468378,0.06494437313270755
1761413805621383700,1.6893837890625,0.016323358291387556,0.19866744599714875,0.09217307412158697
1761413805631395800,1.699395751953125,-0.05967150163054466,0.19649302456751463,0.09346591781056486
1761413805641408800,1.70940869140625,-0.08797638961672782,0.17123919471502302,0.0986667561229784
1761413805651421700,1.719421630859375,-0.09026771542429923,0.14762860202491282,0.1004343777168542
1761413805661434600,1.7294345703125,-0.04581482571363449,0.13929624248743055,0.09477753926524891
1761413805671447800,1.73944775390625,0.08499415893554688,0.12016703299507497,0.0927838446973823
1761413805681460700,1.749460693359375,0.19546002825796602,0.06888502791672944,0.1411799008095637
1761413805691473700,1.7594736328125,0.3418786699712276,0.011812895129621028,0.16880740099083633
1761413805701486800,1.76948681640625,0.45985447653234,-0.03883578048124909,0.16321520700696854
1761413805711499800,1.779499755859375,0.5507382780283689,-0.11037190742865204,0.18405198760218916
1761413805721512700,1.7895126953125,0.6412596759527921,-0.1825906098127365,0.2287740861756727
1761413805731524600,1.799524658203125,0.7693079637169837,-0.2452294368162751,0.25790333268940446
1761413805741537800,1.809537841796875,0.8973767097473144,-0.27418445927426216,0.3484509610336274
1761413805751550700,1.81955078125,0.9674094463944435,-0.24001447864696382,0.42321777699794616
1761413805761564000,1.82956396484375,0.8901455894500017,-0.2515649234481156,0.44828613074831664
1761413805771576600,1.83957666015625,0.7019073291391134,-0.2827682362895459,0.36336759433224797
1761413805781589800,1.84958984375,0.46441900796890256,-0.31811683224216103,0.30519053251054135
1761413805791602700,1.859602783203125,0.26555413970351216,-0.38248204464688895,0.2389225917570293
1761413805801615600,1.86961572265625,0.04678571657240391,-0.4330523212593049,0.22341756411120295
1761413805811628800,1.87962890625,-0.12669804219901562,-0.4389588418893516,0.15459095185082405
1761413805821641700,1.889641845703125,-0.279870249825716,-0.4386430539384484,0.12393778370544313
1761413805831655000,1.899655029296875,-0.3772621180415153,-0.4172076133303344,0.08651921307835728
1761413805841666800,1.909666748046875,-0.4602805929899215,-0.42165348682329057,0.044015484674088654
1761413805851679700,1.9196796875,-0.4751724571734667,-0.3961429057307541,-0.050413770876452324
1761413805861692700,1.929692626953125,-0.4632148928761482,-0.35175080629661676,-0.165643091741018
1761413805871705900,1.939705810546875,-0.42191666780412196,-0.30876177859343584,-0.3417341834666207
1761413805881718800,1.94971875,-0.4756424127727747,-0.28279994660206137,-0.5056834403691813
1761413805891731700,1.959731689453125,-0.6120236445963383,-0.2648638193517923,-0.6158519707128405
1761413805901745000,1.969744873046875,-0.8166063059866427,-0.248571732981503,-0.6342404448404908
1761413805911757800,1.9797578125,-0.9971586879700421,-0.2005668498776853,-0.6081061423590406
1761413805921770800,1.989770751953125,-1.1169324838638306,-0.17271511248648166,-0.4366110366541892
1761413805931783700,1.99978369140625,-1.0591425581961869,-0.2914588346801698,-0.17123397055063397
1761413805941795800,2.0097958984375,-0.6885813990980386,-0.4532268750861287,-0.022110490325465797
1761413805951808800,2.019808837890625,-0.2956821514636278,-0.5492474549487233,-0.2301822359405458
1761413805961821700,2.02982177734375,-0.1303057113021612,-0.493685726724565,-0.5949132275804877
1761413805971834600,2.039834716796875,-0.18902385773062705,-0.49916649622321124,-0.8777635161302983
1761413805981847800,2.049847900390625,-0.4977613056004047,-0.5658190889127552,-0.8851943237181752
1761413805991861000,2.059861083984375,-0.7789975830823183,-0.5279729039907455,-0.746703260133788
1761413806001873700,2.069873779296875,-0.9458943646788597,-0.3478510223791003,-0.6338453080430626
1761413806011886800,2.079886962890625,-0.9856441912651062,-0.09056801354512571,-0.5811043363280594
1761413806021899800,2.089899658203125,-0.9333464332729577,0.12342618092149496,-0.5470121336447075
1761413806031912700,2.09991259765625,-0.8538099552214146,0.26598931625038386,-0.5040990572545677
1761413806041924600,2.109924560546875,-0.8012935860425233,0.3069898735500872,-0.4764486876543611
1761413806051937800,2.119937744140625,-0.859262375408411,0.31167262453883887,-0.5048377833252773
1761413806061950700,2.12995068359375,-0.9495014492601156,0.28083602611795067,-0.5839741196107119
1761413806071964000,2.1399638671875,-0.9502455456256866,0.28297245362475515,-0.6827803116038441
1761413806081976600,2.1499765625,-0.8494792325407267,0.3143189012639224,-0.7415398129560052
1761413806091989800,2.15998974609375,-0.619568068626523,0.40497035530880093,-0.7881510497443378
1761413806102003000,2.1700029296875,-0.30384558417499063,0.5410924978047609,-0.8499304834395647
1761413806112015600,2.180015625,0.0164957922488451,0.690884123082459,-0.9491123038120567
1761413806122028800,2.19002880859375,0.2786895156085491,0.7815697716578841,-0.9938293974168598
1761413806132041700,2.200041748046875,0.4347171126663685,0.8280453993678093,-1.0807711102236062
1761413806142054000,2.210053955078125,0.4797679682701826,0.8500161158964037,-1.1253086825430392
1761413806152066800,2.22006689453125,0.48560032768547534,0.8625481190808116,-1.1770876773580907
1761413806162079700,2.230079833984375,0.4153770369023084,0.8809155504204332,-1.2264745163396
1761413806172092700,2.2400927734375,0.4255336892575025,0.866886586676538,-1.268327891076356
1761413806182105900,2.25010595703125,0.46047523877918717,0.8647728093929589,-1.3129926699720322
1761413806192118800,2.260118896484375,0.5261421814322471,0.8399037410743534,-1.3473428294718264
1761413806202131700,2.270131591796875,0.5679612155079842,0.7806304449811577,-1.3842157854475081
1761413806212145000,2.280144775390625,0.5872112749010324,0.6962802830375731,-1.4597854056946933
1761413806222157800,2.29015771484375,0.5568985542237759,0.6580186491824687,-1.5019465312063693
1761413806232170800,2.300170654296875,0.5247323146343231,0.6455190869629382,-1.487315217655152
1761413806242182700,2.3101826171875,0.49456221729815003,0.6492381074860691,-1.428311093892157
1761413806252195800,2.32019580078125,0.40787820557951926,0.7093782495416701,-1.3606246281102299
1761413806262208800,2.330208740234375,0.269687293985486,0.7770666150197386,-1.3149893967472015
1761413806272221700,2.3402216796875,0.1300222181856632,0.8352367721766233,-1.2775759041540324
1761413806282234600,2.350234619140625,0.05326864885091781,0.8420394379287958,-1.1936197099640964
1761413806292247800,2.360247802734375,-0.020115736311674116,0.7767864829041063,-1.1144035499081015
1761413806302261000,2.370260986328125,-0.0830845259219408,0.6539511074826121,-1.0567194227024912
1761413806312273700,2.380273681640625,-0.04983750535845756,0.5608750566393137,-1.062533808069676
1761413806322286800,2.390286865234375,0.04849778118729591,0.39472470949590205,-1.0513058001559228
1761413806332299800,2.4002998046875,0.0997545056939125,0.20771599097996948,-1.024372419718653
1761413806342312000,2.41031201171875,0.10696750581264496,0.06577449468076228,-1.0089634728584438
1761413806352324600,2.42032470703125,0.11119652168452739,-0.07036226086243987,-1.0004309145737438
1761413806362337800,2.430337890625,0.11103986981809139,-0.15607742754891513,-0.9805002525053917
1761413806372350700,2.440350830078125,0.18071838620007036,-0.20535276897996663,-0.9530584110893309
1761413806382364000,2.450364013671875,0.2797171050906181,-0.2514572252899408,-0.918292510395497
1761413806392376600,2.46037646484375,0.40893326759040355,-0.29969051032215355,-0.9182650378666818
1761413806402389800,2.4703896484375,0.5102583836019039,-0.3275175516635179,-0.945929143731296
1761413806412403000,2.48040283203125,0.5569301184058189,-0.37894846369326113,-0.9487760575950145
1761413806422415600,2.49041552734375,0.5455155749440193,-0.4276255469702184,-0.9580975012350826
1761413806432428800,2.5004287109375,0.5491571463167667,-0.4767484743185341,-0.9300973683491348
1761413806442440700,2.510440673828125,0.6082265904009342,-0.4987963477365672,-0.8917484215367585
1761413806452454000,2.520453857421875,0.6951099240839481,-0.5089055076882243,-0.7978381118264048
1761413806462466800,2.530466796875,0.7706283986657857,-0.5060866508752108,-0.7114452650740742
1761413806472479700,2.540479736328125,0.8163976316720247,-0.5406014994174242,-0.6425277961924671
1761413806482492700,2.55049267578125,0.8691080621182918,-0.5391451631292701,-0.5861179997716098
1761413806492505900,2.560505859375,0.9434510631799697,-0.5245834076829254,-0.5554098500359803
1761413806502518500,2.5705185546875,1.038596029251814,-0.5433734483487904,-0.5200020712420345
1761413806512531700,2.58053173828125,1.1202589979380368,-0.5780412954956293,-0.4844640901971608
1761413806522545000,2.590544921875,1.138034308603406,-0.6100881464891136,-0.4434563725043088
1761413806532557800,2.600557861328125,1.0765694938153028,-0.5989046353042126,-0.44283283377848565
1761413806542570800,2.61057080078125,0.9965794267773628,-0.5861774018086493,-0.4138490966826677
1761413806552582700,2.620582763671875,0.9061883772343396,-0.5622985135711729,-0.3233568517874926
1761413806562595800,2.630595947265625,0.7712275336027145,-0.5366150601297617,-0.1816751754682511
1761413806572608800,2.64060888671875,0.6776753896802663,-0.5505743196383118,-0.06801686678007245
1761413806582621700,2.65062158203125,0.6317892522960901,-0.5613020498797298,0.04832205929420888
1761413806592634600,2.660634521484375,0.6022849253922701,-0.6152649646051228,0.10201996640786529
1761413806602647800,2.670647705078125,0.6248042157143354,-0.6603795330949127,0.10383819481097162
1761413806612661000,2.680660888671875,0.664440060532093,-0.7201390052698552,0.12487155742421746
1761413806622673700,2.690673583984375,0.6839204215496778,-0.7561684961587191,0.14981829408891498
1761413806632686800,2.700686767578125,0.5504372492551803,-0.7939969992935657,0.17450849870927632
1761413806642699800,2.71069970703125,0.30048166069984433,-0.7955112032487988,0.12527297783195973
1761413806652712000,2.7207119140625,0.08446925827860832,-0.7484387786895036,0.051081441004946826
1761413806662724600,2.730724609375,-0.18118132753670216,-0.704834322501719,-0.030378917781263587
1761413806672737800,2.74073779296875,-0.4547223743408918,-0.5994255904383957,-0.09116159552410244
1761413806682750700,2.750750732421875,-0.6787573396980762,-0.5166697119489312,-0.1300437724303454
1761413806692764000,2.760763916015625,-0.8712403979718685,-0.42389425148740406,-0.18502463202662764
1761413806702776600,2.770776611328125,-0.9883335764795541,-0.33829774274453517,-0.1926298463333398
1761413806712789800,2.780789794921875,-1.0460375774294137,-0.2872949929989874,-0.17367847762592137
1761413806722803000,2.790802978515625,-1.0730886659622192,-0.30784480987899004,-0.022540771501511334
1761413806732815600,2.800815673828125,-0.9067664693832397,-0.49302441327162083,0.2524271663006395
1761413806742828800,2.810828857421875,-0.6102975514560938,-0.6789733936015516,0.359727922655642
1761413806752840700,2.8208408203125,-0.370306307554245,-0.8094338570740074,0.32864977056384087
1761413806762854000,2.83085400390625,-0.3571820375651121,-0.9185399092853068,0.23030535086356102
1761413806772866800,2.84086669921875,-0.4558867419451475,-1.0126147619076074,0.11901011804491281
1761413806782879700,2.850879638671875,-0.6325181510925293,-1.0346353819925338,-0.04517798911482095
1761413806792892700,2.860892578125,-0.8767290585160255,-0.9827899708777665,-0.21795549931302666
1761413806802905900,2.87090576171875,-1.1534814685821533,-0.8881696862671524,-0.3097625531338155
1761413806812918800,2.880918701171875,-1.4299176523059605,-0.684552947299555,-0.3606684183761477
1761413806822931700,2.890931640625,-1.600384109082818,-0.4106219513297081,-0.3512547664079815
1761413806832945000,2.90094482421875,-1.699106349119544,-0.17905549448914826,-0.3119916273601353
1761413806842957800,2.910957763671875,-1.7181003879249095,-0.02606010473407805,-0.24576244771443306
1761413806852970000,2.920969970703125,-1.6567974857002497,0.13266082306094468,-0.17474519354198126
1761413806862982700,2.930982666015625,-1.4771557888209819,0.2713911022286862,-0.17128475088980047
1761413806872995800,2.940995849609375,-1.2206605693638324,0.38332594812512394,-0.15385102020371705
1761413806883008800,2.9510087890625,-0.866453748217225,0.47246444032378493,-0.14691731195040048
1761413806893021700,2.961021728515625,-0.5362491494268179,0.466710333776474,-0.11671860957425087
1761413806903034600,2.97103466796875,-0.246229261508584,0.4176891132369637,-0.07827391076982021
1761413806913047800,2.9810478515625,-0.0427425786614418,0.38584596812203525,-0.09224307061787694
1761413806923060700,2.991060791015625,0.08975859685838222,0.3763042327947914,-0.04239321723449975
1761413806933073700,3.00107373046875,0.22788579556643962,0.3598685001701116,0.03517941339816898
1761413806943086800,3.0110869140625,0.4174351384758949,0.34174992902502416,0.13169117431119085
1761413806953098800,3.0210986328125,0.671609221509099,0.33849063496813175,0.22520010014642028
1761413806963112000,3.03111181640625,0.9164549197047949,0.32724472607150673,0.32130496075898407
1761413806973124900,3.041124755859375,1.0926391696065663,0.2992997574388981,0.3260580370375886
1761413806983137800,3.0511376953125,1.1689940950125455,0.2595586986809969,0.27987996750213207
1761413806993150700,3.061150634765625,1.1312889259964227,0.2515400812678039,0.17189729329757392
1761413807003164000,3.071163818359375,0.9297621450453996,0.26565000129342076,0.16158504852186886
1761413807013176600,3.081176513671875,0.6275549757272004,0.3468723866052925,0.165206070296932
1761413807023189800,3.091189697265625,0.3124924164891243,0.46484717025309796,0.18717695122230796
1761413807033203000,3.101202880859375,0.04038461735844612,0.5562815913692116,0.24010297891432417
1761413807043216000,3.1112158203125,-0.1778162350177765,0.6192971427306533,0.2967804315617308
1761413807053227800,3.121227783203125,-0.3489209896981716,0.6357812445417046,0.337138745435141
1761413807063240700,3.13124072265625,-0.46610535362064837,0.6636481795020401,0.35371392306312915
1761413807073254000,3.14125390625,-0.5664461347699165,0.6603846476614474,0.37815972446836527
1761413807083266800,3.151266845703125,-0.5594377173125743,0.6261117911815643,0.34077757686153054
1761413807093279700,3.16127978515625,-0.4824678748786449,0.5586116417519748,0.32731245754547417
1761413807103292700,3.171292724609375,-0.3100672351688146,0.46604047169089313,0.32535277484506364
1761413807113305900,3.181305908203125,-0.10084171640872955,0.3544065815024078,0.31093557896856217
1761413807123318800,3.19131884765625,0.11433481971025466,0.24581147448793053,0.28171627955120054
1761413807133331700,3.201331787109375,0.27909108214676376,0.14432605334818363,0.23025760273169724
1761413807143345000,3.211344970703125,0.3911842604100704,0.09447247363775968,0.1759713743360713
1761413807153356800,3.221356689453125,0.5030249252170323,0.06290785320326686,0.15733572051431982
1761413807163369700,3.23136962890625,0.6353729560017586,0.006728577602654695,0.1682756139353849
1761413807173382700,3.241382568359375,0.760452457088232,-0.018637626583129167,0.18463256396912037
1761413807183395800,3.251395751953125,0.8450771981894969,-0.06644479515776038,0.18092870448250323
1761413807193408800,3.26140869140625,0.8543208273530006,-0.10155191050469875,0.17038623114749787
1761413807203422000,3.271421875,0.7783867577075958,-0.14307546876519917,0.10823742528376169
1761413807213434600,3.2814345703125,0.660047963052988,-0.16990122410953043,0.0794462881505955
1761413807223447800,3.29144775390625,0.5891968957602978,-0.18139336285218596,0.03389605905674398
1761413807233460700,3.301460693359375,0.5562216778755188,-0.16289909026250243,0.030108156282175332
1761413807243473700,3.3114736328125,0.581945317196846,-0.14033902953863142,0.03921570144323632
1761413807253485600,3.321485595703125,0.6495066952943801,-0.1324754565566778,0.03931815717071294
1761413807263498800,3.331498779296875,0.7336661569714545,-0.12074629418775439,0.03911863427693024
1761413807273512000,3.341511962890625,0.805490453210473,-0.1472381414026022,0.027466208672337233
1761413807283524900,3.35152490234375,0.8608803319990634,-0.2228529159657657,-0.010334949797857552
1761413807293537800,3.361537841796875,0.8952426203280687,-0.2566337511450052,-0.07560679218610748
1761413807303550700,3.37155078125,0.9046721274524927,-0.2702427359111607,-0.12449121633712201
1761413807313564000,3.38156396484375,0.8836176489859819,-0.3037335021026432,-0.0750573416098021
1761413807323576600,3.39157666015625,0.8647270705550909,-0.3601026011869311,-0.0144182005234994
1761413807333589800,3.40158984375,0.8392810791313647,-0.40169440237805243,0.001027114558033645
1761413807343602700,3.411602783203125,0.788175745794177,-0.42029973412677646,-0.09196328556211665
1761413807353614800,3.42161474609375,0.7090817508131265,-0.3843279647745192,-0.14512615421731023
1761413807363627800,3.431627685546875,0.5298118098556995,-0.36516938305720686,-0.19371011585071682
1761413807373640700,3.441640625,0.2949099980473518,-0.3995823786601424,-0.27750331976497544
1761413807383654000,3.45165380859375,0.08722469446659088,-0.4438939602039754,-0.2567334669261239
1761413807393666800,3.461666748046875,-0.058787120011448854,-0.4609015013672411,-0.26564631149899215
1761413807403679700,3.4716796875,-0.1615367158681154,-0.4897491179279983,-0.31952399562634526
1761413807413692700,3.481692626953125,-0.22775018648803233,-0.48789326092824337,-0.36518147535379974
1761413807423705900,3.491705810546875,-0.2936035916239023,-0.4800459084287286,-0.4026946654617786
1761413807433718800,3.50171875,-0.4600777638942003,-0.5061091549679637,-0.5137471755657345
1761413807443731700,3.511731689453125,-0.6816834562778472,-0.47825069557502864,-0.588472636606358
1761413807453743600,3.52174365234375,-0.8850812917977571,-0.3712184539631009,-0.6569994622025639
1761413807463756800,3.5317568359375,-1.0220838703900574,-0.27846637437716126,-0.726832949950546
1761413807473769700,3.541769775390625,-1.0565905356258154,-0.2201113621726632,-0.6798995685357601
1761413807483782700,3.55178271484375,-1.0210054275035858,-0.17369477117359639,-0.5944748726958409
1761413807493795800,3.5617958984375,-0.961949427422881,-0.22355565740764138,-0.4441120599340647
1761413807503808800,3.571808837890625,-0.764050189319253,-0.4909587859787047,-0.10349238618114032
1761413807513822000,3.581822021484375,-0.3545072653979063,-0.8998511370368302,0.22484114890722556
1761413807523834600,3.591834716796875,0.1471855344325304,-1.1572544112496077,0.18446887957369906
1761413807533847800,3.601847900390625,0.4734633151680231,-1.2567543576605618,-0.11823200981188564
1761413807543860700,3.61186083984375,0.4354559483349323,-1.387410782096535,-0.5518859867587685
1761413807553873000,3.621872802734375,0.11130758084356784,-1.4881087061204015,-0.9027177785143256
1761413807563885600,3.631885498046875,-0.5272118564903736,-1.5288421369165182,-1.1115534211739897
1761413807573898800,3.641898681640625,-1.2298252880722285,-1.313277478262782,-1.1654638019945471
1761413807583911700,3.65191162109375,-1.7478139736652374,-0.848549842736125,-1.0944596630319952
1761413807593924900,3.6619248046875,-2.0141268227815625,-0.3743450615510344,-0.9024436377480626
1761413807603937800,3.671937744140625,-2.023746299520135,-0.0019961422532796856,-0.671582552697882
1761413807613950700,3.68195068359375,-1.8173276548743247,0.25694106352850793,-0.3911958047173917
1761413807623964000,3.6919638671875,-1.5336889924257993,0.48205081851035353,-0.17998510348945854
1761413807633976600,3.7019765625,-1.2144868491649627,0.6721712393060326,-0.13321387210013344
1761413807643988700,3.71198876953125,-0.8665747442483901,0.8078961991779505,-0.20637374605815856
1761413807654001700,3.722001708984375,-0.5350087939769029,0.8624351602256297,-0.30515345190316434
1761413807664014800,3.732014892578125,-0.2650689865350723,0.8566403563417494,-0.4084388351369649
1761413807674027800,3.74202783203125,-0.08879998095929623,0.8244716325342655,-0.5079646831741557
1761413807684040700,3.752040771484375,-0.024441782817244528,0.7959180304840207,-0.6395603246890008
1761413807694054000,3.762053955078125,-0.02172375603020191,0.8076796338178217,-0.7692416204825043
1761413807704066800,3.77206689453125,-0.07859715137481689,0.8726042336709797,-0.8809465300805867
1761413807714079700,3.782079833984375,-0.11054185716807842,1.0031278255075216,-0.8977164630956947
1761413807724092700,3.7920927734375,-0.1504565189272165,1.1461635467842222,-0.8438349430434405
1761413807734105900,3.80210595703125,-0.1097194348692894,1.2627284636341034,-0.8016693605523556
1761413807744117800,3.81211767578125,0.021959902873635292,1.383006263527274,-0.8373361556086689
1761413807754131000,3.822130859375,0.17055471958220003,1.4454000297285616,-0.8989095453377812
1761413807764143600,3.8321435546875,0.27686522279083725,1.3950767866797744,-1.005355730690062
1761413807774156800,3.84215673828125,0.3194371210604906,1.3270178343236445,-1.1524242876794188
1761413807784169700,3.852169677734375,0.27739187701344487,1.230257688140124,-1.2386011535935104
1761413807794182700,3.8621826171875,0.16699556579589842,1.1374240677505731,-1.2648035163424909
1761413807804195800,3.87219580078125,0.07291326051950454,1.0789815233930944,-1.2591709172829986
1761413807814208800,3.882208740234375,0.029002807122468947,1.0819688686408102,-1.1896410155914723
1761413807824222000,3.892221923828125,0.05454290657043457,1.0888662269391118,-1.1390922932237386
1761413807834234600,3.902234619140625,0.11583762548863887,1.058387794306129,-1.1178237336151302
1761413807844247800,3.912247802734375,0.1645265453338623,0.9963102544471621,-1.0879562724873424
1761413807854259700,3.922259765625,0.19546002825796602,0.931633784136176,-1.1072011442486196
1761413807864273000,3.93227294921875,0.1932996353536844,0.8532584588184953,-1.107474335166812
1761413807874285800,3.942285888671875,0.16365619224011896,0.7633595767065883,-1.0786118132978677
1761413807884298800,3.952298828125,0.0808756177008152,0.6789850109741091,-1.016603685413301
1761413807894311700,3.962311767578125,-0.020583353823423384,0.6273176598399877,-1.015676925957203
1761413807904324900,3.972324951171875,-0.1419873812675476,0.6170028943136334,-0.9990851259879767
1761413807914337800,3.982337890625,-0.26060090121030804,0.5921783957891166,-0.9718819156333803
1761413807924350700,3.992350830078125,-0.32835166440010066,0.622476503419131,-0.9520138704724609
1761413807934364000,4.002364013671875,-0.34802784025073047,0.6795265705049037,-0.8804700716752558
1761413807944375800,4.012375732421875,-0.2640659469723701,0.6847188784509897,-0.7389871327985078
1761413807954388700,4.022388671875,-0.0957458545744419,0.6394837523214518,-0.5855502098210156
1761413807964401700,4.032401611328125,0.19306231946647165,0.5603454798072576,-0.44775224306732414
1761413807974414800,4.042414794921875,0.4793254851996898,0.40329248522445554,-0.36847675403952596
1761413807984427800,4.052427734375,0.7490688932865858,0.27996391945853827,-0.37025625786744054
1761413807994440700,4.062440673828125,1.0293290192127227,0.16080109506994486,-0.4551293477065861
1761413808004453600,4.07245361328125,1.2291074951916932,-0.03149316263347864,-0.5003128897793591
1761413808014466800,4.082466796875,1.3690361903637647,-0.19861191641762851,-0.5812598922159522
1761413808024479700,4.092479736328125,1.4589298117786644,-0.3213207428500056,-0.6468169447537511
1761413808034492700,4.10249267578125,1.5154770439088343,-0.44380292091965673,-0.6873347600378096
1761413808044504800,4.1125048828125,1.4554939921110868,-0.5121487273931503,-0.6917328488662838
1761413808054517800,4.122517822265625,1.355445471906662,-0.5637962047830224,-0.7415367442160844
1761413808064531000,4.132531005859375,1.2665280020475387,-0.5775463515855371,-0.7927359663818031
1761413808074543600,4.142543701171875,1.165621403709054,-0.5803574634835124,-0.833229304811731
1761413808084556800,4.152556884765625,1.0819786593824625,-0.5331169888809323,-0.8209952616605907
1761413808094569700,4.16256982421875,1.025926517292857,-0.4829629649192094,-0.7876075905174017
1761413808104583000,4.1725830078125,0.9667319855242967,-0.42647345432564615,-0.7143303189910948
1761413808114595600,4.182595703125,0.8768377795875072,-0.4024892060175538,-0.6367629490554332
1761413808124608800,4.19260888671875,0.7598673506766557,-0.36213293797075746,-0.5851035620320588
1761413808134620700,4.20262060546875,0.6274322261303663,-0.34198622199893,-0.573625890206173
1761413808144633900,4.2126337890625,0.529609565281868,-0.30971637590453027,-0.5666325972527265
1761413808154646800,4.222646728515625,0.49874271785318847,-0.290034500965476,-0.5116042452529073
1761413808164659700,4.23265966796875,0.450893171441555,-0.2773401468262076,-0.42839024773240086
1761413808174673000,4.2426728515625,0.4023006977081299,-0.3168786687493324,-0.3068751611292362
1761413808184685800,4.252685791015625,0.29968846449553965,-0.3429058210618794,-0.22392741332948207
1761413808194698800,4.26269873046875,0.18885668447017667,-0.3947165261894464,-0.14294365907907486
1761413808204711700,4.272711669921875,0.11875848137140273,-0.39181846666038034,-0.07354615159556269
1761413808214724900,4.282724853515625,0.11089607743322849,-0.3876832665517926,-0.061389703725278376
1761413808224737800,4.29273779296875,0.12057342183887958,-0.40585692888498304,-0.13378675835095344
1761413808234750700,4.302750732421875,0.14192834455668926,-0.460638758777827,-0.2125070977140218
1761413808244762600,4.3127626953125,0.03812076407968998,-0.519757594961673,-0.2979536035269499
1761413808254775800,4.32277587890625,-0.1458691911369562,-0.583325373378396,-0.3944900970224291
1761413808264789000,4.3327890625,-0.4330582395434379,-0.6204755388602614,-0.48998248829245566
1761413808274801700,4.3428017578125,-0.8679927943527698,-0.661152855554968,-0.5389453297082334
1761413808284814800,4.35281494140625,-1.2576806787252426,-0.6469679705969988,-0.4846397390250116
1761413808294827800,4.362827880859375,-1.4429992521971464,-0.752678169824928,-0.10648198731802404
1761413808304840700,4.3728408203125,-1.279030340746045,-0.8917999325282872,0.3521425820931792
1761413808314853600,4.382853515625,-0.7787170125752687,-0.9194276519052684,0.42970724861510096
1761413808324866800,4.39286669921875,-0.3812099788844585,-0.9329749696120619,0.2742708954486996
1761413808334878700,4.402878662109375,-0.23653905762135982,-0.9511989008277654,0.10110789306424557
1761413808344892000,4.412891845703125,-0.3403098132193088,-0.9524866025507449,-0.07247925301641225
1761413808354904600,4.422904541015625,-0.6996060664594173,-0.8969992547370493,-0.35686734559275207
1761413808364917800,4.432917724609375,-1.09667938490808,-0.755887779521197,-0.5883509464554488
1761413808374931000,4.442930908203125,-1.3490432036489248,-0.5799839539960027,-0.590566649743542
1761413808384943600,4.452943603515625,-1.4813433036386965,-0.4339982968725264,-0.4286327512513846
1761413808394956800,4.462956787109375,-1.4941191985815763,-0.19889497114270924,-0.2732471053589135
1761413808404969700,4.4729697265625,-1.3795061464518308,0.011018968272954226,-0.19261508715562523
1761413808414983000,4.48298291015625,-1.2253718157947062,0.18768252612426875,-0.13738518470171837
1761413808424995600,4.49299560546875,-0.9748346279591321,0.2939220099233091,-0.10423669260926544
1761413808435007700,4.5030078125,-0.7568377737224101,0.34058556142076846,-0.022233532183244822
1761413808445020700,4.513020751953125,-0.5996054770499467,0.348085561787337,-0.029002953252941367
1761413808455033900,4.523033935546875,-0.4844780456572771,0.3542097437560558,-0.07798124796617775
1761413808465046800,4.533046875,-0.4343348353505134,0.3642456923410296,-0.0726713049897924
1761413808475059700,4.543059814453125,-0.42393502188920973,0.36620851684659717,-0.03540091066174209
1761413808485073000,4.553072998046875,-0.3809709094315767,0.36112186123207207,-0.015485848021320997
1761413808495085800,4.5630859375,-0.2530991472780704,0.37520825425162907,0.0076593921793624755
1761413808505098800,4.5730986328125,-0.046665889585018154,0.40185763011574743,-0.000512223838455975
1761413808515111700,4.583111572265625,0.1576467226922512,0.41170740847885606,0.038779556781984865
1761413808525124900,4.593124755859375,0.33898820922672745,0.4160593200780451,0.12578227906096726
1761413808535136800,4.60313671875,0.3978665146529674,0.42882440136596556,0.12749229784924537
1761413808545149700,4.613149658203125,0.3076601740270853,0.441845941632986,0.08534859839640557
1761413808555162600,4.62316259765625,0.12021861705183982,0.49374461730495095,0.016607618592865765
1761413808565175800,4.63317578125,-0.10142974542975425,0.4866398998662829,-0.06866371331624686
1761413808575189000,4.64318896484375,-0.2453963178157806,0.47468189717754716,-0.1402746955981478
1761413808585201700,4.65320166015625,-0.2656751357346773,0.4540810076974332,-0.15439440636541693
1761413808595214800,4.66321484375,-0.2381301262050867,0.4803206337168813,-0.12059530487712472
1761413808605227800,4.673227783203125,-0.13058277467787266,0.4958763686366379,-0.12844484933372585
1761413808615240700,4.68324072265625,-0.0428863710463047,0.4820296295918524,-0.16319628311078996
1761413808625252600,4.693252685546875,0.00888531724512577,0.4582128468051552,-0.1740244415193796
1761413808635265800,4.703265869140625,0.01948211458325386,0.4301027507387101,-0.16544903047364204
1761413808645278700,4.71327880859375,0.02746025385558605,0.4129065551355481,-0.1604173564493656
1761413808655292000,4.7232919921875,0.09172142136394977,0.41955169223845,-0.10531002092920243
1761413808665304600,4.7333046875,0.14191899220645426,0.3994163744434714,-0.0712757955107838
1761413808675317800,4.74331787109375,0.170133279299736,0.4175378681980073,-0.06604136545602232
1761413808685331000,4.7533310546875,0.20097148515582083,0.43538142179399725,-0.05339914336279034
1761413808695343600,4.763343505859375,0.23519524179697035,0.47159006864205,-0.04544131622612476
1761413808705356800,4.773356689453125,0.3065571812212467,0.5131932680100202,-0.03939082054812461
1761413808715369700,4.78336962890625,0.35422552584707734,0.546359040030837,-0.06602664281092584
1761413808725382000,4.7933818359375,0.3770458449423313,0.5589348823569714,-0.039421179153770206
1761413808735394800,4.803394775390625,0.3590747194439173,0.5431294104598462,-0.022566928856074808
1761413808745407700,4.81340771484375,0.2508738724440336,0.5151870721757411,-0.04573967811819166
1761413808755420700,4.823420654296875,0.16873393389582633,0.494071803432703,-0.08795034186001867
1761413808765433900,4.833433837890625,0.18684476012587548,0.47504327783584593,-0.13530498089417814
1761413808775446500,4.843446533203125,0.2717442265152931,0.4577719711698591,-0.14880966503564266
1761413808785459700,4.853459716796875,0.35592063932716844,0.42617257168293,-0.12163454826436935
1761413808795473000,4.863472900390625,0.45155660378634926,0.3835448515728116,-0.1270421794615686
1761413808805485800,4.87348583984375,0.55383215239048,0.347579219700396,-0.1331032695988193
1761413808815498800,4.883498779296875,0.6059528002500534,0.2877282698497176,-0.11566109987795352
1761413808825510700,4.8935107421875,0.6253004747986793,0.21360753323659298,-0.10266494978051632
1761413808835523800,4.90352392578125,0.6606400837272405,0.15966171577647328,-0.0418831853531301
1761413808845536800,4.913536865234375,0.6614958237737417,0.07949190825745463,0.0006030804596841335
1761413808855549700,4.9235498046875,0.6747112791776657,0.027743746972084045,0.016190269963629544
1761413808865562600,4.933562744140625,0.6995528749674558,0.011313567305356263,0.01667834574151784
1761413808875576300,4.943576416015625,0.6944067442506552,-0.02559402159228921,0.017814181371033192
1761413808885589200,4.95358935546875,0.669292761260271,-0.05792509635463357,0.02600362530648708
1761413808895602400,4.9636025390625,0.6625818654447794,-0.0962453285291791,0.04577540701869875
1761413808905615400,4.973615478515625,0.6871171717643737,-0.10651435521766543,0.04758819206170738
1761413808915627300,4.983627197265625,0.6562053161501884,-0.12635668141543865,0.0477767369037494
1761413808925640400,4.993640380859375,0.6370043565958738,-0.1701392706491053,0.06662851769421249
1761413808935653400,5.0036533203125,0.5573083040684461,-0.2215998471647501,0.05937098431400954
1761413808945666300,5.013666259765625,0.43222471132874485,-0.2691495338469744,0.01361424546316266
1761413808955679500,5.023679443359375,0.3208376355081796,-0.3052529667548835,-0.0041194910828024145
1761413808965692200,5.033692138671875,0.23820962118208408,-0.3229848766699433,-0.03869871009811759
1761413808975705300,5.043705322265625,0.01277180328965187,-0.3450480937875807,-0.16183211861811578
1761413808985718300,5.05371826171875,-0.22175416094362735,-0.3313619521319866,-0.33396475504152473
1761413808995731500,5.0637314453125,-0.415178299459815,-0.2662815771952271,-0.43622952652331437
1761413809005744400,5.073744384765625,-0.5406120208114386,-0.16499021732285618,-0.48222358126137405
1761413809015756300,5.08375634765625,-0.6195961256772279,-0.07913695733994246,-0.4564817121636122
1761413809025769500,5.09376953125,-0.6974637937337159,-0.030795097366720436,-0.40972397957667706
1761413809035782400,5.103782470703125,-0.7933160312920808,0.0647187020175159,-0.43348249283749607
1761413809045795300,5.11379541015625,-0.8761807769834995,0.16635288397818804,-0.45411984187047927
1761413809055808300,5.123808349609375,-0.8651537715345621,0.3161047617673874,-0.41540768776889886
1761413809065821400,5.133821533203125,-0.8707353710591793,0.33898952440097924,-0.24319414986269547
1761413809075834400,5.14383447265625,-0.8040390853583812,0.14495076111778615,0.22127728241318836
1761413809085847300,5.153847412109375,-0.47820612578094,-0.08682298179790376,0.5771038685150445
1761413809095860200,5.163860107421875,-0.041050972312688824,-0.2016800718165934,0.5711415991097688
1761413809105873400,5.173873291015625,0.14890285974442957,-0.2024463800139725,0.3716884095624089
1761413809115885300,5.18388525390625,0.09233341578245162,-0.1936614544034004,0.03634458472002297
1761413809125898200,5.193898193359375,-0.0317278481721878,-0.20292977961674333,-0.27873233183696866
1761413809135911400,5.203911376953125,-0.08447451897561549,-0.27562413668856023,-0.4488741597693413
1761413809145924400,5.21392431640625,-0.09781213945448398,-0.3642487610809505,-0.47853378683272746
1761413809155937500,5.2239375,-0.032388357907533645,-0.3567299098834395,-0.44948845574278384
1761413809165950200,5.2339501953125,0.12413608275651931,-0.19977876823991536,-0.3978985172264278
1761413809175963400,5.24396337890625,0.26163316686749455,0.025755349633842704,-0.3582361131953075
1761413809185976300,5.253976318359375,0.3109960404515266,0.2224991340920329,-0.3161528752254322
1761413809195989200,5.2639892578125,0.2797165205687284,0.3195424811311066,-0.2616698456160724
1761413809206001400,5.27400146484375,0.17018062557280061,0.3637967795297503,-0.2750316141555086
1761413809216014300,5.284014404296875,0.01915712041258812,0.3662906421720981,-0.28203418639395383
1761413809226027300,5.29402734375,-0.15529752921760082,0.35663507120683785,-0.3174551899956539
1761413809236040400,5.30404052734375,-0.2278507242530584,0.36973420675471425,-0.35239213640745726
1761413809246053400,5.314053466796875,-0.20450959615409373,0.3682712945953011,-0.3670188468487933
1761413809256066300,5.32406640625,-0.09219897574782371,0.3403361167043447,-0.3602934841165319
1761413809266079500,5.33407958984375,0.0683750325679779,0.3241290782690048,-0.37027130930609997
1761413809276092400,5.344092529296875,0.21213234611749648,0.34367709769532084,-0.41724648403599857
1761413809286105300,5.354105224609375,0.3685533264070749,0.37648119679689407,-0.4801050182048231
1761413809296118300,5.3641181640625,0.5191805257260799,0.40757162384837864,-0.47740690169464794
1761413809306130400,5.37413037109375,0.5903466503173113,0.43887145586684345,-0.4378113158220425
1761413809316143400,5.384143310546875,0.5912585044652223,0.4659853805027902,-0.42254170436728744
1761413809326156300,5.39415625,0.533044800427556,0.4772460485771298,-0.381265946855396
1761413809336169200,5.404169189453125,0.4113783226549625,0.45787367797866463,-0.3489333377230912
1761413809346182400,5.414182373046875,0.2998825257629156,0.4349664112523198,-0.4349906323781237
1761413809356195300,5.4241953125,0.19528058003783225,0.40016646215841173,-0.5695257979435846
1761413809366208300,5.434208251953125,0.09134908092021941,0.3701126846782863,-0.7182803717911243
1761413809376221400,5.444221435546875,0.026088380980491637,0.34193215372413394,-0.9224230343289673
1761413809386234400,5.454234375,0.01661854184567928,0.30097675074040886,-1.1296866053663193
1761413809396246500,5.46424658203125,-0.014555764096975326,0.2910543455325067,-1.240786534808576
1761413809406259200,5.47425927734375,-0.0647498278081417,0.26470468326732516,-1.2867135887250303
1761413809416272400,5.4842724609375,-0.18744214149713515,0.23968305473551152,-1.2986992100730537
1761413809426285300,5.494285400390625,-0.40642391511797904,0.25358978033922613,-1.249693771624565
1761413809436298500,5.504298583984375,-0.6264116509109735,0.3015999972052872,-1.1774629404112695
1761413809446311200,5.514311279296875,-0.8003665343254804,0.35826669099666175,-1.0694876457955687
1761413809456324400,5.524324462890625,-0.9272416866570711,0.4176579143811017,-1.0129315727718173
1761413809466337500,5.534337646484375,-0.9133452632516622,0.45247072295658286,-0.9413066715624183
1761413809476350200,5.54435009765625,-0.8636229087054729,0.49342006152570245,-0.9198997994616627
1761413809486363400,5.55436328125,-0.7595990551292896,0.40263811296895147,-0.9259238089915365
1761413809496375300,5.564375244140625,-0.6089817926824093,0.2568092538423836,-0.9489768408641218
1761413809506388500,5.574388427734375,-0.46095454672873015,0.12698854957818984,-0.9461151678226888
1761413809516401400,5.5844013671875,-0.3135416332811117,-0.019890037797018884,-0.928666751024127
1761413809526414300,5.594414306640625,-0.1727221267491579,-0.12030344579108058,-0.8683041983895003
1761413809536427300,5.60442724609375,-0.06966565690040588,-0.19421404678486287,-0.8245412637043744
1761413809546440400,5.6144404296875,-0.014772037196159361,-0.2693539703778922,-0.767472272722423
1761413809556453400,5.624453369140625,0.08431728258728981,-0.3566819790884852,-0.7082390894439071
1761413809566466300,5.63446630859375,0.22219956662356852,-0.44887320992127056,-0.6041901379590854
1761413809576479500,5.6444794921875,0.38327743280827997,-0.5229794065523893,-0.539584942786023
1761413809586491400,5.654491455078125,0.5314940638542175,-0.5925979363754391,-0.4626258774744346
1761413809596504600,5.664504638671875,0.6984487131178378,-0.6342985317032784,-0.4546710825450718
1761413809606517200,5.674517333984375,0.8339753739386796,-0.7375362764030694,-0.44258886895477767
1761413809616530400,5.684530517578125,0.9241787919551133,-0.8138979968760162,-0.4244863721616566
1761413809626543400,5.69454345703125,0.9595803602039813,-0.8909574903547763,-0.46171398679390546
1761413809636556300,5.704556396484375,0.9571265373110771,-0.9536362840425222,-0.48582204414475705
1761413809646569200,5.7145693359375,0.9533458497285843,-1.0043993067480623,-0.5113392741737887
1761413809656582400,5.72458251953125,0.9596429040461778,-1.0642748795833439,-0.5783214641438796
1761413809666595600,5.734595703125,0.9385434173941611,-1.1148678794842213,-0.5654319892913102
1761413809676608300,5.744608154296875,0.923192703527212,-1.1251288689967245,-0.517235236877203
1761413809686620200,5.7546201171875,0.9144242906600236,-1.0750251869827507,-0.43919484260231256
1761413809696633300,5.76463330078125,0.9036901306778192,-0.9965198786098509,-0.3507152161711827
1761413809706646500,5.774646484375,0.8644406548291445,-0.904833747754991,-0.26408983930461105
1761413809716659200,5.7846591796875,0.7943740159124135,-0.8717932095490396,-0.1491690729325637
1761413809726672400,5.79467236328125,0.720325029361248,-0.8101869404636323,-0.0915184461377561
1761413809736685300,5.804685302734375,0.6114911451548337,-0.7691393291518092,-0.0544580778311938
1761413809746698500,5.814698486328125,0.49206513978540894,-0.7336640380796045,0.0007083309324458241
1761413809756711200,5.824711181640625,0.2993593786716461,-0.7246065060727298,0.04002933764737099
1761413809766724400,5.834724365234375,0.017819734328985214,-0.6946197294142097,0.03785467875571921
1761413809776736300,5.844736328125,-0.21513854219615458,-0.6501517151996493,0.04304643871253356
1761413809786749400,5.85474951171875,-0.37791444447040556,-0.6154649441566318,0.097386899779737
1761413809796762400,5.864762451171875,-0.5429483548045158,-0.5611912099163979,0.15001922348849475
1761413809806775300,5.874775390625,-0.7001473337292671,-0.5422265433359891,0.21346978700002653
1761413809816788500,5.88478857421875,-0.8452537238001823,-0.618949790597707,0.2905903447499499
1761413809826801400,5.894801513671875,-0.9717080203711986,-0.7143668516092002,0.34488307595159856
1761413809836814300,5.904814453125,-1.0872282504737376,-0.7708958174303173,0.33557229983601716
1761413809846827300,5.9148271484375,-1.110278871193528,-0.7876328710891306,0.33410916848089545
1761413809856840400,5.92484033203125,-1.063616488739848,-0.7568908190838992,0.297323927321285
1761413809866853000,5.93485302734375,-1.0004121368080376,-0.7525743441242724,0.2689706153498031
1761413809876865000,5.944864990234375,-0.9642126961797475,-0.717359457553923,0.24120887606330216
1761413809886878000,5.9548779296875,-0.9910556949198246,-0.7145628856379538,0.202475313847512
1761413809896891000,5.964890869140625,-1.065859883752465,-0.7450524972520768,0.19949173145946114
1761413809906904000,5.974904052734375,-1.089049620682001,-0.8339175062716007,0.41057044033817947
1761413809916917000,5.9849169921875,-0.8381260638773441,-1.0722615674883127,0.8634004981264471
1761413809926930000,5.994929931640625,-0.3961041811555624,-1.2183157598033547,1.0681501866467296
1761413809936943000,6.004943115234375,-0.17388298722207546,-1.2046041914455592,0.9210804606135934
1761413809946956000,6.0149560546875,-0.03795709795057774,-1.3143888005055486,0.8323765604399144
1761413809956969000,6.024968994140625,0.07113046875596046,-1.2993430609345435,0.601973667486012
1761413809966980900,6.03498095703125,0.0682534520149231,-1.206157412236929,0.18655091001214458
1761413809976994000,6.044994140625,-0.12311550753712654,-1.0559767876416444,-0.3171856888718903
1761413809987007000,6.055007080078125,-0.4861848495751619,-0.82046268915385,-0.765823628732562
1761413809997020000,6.06502001953125,-1.035529627418518,-0.5967024490848183,-0.9531962851900607
1761413810007032800,6.07503271484375,-1.591963486739993,-0.4219985008686781,-0.8441857292424887
1761413810017046000,6.0850458984375,-1.962077486592531,-0.1799967939272523,-0.6282881853725761
1761413810027059200,6.09505908203125,-2.114978476062417,0.11188961851522326,-0.44705432393103833
1761413810037072000,6.10507177734375,-1.9868746587187052,0.4407482095241546,-0.27364220562372354
1761413810047085000,6.1150849609375,-1.5389572882175444,0.7298110889784991,-0.08220710376659408
1761413810057098000,6.125097900390625,-0.9167214616864919,0.822727857606858,0.12842272883346303
1761413810067110100,6.135110107421875,-0.22518471991419792,0.8107163711652159,0.30425794610185547
1761413810077122800,6.145122802734375,0.3800736683309078,0.7673172282911837,0.38552543093077835
1761413810087136000,6.155135986328125,0.8392945231348276,0.7459870016232133,0.4320047849677503
1761413810097149000,6.16514892578125,1.071673538467288,0.6623720220863819,0.46733672204650933
1761413810107162000,6.175162109375,1.1612018337011336,0.5587069188199937,0.45316319873277094
1761413810117174800,6.1851748046875,1.211099544814229,0.4470911488100886,0.312505495166406
1761413810127188000,6.19518798828125,1.2616291240900754,0.3288170899547636,0.2687218282205053
1761413810137201200,6.205201171875,1.2699655752807855,0.21358561366572976,0.18691364237731323
1761413810147213800,6.2152138671875,1.1949047813385725,0.14158055403232572,0.0365547203393653
1761413810157226000,6.22522607421875,1.070932949233055,0.16244316318854687,-0.14442156787822022
1761413810167239000,6.235239013671875,0.913670257422328,0.21336671021804213,-0.2589139710366726
1761413810177252000,6.245252197265625,0.749426620683074,0.2924928539030254,-0.3363792688373476
1761413810187265000,6.25526513671875,0.5536760850459337,0.3554227728076279,-0.35429566847383975
1761413810197278000,6.26527783203125,0.3550865265905857,0.4774874561175704,-0.24728746532462537
1761413810207291000,6.275290771484375,0.2200087785810232,0.6112637661397456,-0.08513974141869693
1761413810217304000,6.285303955078125,0.17172259431779383,0.7595845882125198,0.11510043378788977
1761413810227317000,6.29531689453125,0.1327022510498762,0.8776416433162987,0.25251312755104155
1761413810237330000,6.305329833984375,0.1286848321020603,0.9288310016751289,0.406705325875245
1761413810247343000,6.315343017578125,0.10295943921506404,0.9065385058462619,0.5285162901524454
1761413810257355000,6.32535498046875,0.10608312419354915,0.821241418441385,0.59007864703089
1761413810267368200,6.3353681640625,0.15628946286439896,0.7699950691983103,0.5701449892878532
1761413810277380900,6.345380859375,0.23836042782962322,0.7317309511251747,0.6080142262918874
1761413810287394000,6.35539404296875,0.3099830640166998,0.6806390617914497,0.6608320261027664
1761413810297407000,6.365406982421875,0.3401256888240576,0.6265289936803281,0.6867125364862382
1761413810307420000,6.375419921875,0.3552092761874199,0.5858600064225494,0.6480193793460727
1761413810317432800,6.385432861328125,0.33749943197369575,0.5320835541799664,0.5899990059234201
1761413810327446000,6.395446044921875,0.31127310382723805,0.5029213187120855,0.5319423921436071
1761413810337459200,6.405459228515625,0.32984862495958805,0.4368607005663216,0.4812938261305913
1761413810347471000,6.41547119140625,0.4380348589122295,0.3773030345737934,0.4477699979197234
1761413810357483800,6.42548388671875,0.6148094759225845,0.35647169733867046,0.4002368605135008
1761413810367497000,6.4354970703125,0.8178384781301021,0.3177129276163876,0.3686064083011821
1761413810377510100,6.44551025390625,1.0120376926720143,0.2964892300628125,0.3348082931935787
1761413810387522800,6.455522705078125,1.1351584609061478,0.23336524989083407,0.3159151574794203
1761413810397536000,6.465535888671875,1.1829033778995275,0.1473085762903094,0.32461835962329055
1761413810407549000,6.475548828125,1.1916729598104954,0.09716273563504219,0.3326389863304794
1761413810417562000,6.48556201171875,1.175017008563876,0.0832120978243649,0.3368998221127316
1761413810427574800,6.49557470703125,1.1580974379450082,0.06732610803693533,0.31111089900285005
1761413810437588000,6.505587890625,1.1274679064035416,0.03426262734681368,0.2973558933621272
1761413810447599900,6.515599853515625,1.1076274799019097,-0.028370062176883218,0.28394531724490224
1761413810457613000,6.525613037109375,1.0806547173023224,-0.11625877351015805,0.30477789658904075
1761413810467626000,6.5356259765625,1.100498650935292,-0.17976883039027453,0.2879834136545658
1761413810477639000,6.545638916015625,1.0813041211217642,-0.24427125930860638,0.3101511505926028
1761413810487652000,6.555652099609375,0.9379027814030647,-0.3137967770859599,0.30515469401217993
1761413810497665000,6.5656650390625,0.7636503763467073,-0.36167861833199855,0.23550399721888823
1761413810507678000,6.575677978515625,0.5526940882712602,-0.4474548675559461,0.19951756002046167
1761413810517691000,6.58569091796875,0.3462538163155317,-0.5740135012842714,0.19329389973264186
1761413810527704000,6.5957041015625,0.25288579678833484,-0.7204686756156384,0.25090258708186447
1761413810537716000,6.605716064453125,0.1141717381030321,-0.7998654529355466,0.20152528311368076
1761413810547729000,6.61572900390625,-0.04491933817863464,-0.8277937626942992,0.13176019355994648
1761413810557741800,6.625741943359375,-0.2155821943104267,-0.8279450077332555,0.03832090802798047
1761413810567755000,6.635755126953125,-0.382984587341547,-0.9060612437233329,-0.03870731809625867
1761413810577768200,6.645768310546875,-0.5712351226121187,-1.0181352788947522,-0.0627400588883087
1761413810587780900,6.65578076171875,-0.8125304348498582,-1.0402579711146651,-0.14165393892894498
1761413810597794000,6.6657939453125,-1.1089923385143279,-1.055273461677879,-0.2344684984249994
1761413810607807000,6.675806884765625,-1.4048948547303677,-1.0404505710773169,-0.33444143264256415
1761413810617820000,6.68581982421875,-1.6345242790937422,-1.0137829289041458,-0.3923353301413357
1761413810627831800,6.695831787109375,-1.813459289008379,-0.9452113508507609,-0.4570708736957982
1761413810637845000,6.705844970703125,-1.9038667051643132,-0.8653919642046094,-0.49144744627848264
1761413810647858000,6.71585791015625,-1.936564275151491,-0.7986242207027971,-0.5258973398257046
1761413810657871000,6.72587109375,-1.896377226191759,-0.6935543652050197,-0.5963409953612834
1761413810667883800,6.7358837890625,-1.7956214345008135,-0.6043339668765664,-0.664059536781907
1761413810677897000,6.74589697265625,-1.6216332333385943,-0.5409034049734472,-0.6201644270844757
1761413810687910100,6.75591015625,-1.3175842355459928,-0.6781818778976798,-0.3211045062834397
1761413810697923000,6.765923095703125,-0.8044996886074542,-1.0357654820010065,0.1441522676838562
1761413810707936000,6.77593603515625,-0.23997955346405506,-1.349420366398245,0.31913627495039254
1761413810717948000,6.785947998046875,0.09107844728529453,-1.4178601347655058,0.06291890432024375
1761413810727961000,6.795961181640625,0.08585282159149646,-1.3819272361189125,-0.28971337925232943
1761413810737974000,6.80597412109375,-0.16397124953866005,-1.420055452852696,-0.5685824892114848
1761413810747987000,6.815987060546875,-0.4880290161371231,-1.4343284544855355,-0.7866166797839105
1761413810757999900,6.825999755859375,-0.7394184368878602,-1.4210432948462663,-1.0169832593154162
1761413810768013000,6.836012939453125,-0.9209422942519188,-1.28847197669968,-1.2266488499931991
1761413810778026000,6.84602587890625,-1.035900798818469,-1.0353837892070412,-1.229212416870892
1761413810788039000,6.856038818359375,-0.955530208030343,-0.6929151905186474,-1.0227036097235978
1761413810798052000,6.866052001953125,-0.6843687498390674,-0.3422776061609387,-0.7451145296376198
1761413810808064000,6.87606396484375,-0.3885170870274305,-0.0676081398487091,-0.46044535509757695
1761413810818077200,6.8860771484375,-0.19975860223472117,0.06186477389112115,-0.3083669705895707
1761413810828089900,6.89608984375,-0.11300503241121768,0.1744530421949923,-0.24251603140542283
1761413810838103000,6.90610302734375,-0.08945055382251739,0.2550045425079763,-0.16022758776461704
1761413810848116000,6.916115966796875,-0.19830138916373252,0.2987457768179476,-0.10613576769623904
1761413810858129200,6.926129150390625,-0.30806524769663807,0.34736250820979475,-0.06180646783262491
1761413810868141800,6.936141845703125,-0.28567513671219347,0.42533392890170213,-0.02166347721032798
1761413810878155000,6.946155029296875,-0.129155372223258,0.4983795836292207,-0.06929393751118332
1761413810888168200,6.956168212890625,0.09079320060312747,0.564182135360688,-0.07471833718009292
1761413810898180900,6.966180908203125,0.3609527882754803,0.6312871479928494,-0.09515453761778771
1761413810908193000,6.976193115234375,0.6428589278429746,0.698964115294069,-0.0417157928969711
1761413810918206000,6.9862060546875,0.9237702111542224,0.7743307603150605,0.005692695216275751
1761413810928219100,6.99621923828125,1.1206909596145151,0.7382676594175398,0.008948810935392975
1761413810938232000,7.006232177734375,1.1712141091495751,0.7006095444135367,-0.02588916861396283
1761413810948245000,7.016244873046875,1.165121637493372,0.7761822334006429,-0.07162475507892668
1761413810958258000,7.0262578125,1.0123170941352844,0.8485252928167581,-0.14127273019216954
1761413810968271000,7.03627099609375,0.7779255699366331,0.8515642221212386,-0.19890582133028656
1761413810978284000,7.046283935546875,0.529338931646943,0.860871856431663,-0.2689648249298334
1761413810988297000,7.056296875,0.3061047612786293,0.847679635772854,-0.26470112133705986
1761413810998309000,7.06630908203125,0.19213176061809062,0.8556945999242365,-0.2048115199764259
1761413811008322000,7.076322021484375,0.17977847500145433,0.8662168707214295,-0.03987902419017628
1761413811018335000,7.0863349609375,0.24989947445392607,0.8297535184599458,0.1044699533758685
1761413811028348000,7.096347900390625,0.3999836529374122,0.82483155188784,-0.03151042429553345
1761413811038361000,7.106361083984375,0.5468786799907684,0.8605964004911482,-0.3456968034872785
1761413811048374000,7.1163740234375,0.6277700797826051,0.8343897999584674,-0.6436131072111427
1761413811058387000,7.126386962890625,0.6562883182585239,0.7828085196726023,-0.7627299005009234
1761413811068399900,7.13639990234375,0.619403817975521,0.7311582658037543,-0.9138774704322218
1761413811078413000,7.1464130859375,0.48258887090981006,0.6977426106750965,-0.9815465466879307
1761413811088425000,7.156425048828125,0.24647943687736987,0.7020904306210577,-1.0185988047532737
1761413811098438100,7.166438232421875,0.0730588064700365,0.7074810376182198,-1.0159790507089346
1761413811108451000,7.176451171875,0.03059562927186489,0.690194825644046,-0.8517999305732548
1761413811118464000,7.186464111328125,0.1456114169836044,0.6597843436807393,-0.652449397682771
1761413811128477200,7.196477294921875,0.4020511068612337,0.6732853380277752,-0.38438488259352743
1761413811138489900,7.20648974609375,0.7447814252257347,0.6939788742274046,-0.22181674131844192
1761413811148503000,7.2165029296875,1.03459322335124,0.6499573616713286,-0.1563506184671074
1761413811158516000,7.226515869140625,1.2613695963710545,0.5869055699527264,-0.14079322131322697
1761413811168529200,7.236529052734375,1.3961205966442822,0.43100262218788266,-0.15776581902727485
1761413811178542000,7.2465419921875,1.4378770868778228,0.24520678659304976,-0.1799307429537177
1761413811188554000,7.256553955078125,1.3640326829880476,0.0711807376384735,-0.1520472769836895
1761413811198567000,7.26656689453125,1.2639970222651957,-0.08660890065580606,-0.08733476724494248
1761413811208580000,7.276580078125,1.169216797852516,-0.15999226290509103,0.002000233906507492
1761413811218593000,7.286593017578125,1.135078381407261,-0.2095582578457892,0.1395529571948573
1761413811228606000,7.29660595703125,1.1988602409660816,-0.19452099384218452,0.31357502409406
1761413811238619100,7.306619140625,1.3180787410646677,-0.13966624484360218,0.459820501197502
1761413811248632000,7.316632080078125,1.3859955084711313,-0.12283493703007697,0.5781892891315743
1761413811258645000,7.32664501953125,1.3581535618215799,-0.10379194451645016,0.6611935528915375
1761413811268658000,7.336657958984375,1.2642010204046963,-0.09804594821035861,0.691018270856142
1761413811278670000,7.346670166015625,1.0776754092305898,-0.12013693011775613,0.7430658534795045
1761413811288683000,7.35668310546875,0.8211994789957999,-0.1821868513174355,0.7830583297152072
1761413811298696000,7.366696044921875,0.5322761541426182,-0.2314554707467556,0.8284561721257865
1761413811308708900,7.376708984375,0.2715717925578356,-0.2350774606361985,0.8731653746850788
1761413811318722000,7.38672216796875,0.14343699555397033,-0.289968303861469,0.9333197644617408
1761413811328735200,7.3967353515625,0.1200362462222576,-0.3984858155950904,1.0631487250976264
1761413811338748000,7.406747802734375,0.2038309662401676,-0.522665299101919,1.1722615723758936
1761413811348761000,7.416760986328125,0.3700298287004232,-0.5984146598301827,1.278030808314681
1761413811358774000,7.42677392578125,0.45524727499783035,-0.6823611363437027,1.3364990716353058
1761413811368786200,7.4367861328125,0.38255145662128925,-0.7696662756353616,1.3795688364244996
1761413811378798800,7.446798828125,0.055114568978548044,-0.8699486045956611,1.28763260326609
1761413811388812000,7.45681201171875,-0.23776246193647382,-0.8478351185955106,1.0760868979301303
1761413811398825000,7.466824951171875,-0.4921364514559507,-0.7195557985544204,1.0057789245381952
1761413811408838100,7.476838134765625,-0.6066682550430298,-0.6209770586416125,0.9617927024912089
1761413811418851000,7.48685107421875,-0.6131459266245365,-0.6088722678933293,0.9902657866511493
1761413811428864000,7.496864013671875,-0.6308417423129081,-0.6478067595086991,1.0501863676719367
1761413811438877200,7.506877197265625,-0.7182406243026256,-0.6914758053652942,1.1162848336100577
1761413811448889900,7.516889892578125,-0.8229887005001306,-0.8673495280131697,1.4268300615541636
1761413811458902000,7.526902099609375,-0.7289636783689261,-1.2235954537719487,1.83580453793779
1761413811468915000,7.5369150390625,-0.4548801952511072,-1.3291241589531302,1.6787766777962445
1761413811478928100,7.54692822265625,-0.3651134150862694,-1.182356996063143,1.020634986755997
1761413811488941000,7.556941162109375,-0.7076701304495334,-1.103001865927875,0.4883703038554638
1761413811498954000,7.5669541015625,-1.450849381175637,-1.1537439919758588,0.27306548344800247
1761413811508967000,7.576966796875,-2.250280680477619,-1.097149267442152,0.23777700191847978
1761413811518980000,7.58697998046875,-3.0428871021956203,-0.8699109029337764,0.150013067742344
1761413811528993000,7.596992919921875,-3.72859440716207,-0.4620807012144476,0.07897139151468872
1761413811539006000,7.607005859375,-4.048863887393474,0.054233694490790366,0.09435425408557056
1761413811549017900,7.617017822265625,-4.026768959963322,0.5132525969818235,0.21010259385555982
1761413811559031000,7.627031005859375,-3.625623862031102,0.8945512039978056,0.3496285169130191
1761413811569044200,7.637044189453125,-2.998129676580429,1.0873347065228969,0.5041956860294565
1761413811579057000,7.647056884765625,-2.229844626170397,1.213564327492565,0.6159760354839265
1761413811589070000,7.657070068359375,-1.5307242974013089,1.288927757643163,0.6458567944847047
1761413811599083000,7.6670830078125,-1.01687578035295,1.305824824169278,0.6329319925904273
1761413811609096000,7.677095947265625,-0.7267687986731529,1.255126610328257,0.5363662730004638
1761413811619108900,7.68710888671875,-0.6243360136806965,1.0462031432546675,0.3494464383443817
1761413811629122000,7.6971220703125,-0.5555640907496213,0.8366189472500234,0.19398323370367287
1761413811639134000,7.707134033203125,-0.37610242661237714,0.7091562042888253,0.09168616738747805
1761413811649147100,7.717147216796875,-0.10860416710376739,0.665870020269975,0.09126635280651971
1761413811659160000,7.72716015625,0.24468495467603205,0.6302222952403128,0.07881354320500977
1761413811669173000,7.737173095703125,0.5768395184904337,0.613306231752783,0.07648540165154263
1761413811679186200,7.747186279296875,0.9199450999081135,0.5768135072663426,0.06958433072592597
1761413811689198800,7.75719873046875,1.1877397120147943,0.5082949745744466,0.06320084936704952
1761413811699212000,7.7672119140625,1.4273755666077137,0.47771761161163445,0.039340090441307984
1761413811709225000,7.777224853515625,1.5437018523961306,0.4321158441267907,-0.003297243170182628
1761413811719238100,7.787238037109375,1.4626181449025868,0.4044194434277713,-0.04257987151355482
1761413811729250800,7.797250732421875,1.2317173854291439,0.40095702801421285,-0.02961329457047395
1761413811739263000,7.807262939453125,0.9365180490463971,0.4534975087210536,-0.03132646429706365
1761413811749276000,7.81727587890625,0.6938368354082107,0.5559076434902847,-0.011205659084627404
1761413811759289000,7.8272890625,0.484465186175704,0.666362845288217,0.026394848547200672
1761413811769302000,7.837302001953125,0.32880233077704907,0.7493924261525273,0.0929749102900736
1761413811779315000,7.84731494140625,0.26980770549476146,0.7789240794546902,0.1596344807096757
1761413811789328100,7.857328125,0.18938567678034304,0.7359361477300524,0.21283278600443153
1761413811799341000,7.867341064453125,0.1259668053150177,0.7279790512457489,0.3313263328293338
1761413811809354000,7.87735400390625,0.13535305781960486,0.7385308403983711,0.4075766653496772
1761413811819367000,7.887366943359375,0.22601064934432505,0.7054531850524246,0.4581621029986068
1761413811829379000,7.897379150390625,0.3061825026899576,0.6594701631650328,0.4557330857533961
1761413811839392000,7.90739208984375,0.3616331717550754,0.5965212472990155,0.4609550947180018
1761413811849405000,7.917405029296875,0.3557096269249916,0.5483399847149849,0.4361817053262144
1761413811859417900,7.92741796875,0.3526403024822473,0.49558717643171546,0.42790348712876436
1761413811869431000,7.93743115234375,0.3285866421997547,0.4339648329943418,0.3836120350575074
1761413811879444200,7.9474443359375,0.3352355786949396,0.36175840556994077,0.3353700187295675
1761413811889457200,7.95745703125,0.37230361885130403,0.2699377616152167,0.277369719980564
1761413811899470300,7.96747021484375,0.3890583542972803,0.19797931760251522,0.20365802082605658
1761413811909482200,7.977482177734375,0.36126959913969037,0.11988120179101824,0.14326003155186773
1761413811919495400,7.987495361328125,0.3616086218357086,0.05388882657587528,0.06342486281469464
1761413811929508000,7.997508056640625,0.3488286352396011,0.03233560480698943,0.026383126143366097
1761413811939521300,8.007521240234375,0.35123569638133045,0.013585603890568017,0.022799130176752804
1761413811949534200,8.0175341796875,0.398117274543643,0.01710559471026063,0.03816469455296174
1761413811959547400,8.02754736328125,0.4291507107108831,0.029748072531819342,0.059313682902511204
1761413811969560000,8.03756005859375,0.45957916672229765,0.043047406826913354,0.03272290535783395
1761413811979573200,8.0475732421875,0.4818552959382534,0.041771030215546484,-0.03207817771350965
1761413811989586200,8.057586181640625,0.4984148010730743,0.0283631940446794,-0.10421497396780177
1761413811999599000,8.06759912109375,0.5053068986743688,-0.011074351722002029,-0.1256128225118853
1761413812009611000,8.077611083984374,0.49549979040920733,-0.06751257051974535,-0.10016823759395628
1761413812019624200,8.087624267578125,0.5643704975396394,-0.10776493980064987,-0.05068230388583615
1761413812029637400,8.097637451171876,0.6729764182090758,-0.1628314318537712,-0.006823069219384342
1761413812039650300,8.107650390625,0.7626058357298374,-0.17965762510076164,0.029562505098152905
1761413812049663200,8.117663330078125,0.7820318362116814,-0.19627485177218912,0.03733480133377015
1761413812059676200,8.12767626953125,0.763037212884426,-0.2773224650390446,0.014801135426480322
1761413812069689300,8.137689453125,0.6600263357430696,-0.32031858007013797,-0.014299816574528813
1761413812079702000,8.147701904296875,0.47079321917593475,-0.3504715801410377,-0.06349423825647682
1761413812089715200,8.157715087890624,0.28238953917026516,-0.4028843428149819,-0.07892638332918286
1761413812099727000,8.16772705078125,0.040436639806628226,-0.48615825382918115,-0.05956186724361032
1761413812109740300,8.177740234375,-0.2120698022753,-0.49644978461042044,-0.06653366075130179
1761413812119753200,8.187753173828124,-0.3560989185035229,-0.5207848921827971,-0.12260154839931055
1761413812129766100,8.19776611328125,-0.46121641253530976,-0.5401575550422072,-0.19547712552323937
1761413812139779300,8.207779296875,-0.5783171898275613,-0.5925752861522138,-0.3114825087942183
1761413812149792300,8.217792236328124,-0.6516261716663837,-0.5803136243417859,-0.430109618870914
1761413812159805200,8.22780517578125,-0.7333148593157529,-0.5010737911492585,-0.5541880531560629
1761413812169818000,8.237818115234376,-0.7626350618243217,-0.40018692042455073,-0.6441277056697756
1761413812179831300,8.247831298828125,-0.7930395524382591,-0.29991598964110017,-0.6525116492640227
1761413812189843200,8.25784326171875,-0.8915987108677625,-0.1488623816035688,-0.5904725051866844
1761413812199856400,8.2678564453125,-1.0135159485310314,0.0028175416387617586,-0.5059091388838365
1761413812209869000,8.277869140625,-1.165457153058052,0.026859365352988242,-0.20849331376170738
1761413812219882200,8.28788232421875,-1.1638035406321285,-0.08666267666965723,0.25025860835621133
1761413812229895200,8.297895263671874,-0.8635644565165043,-0.1896621556341648,0.369115855660662
1761413812239908000,8.307908203125,-0.4487187500119209,-0.21985767967253922,0.11876871050447226
1761413812249921300,8.31792138671875,-0.22399229525923728,-0.2490031101360917,-0.13826034183474256
1761413812259934200,8.327934326171874,-0.2305915473937988,-0.3063525985598564,-0.2923877860933542
1761413812269946400,8.3379462890625,-0.3550689909338951,-0.35247999735400076,-0.3852892475547269
1761413812279959300,8.347959228515625,-0.4635124145179987,-0.32762101203799243,-0.412578674888052
1761413812289972200,8.35797216796875,-0.535057309293747,-0.25038068209961056,-0.42936384200491007
1761413812299985200,8.367985107421875,-0.5213841732501984,-0.10751359538808464,-0.37296927968580273
1761413812309998300,8.377998291015626,-0.3276198429942131,0.11615209826529026,-0.22469879956077782
1761413812320011300,8.38801123046875,-0.06962415584623813,0.2722754107825458,-0.023736319695319977
1761413812330024200,8.398024169921875,0.19300620536506174,0.33619010294079776,0.1280085950746201
1761413812340037400,8.408037353515626,0.4132476236581802,0.2982521480821073,0.1508768266985193
1761413812350050300,8.41805029296875,0.5080968216538428,0.21016353026255963,0.08024595976145937
1761413812360063200,8.428063232421875,0.4773527238219976,0.06801920486763119,-0.016779248832724986
1761413812370075100,8.4380751953125,0.3564017008423805,-0.09565306172445416,-0.07845197075046599
1761413812380088300,8.44808837890625,0.26952070524692534,-0.21508345100805162,-0.13344842977467924
1761413812390101200,8.458101318359375,0.23149930988848208,-0.3075536449126899,-0.16460786694176494
1761413812400114200,8.4681142578125,0.23083529302179812,-0.3452206738755107,-0.17765278808437288
1761413812410127000,8.478127197265625,0.2721276728749275,-0.3326804873846471,-0.19054021711032837
1761413812420140300,8.488140380859376,0.2944306900978088,-0.27523469897955655,-0.19428557765111326
1761413812430153200,8.4981533203125,0.33646132109761234,-0.21609715809524058,-0.15973090855516492
1761413812440166100,8.508166259765625,0.31848142777085303,-0.19789251610189676,-0.09082344961091876
1761413812450179300,8.518179443359376,0.18319442092478275,-0.1814046148985624,-0.010329451638832688
1761413812460191200,8.528191162109374,-0.05224047484695911,-0.15928221493959427,0.01866992141753435
1761413812470204200,8.5382041015625,-0.317619842505455,-0.07765870148092507,-0.006539484771341085
1761413812480217300,8.54821728515625,-0.5494996761441231,0.015327771382778882,-0.1364037359163165
1761413812490230300,8.558230224609375,-0.7083271330535411,0.1651104827016592,-0.2603566806582734
1761413812500243200,8.5682431640625,-0.878311359271407,0.2535344699554145,-0.3269617444116622
1761413812510256400,8.57825634765625,-1.0843167469412087,0.34813963006213305,-0.3211775715196505
1761413812520269000,8.58826904296875,-1.3207108431339263,0.43640754997134207,-0.3635297260913998
1761413812530282200,8.5982822265625,-1.4457529348194598,0.5336201160974801,-0.47516178964897987
1761413812540295200,8.608295166015624,-1.4987380905538796,0.6550410946764051,-0.5041233514456078
1761413812550307300,8.618307373046875,-1.534836408895254,0.8109761911451816,-0.47566780294235794
1761413812560320300,8.6283203125,-1.428924549615383,0.985830215356499,-0.42069052354265
1761413812570333200,8.638333251953124,-1.2482862429141997,1.0745062776751815,-0.34685777355805036
1761413812580346400,8.648346435546875,-1.0166285275936127,1.1202126745782792,-0.3226297430893406
1761413812590359300,8.658359375,-0.812025407937169,1.1452530078105627,-0.35122006042078135
1761413812600372200,8.668372314453125,-0.7686965538203716,1.1406753246314822,-0.354962900210917
1761413812610385200,8.67838525390625,-0.7599468456536531,1.1552417562529445,-0.4592575335524976
1761413812620398300,8.6883984375,-0.6519990966320037,1.135759057147801,-0.4690235426222905
1761413812630410200,8.69841015625,-0.4765156884759664,1.0410194570064544,-0.48930681752059607
1761413812640423400,8.70842333984375,-0.1649146678686142,1.0221820700675248,-0.5134922509565949
1761413812650436000,8.71843603515625,0.21774200269281863,0.9871829451397061,-0.46486466937717047
1761413812660449300,8.72844921875,0.6280044730603694,0.9390380690433084,-0.4196089023184031
1761413812670462200,8.738462158203125,0.9642939447224139,0.8372204933397471,-0.3432982544455677
1761413812680475100,8.74847509765625,1.2789806563854216,0.7651806546539067,-0.2802629389377311
1761413812690488300,8.75848828125,1.5803466987043617,0.6695688017226755,-0.24839126184806226
1761413812700501200,8.768501220703126,1.791931347811222,0.619562515668571,-0.27820699278861283
1761413812710514400,8.778514404296875,1.990177791917324,0.5373943739391863,-0.2876554238092154
1761413812720526300,8.7885263671875,2.1573037060946225,0.37082843173220753,-0.210716086111404
1761413812730539300,8.798539306640626,2.3228479040384293,0.27225480638593436,-0.22372823749557136
1761413812740552200,8.80855224609375,2.4472581275612115,0.15602672027498482,-0.2645605255562812
1761413812750565400,8.8185654296875,2.5059254205852746,0.031037381689995525,-0.3120994716487825
1761413812760578000,8.828578125,2.5054911208212376,-0.103171182269603,-0.29360994829945264
1761413812770591200,8.83859130859375,2.4703192696750165,-0.23230361200869082,-0.28242979811541735
1761413812780604200,8.848604248046875,2.3832179093271493,-0.34618060494884845,-0.2938636307995766
1761413812790617300,8.858617431640624,2.267000344610214,-0.4416786222420633,-0.3872376416761428
1761413812800630300,8.86863037109375,2.1138117703706025,-0.5415557314023375,-0.45097054752670224
1761413812810642200,8.87864208984375,1.9827368282616138,-0.6071602763436734,-0.4607459454793483
1761413812820655400,8.8886552734375,1.8129215288698672,-0.692234368647635,-0.39728754572123287
1761413812830668300,8.898668212890625,1.6072095711886882,-0.6878802650913596,-0.3355832230888307
1761413812840681200,8.90868115234375,1.3716899197429417,-0.641787791480124,-0.20193696918711065
1761413812850694100,8.918694091796874,1.1166606811851263,-0.613570289516449,-0.04223799014016986
1761413812860707300,8.928707275390625,0.8224410034894942,-0.6385124230712652,0.04621478481665253
1761413812870720300,8.93872021484375,0.49734512601494785,-0.6344459042847156,0.06151018829979002
1761413812880732700,8.948732666015625,0.1258218438863754,-0.7018113214187324,0.07082045295871794
1761413812890745900,8.958745849609375,-0.2646457926869392,-0.7498021759971976,0.07852825085707009
1761413812900757800,8.9687578125,-0.5574146870523691,-0.7951296565853059,0.08831837145481258
1761413812910771000,8.97877099609375,-0.8081126184076071,-0.8154733564339578,0.2253845168026164
1761413812920784000,8.988783935546875,-1.1070979030698538,-0.9207628460317849,0.301327171613276
1761413812930796800,8.998796875,-1.3407295488119124,-0.9669245854869485,0.2650599629784003
1761413812940810000,9.00881005859375,-1.448857915097475,-0.9245683757945895,0.21321298096105454
1761413812950823000,9.018822998046875,-1.4201491224855183,-0.8968237520396709,0.22007643698975443
1761413812960835800,9.0288359375,-1.3945856421619653,-0.9204523187778889,0.2978100668704137
1761413812970848800,9.038848876953125,-1.4030559488654135,-0.9142280374355614,0.2284156281268224
1761413812980862000,9.048862060546876,-1.3437006735771895,-0.8413641690157353,0.1629198407895863
1761413812990873900,9.058873779296874,-1.2954530677586793,-0.9515449377864599,0.38834984070174394
1761413813000887000,9.068886962890625,-1.1429419543892145,-1.199901128321141,0.6929132177572697
1761413813010899700,9.078899658203126,-0.9604659108668565,-1.289254505379498,0.6260603532552719
1761413813020913000,9.088912841796875,-1.0231231503099203,-1.1587427501112222,0.2935969426874071
1761413813030925800,9.09892578125,-1.2218904034197329,-0.9391925289526581,0.022304697723314164
1761413813040938800,9.108938720703126,-1.4121107774585484,-0.7576482133224606,-0.13994104319699108
1761413813050952000,9.118951904296875,-1.5953116281241178,-0.6492433681830764,-0.24014300039745864
1761413813060964900,9.12896484375,-1.7940812193214892,-0.48245530765801664,-0.2865802688583731
1761413813070978000,9.13897802734375,-1.8700217187076806,-0.29657807739004494,-0.24651673668045548
1761413813080990000,9.148989990234375,-1.9073685758054255,-0.0628494010142982,-0.1567589435396716
1761413813091003000,9.1590029296875,-1.8072563427150248,0.1447889946848154,-0.09236216695290059
1761413813101015800,9.169015869140624,-1.5723405023813246,0.34715924072265625,-0.033508630641736085
1761413813111029000,9.179029052734375,-1.2240753462433813,0.46271512666046616,0.05403115765601396
1761413813121041700,9.189041748046876,-0.9291741160243749,0.5374478576920926,0.1400815841788426
1761413813131054800,9.199054931640624,-0.718967185011506,0.5856896182917058,0.17605189222637563
1761413813141067800,9.20906787109375,-0.5182938060194253,0.6160945472970605,0.12690218646898865
1761413813151081000,9.2190810546875,-0.3058978405296802,0.6542635344326496,0.0758158866258338
1761413813161092900,9.2290927734375,-0.08086743439435959,0.6634434507101774,0.08177600060664117
1761413813171105800,9.239105712890625,0.1199409691542387,0.6719632956437767,0.09739990539178252
1761413813181119000,9.249118896484376,0.36239772638678547,0.7427607330530881,0.12612911973726004
1761413813191132000,9.2591318359375,0.6278776318103074,0.7833325435467063,0.17636683992706237
1761413813201144800,9.269144775390625,0.8894336417883634,0.8455291797406971,0.19322277072519062
1761413813211157800,9.27915771484375,1.1400842268705367,0.9033961161673069,0.25783143649697304
1761413813221171000,9.2891708984375,1.3952344614595173,0.9262558904901146,0.31442963162939996
1761413813231184000,9.299183837890626,1.5958973190575838,0.9088890144951641,0.37407972514573484
1761413813241196800,9.30919677734375,1.708929239475727,0.9398223512887954,0.4134170619409531
1761413813251208700,9.319208740234375,1.7359931874901056,0.9240146874345838,0.43272261438090354
1761413813261222000,9.329221923828126,1.650228044182062,0.8988812690913677,0.42929205541033294
1761413813271234800,9.33923486328125,1.4346394201308488,0.8688722075358033,0.41206378416847433
1761413813281247700,9.349247802734375,1.0387345609396696,0.8773368151508271,0.4069548071242869
1761413813291261000,9.359260986328126,0.6649836658895015,0.9220398802302777,0.39348559615500267
1761413813301273900,9.36927392578125,0.28775252750813957,0.9948384283289313,0.37838414434138684
1761413813311287000,9.379287109375,-0.031136896541714667,1.0390597012408078,0.3907003493506461
1761413813321299700,9.3892998046875,-0.2355722584158182,1.1046088627330959,0.4729657043768093
1761413813331313000,9.39931298828125,-0.4639496368914842,1.1772107192158698,0.5387360708717256
1761413813341324800,9.40932470703125,-0.6339817939043044,1.2851188668794928,0.5611706055197865
1761413813351338000,9.419337890625,-0.6890817498356103,1.3923415164969861,0.5377624400665983
1761413813361350700,9.4293505859375,-0.7183487608522177,1.4157565866149961,0.5090766995366662
1761413813371363800,9.43936376953125,-0.7127548863679171,1.3782523469984531,0.44915991790816184
1761413813381376800,9.449376708984374,-0.6687322047680616,1.3316940094411371,0.3535365937348455
1761413813391390000,9.459389892578125,-0.6137549984335899,1.2986485027991235,0.24446438899422063
1761413813401403000,9.46940283203125,-0.5572317317008972,1.2251286546885967,0.15724227007720618
1761413813411415800,9.479415771484375,-0.5255874701589346,1.1302006923682988,0.1390079087990336
1761413813421429000,9.489428955078125,-0.4660024777680635,1.0365591165967285,0.08431513629597612
1761413813431441000,9.49944091796875,-0.3395078491866588,0.9681358609728514,0.08824495915872976
1761413813441453800,9.509453857421875,-0.1774625992745161,0.8899671641431748,0.12223450518520548
1761413813451466800,9.519466796875,0.0194324302226305,0.7980015587598085,0.18583068771250544
1761413813461480000,9.52947998046875,0.25699089401960373,0.6968962229788302,0.23272391977999357
1761413813471492900,9.539492919921875,0.45397067919075484,0.616442337821424,0.19122292041117325
1761413813481505800,9.549505859375,0.6148854637682437,0.5504194213375448,0.1465252804255113
1761413813491518700,9.559518798828124,0.7153402266860008,0.47731429150775073,0.09006132439831271
1761413813501532000,9.569531982421875,0.7449848388433457,0.39950843664109703,0.09182444334700703
1761413813511544800,9.579544921875,0.7470686593800783,0.3764801738835871,0.0597960047930479
1761413813521556700,9.589556640625,0.6996732864767312,0.35229908782914277,0.04697051682109013
1761413813531570000,9.59956982421875,0.602458528393507,0.32699265100657937,0.0744313003996387
1761413813541582800,9.609582763671876,0.5461614716321229,0.32937311640232797,0.11820775215346366
1761413813551596000,9.619595947265625,0.5376794744908809,0.3107103553779423,0.20109299264363945
1761413813561608700,9.629608642578125,0.5785112510949373,0.32702216936200856,0.2703782171254046
1761413813571622000,9.639621826171876,0.6339467225909232,0.31546880195140836,0.32176304325740784
1761413813581634800,9.649634765625,0.6986445279508828,0.26787352256178854,0.3393309947824105
1761413813591647700,9.659647705078125,0.7442366508245468,0.20677374169379473,0.31389548822008073
1761413813601659600,9.66965966796875,0.7383125214725732,0.1297818335585296,0.29046390535868705
1761413813611672800,9.6796728515625,0.6788093621462583,0.009749825119972228,0.21900190309341996
1761413813621685800,9.689685791015625,0.6019523324370384,-0.11247852431908249,0.15704517660252748
1761413813631699000,9.699698974609374,0.5418886166185141,-0.16404080764353274,0.1607149876890704
1761413813641711900,9.7097119140625,0.4904810854643583,-0.2236130866833031,0.15010774202216415
1761413813651724800,9.719724853515626,0.4353811295330524,-0.29704730233699084,0.13739165097512304
1761413813661738000,9.729738037109374,0.37647652062177656,-0.354968453168869,0.14935228401236236
1761413813671750700,9.739750732421875,0.28412849179208277,-0.38243484450429677,0.15871690920703113
1761413813681763800,9.749763916015626,0.1754284630984068,-0.391932010037452,0.11945820887228473
1761413813691775700,9.759775634765624,0.07893091337382793,-0.39627135441601274,0.11095663938089273
1761413813701789000,9.769788818359375,-0.03749707922339439,-0.3593950374394655,0.12850891841272824
1761413813711801900,9.7798017578125,-0.12633563862740993,-0.3024154052414,0.15995015906272456
1761413813721814800,9.789814697265625,-0.22261107003390787,-0.262262696942687,0.15598352045407518
1761413813731827700,9.79982763671875,-0.2826291931450367,-0.21355141913518308,0.17006262521632015
1761413813741841000,9.8098408203125,-0.376654799798131,-0.1506022110082209,0.16053506454490124
1761413813751853800,9.819853759765625,-0.5041150585412979,-0.1258481473714113,0.16299557290691882
1761413813761866800,9.82986669921875,-0.6296171689540148,-0.09602788638621568,0.11009625055873766
1761413813771880000,9.8398798828125,-0.792840230473876,-0.02660962837561965,0.06857048207484186
1761413813781891800,9.849891845703125,-0.9125777860105038,-0.001231733752042055,0.0605041895950213
1761413813791905000,9.859905029296876,-1.0920809512019156,0.06407689698264002,0.04116656151637435
1761413813801917700,9.869917724609374,-1.1880021623432635,0.1141230766557157,0.06845756888543256
1761413813811931000,9.879930908203125,-1.2180600314766168,0.07168225741982459,0.20341701514441518
1761413813821943800,9.88994384765625,-1.057954225194454,-0.07994038267731667,0.48880467668473715
1761413813831956700,9.899956787109375,-0.6665016692370176,-0.25899068953469395,0.6065984412098303
1761413813841970000,9.909969970703125,-0.29455577778220177,-0.33204277400299903,0.4531002895643934
1761413813851982800,9.91998291015625,-0.1288239483118057,-0.31935587251782416,0.19213413523826747
1761413813861994800,9.929994873046875,-0.09304653248786926,-0.32738808006495235,0.1423702796379104
1761413813872008000,9.940008056640625,-0.02349193474650383,-0.3508712469831109,0.3321154008477926
1761413813882020600,9.9500205078125,0.03080781071782112,-0.30695640967190263,0.4535559609100222
1761413813892033800,9.96003369140625,-0.02363397356569767,-0.23764380399286747,0.43086135055366903
1761413813902046700,9.970046630859375,-0.2257996369421482,-0.18311331851258872,0.3123158908784389
1761413813912060000,9.980059814453124,-0.5328431403756141,-0.127672732450068,0.21364545409418642
1761413813922072800,9.99007275390625,-0.7867430826425552,-0.1059673888593912,0.11118101358814164
1761413813932085800,10.000085693359376,-0.8517764035671949,-0.035309798312187196,0.00798981144381687
1761413813942099000,10.010098876953125,-0.7464046425133943,-0.0011767886944115161,-0.0025729922931641337
1761413813952110800,10.02011083984375,-0.6009943010598421,0.03926408889591693,0.0196646680759266
1761413813962123800,10.030123779296876,-0.4218921178847551,0.17258125697374344,0.08345876606181263
1761413813972136700,10.04013671875,-0.24982114852070808,0.3601661679424345,0.163780622337386
1761413813982150000,10.05014990234375,-0.17879355561733246,0.49878231921121474,0.2556093765333295
1761413813992162800,10.060162841796876,-0.13155834171175956,0.5772055753238499,0.3855710236381739
