time,seconds_elapsed,z,y,x
1761413900232661200,0.0746611328125,-0.0830143832951784,-0.5035130740601569,-0.20726748002748935
1761413900242674200,0.084674072265625,-0.2148117944598198,-0.49566879030056293,-0.15810257670097053
1761413900252686300,0.094686279296875,-0.2325093637138605,-0.464786526107043,-0.1157885256499052
1761413900262699000,0.104698974609375,-0.1571580623924732,-0.43155704120025035,-0.07318261551279574
1761413900272712200,0.114712158203125,-0.08841127390265464,-0.45328488888368007,-0.005267492074146866
1761413900282725000,0.12472509765625,-0.00005552957952022552,-0.4633095123570412,0.012376995285786688
1761413900292737300,0.1347373046875,0.1533808819413185,-0.5034343097355216,-0.010158552051335572
1761413900302750200,0.144750244140625,0.25418518894910813,-0.5750096727147698,-0.011564729054830967
1761413900312763100,0.15476318359375,0.3131529262244701,-0.6320766909353435,-0.01014415819980204
1761413900322775000,0.164775146484375,0.3108838122487068,-0.6681376729410141,-0.08253865554220974
1761413900332788200,0.174788330078125,0.2558013919740915,-0.6665938044998795,-0.18189689192753283
1761413900342801200,0.18480126953125,0.12926993851363658,-0.6607528233867138,-0.19955606539994478
1761413900352814000,0.19481396484375,0.020580431213974952,-0.6474674445517361,-0.20750384606663136
1761413900362826000,0.204825927734375,-0.009825228443741799,-0.5883395117459819,-0.19899682408198713
1761413900372839200,0.214839111328125,-0.15634674600958823,-0.5646663752136751,-0.16746643471065908
1761413900382852000,0.22485205078125,-0.19452187062501905,-0.5798786669906228,-0.08438176265824586
1761413900392864300,0.2348642578125,-0.09779694188535212,-0.5105253274424001,-0.027824776319041847
1761413900402877200,0.244877197265625,-0.11073533391356467,-0.4206686405044049,-0.010247728172130882
1761413900412890000,0.25489013671875,-0.14506956519186495,-0.4315283996276557,0.0435762895392254
1761413900422902000,0.264902099609375,-0.14371172084212303,-0.458482055667974,0.11675894158463924
1761413900432915200,0.274915283203125,-0.1437818634688854,-0.4783442921426147,0.1251339712200686
1761413900442928000,0.28492822265625,-0.09327391150295734,-0.45271275155153123,0.13595288687627763
1761413900452940300,0.294940185546875,-0.05511339993476867,-0.42187721257656813,0.10057261714376509
1761413900462953200,0.304953125,-0.027329320952296256,-0.4570424513189122,0.11365476502422242
1761413900472966100,0.314966064453125,-0.0430301634311676,-0.48419919218327845,0.07563176223058253
1761413900482979000,0.32497900390625,-0.044344753161072725,-0.5089074073843658,0.036744178496859965
1761413900492991200,0.3349912109375,-0.06884732625484466,-0.5576425775241106,-0.02394614478740841
1761413900503004200,0.345004150390625,-0.007580079865455627,-0.5611833919361233,-0.06686638157069683
1761413900513017000,0.35501708984375,0.06123918933868408,-0.5716675957452505,-0.009857340615056455
1761413900523029000,0.365029052734375,0.12776713273525236,-0.5692767185533419,0.15731986535806208
1761413900533042200,0.375042236328125,0.23667758930921554,-0.5756272566238418,0.3398168420705944
1761413900543055000,0.38505517578125,0.36353345241844653,-0.5166113328251988,0.460741342369467
1761413900553067300,0.3950673828125,0.4607710068553686,-0.4791904606431722,0.4855522142274305
1761413900563080200,0.405080078125,0.4956739779323339,-0.4891355526069179,0.38049784855972973
1761413900573093000,0.415093017578125,0.4772141921341419,-0.42531263038534667,0.23436149438656864
1761413900583106000,0.42510595703125,0.3795125273168087,-0.39680969907641406,0.1715084401104599
1761413900593118200,0.4351181640625,0.21130933929681778,-0.45117560511212795,0.20965448476187884
1761413900603131100,0.445131103515625,0.15577216099202632,-0.4990876953659579,0.2947385504705831
1761413900613144000,0.45514404296875,0.20113748937249182,-0.5321601265475153,0.4296980789279565
1761413900623156000,0.465156005859375,0.3516922079771757,-0.629142464114353,0.5665373932499438
1761413900633169200,0.475169189453125,0.5099602774381637,-0.6929637058354914,0.6486074083670973
1761413900643182000,0.48518212890625,0.6488333260774612,-0.7142654370613396,0.6469879904717206
1761413900653194200,0.4951943359375,0.6655348700314759,-0.7415371826075017,0.6657947630766778
1761413900663207200,0.505207275390625,0.5778326211810112,-0.7512934374682605,0.6612456484049558
1761413900673220000,0.51522021484375,0.47619537048041816,-0.8162592461146414,0.7224697863049805
1761413900683233300,0.5252333984375,0.3655126435369253,-0.9014201399192213,0.7725590744674206
1761413900693245200,0.5352451171875,0.28945640881657597,-0.9847382554013282,0.7851482877317816
1761413900703258000,0.545258056640625,0.21032909608781336,-1.0675700486712156,0.7588096583172679
1761413900713271000,0.55527099609375,0.14460662385523318,-1.0995693341959267,0.6995207993287593
1761413900723283000,0.565282958984375,0.09689093295633792,-1.133348342744261,0.5891608745988458
1761413900733296000,0.575296142578125,0.019083470654487608,-1.1579447316013276,0.5180720530275255
1761413900743309300,0.585309326171875,-0.02959785040616989,-1.162991639727354,0.42986499646008014
1761413900753321200,0.5953212890625,-0.07010346379578113,-1.1050264305580406,0.3278609582737088
1761413900763334100,0.605334228515625,-0.12443944961726665,-1.0702215860933064,0.25936779748508704
1761413900773347000,0.61534716796875,-0.13260522041618822,-1.0415882698703556,0.22592982092676683
1761413900783360300,0.6253603515625,-0.15044132135808466,-1.0195295827973634,0.23659951910432428
1761413900793372200,0.6353720703125,-0.15807634628117084,-0.9979922161847352,0.2615622205231339
1761413900803385300,0.64538525390625,-0.15597499008774757,-1.0121130959957838,0.3109892088519409
1761413900813398000,0.65539794921875,-0.1345721365749836,-1.0635878471672535,0.3843799872227013
1761413900823410200,0.66541015625,-0.07872691523432732,-1.10283863819018,0.4582085359562188
1761413900833423000,0.675423095703125,0.030761048966646193,-1.116037800046429,0.44504674696829166
1761413900843436300,0.685436279296875,0.12300970907509326,-1.142467322614789,0.4123193298321217
1761413900853448200,0.6954482421875,0.20824410650730132,-1.157033754236251,0.3296228899123147
1761413900863461400,0.70546142578125,0.26988252429664134,-1.1827703261043876,0.2040828221093863
1761413900873474000,0.71547412109375,0.2531283733725548,-1.194962795136124,0.0804044930577278
1761413900883487200,0.7254873046875,0.20610300282537936,-1.209059636484459,-0.0412664599605836
1761413900893499100,0.7354990234375,0.13126958789825438,-1.195598828017339,-0.12172211694996803
1761413900903512300,0.74551220703125,0.03289163125455379,-1.1613483294997364,-0.12537137843882665
1761413900913525000,0.75552490234375,-0.009624152913689612,-1.1221188004605471,-0.02982110123541206
1761413900923537200,0.765537109375,-0.004369885647296905,-1.127250464260578,0.06940167220197617
1761413900933550000,0.775550048828125,0.06085398941338062,-1.1078748787917196,0.20125207392917946
1761413900943563300,0.785563232421875,0.1620768140941858,-1.1052712721645832,0.2592069261012599
1761413900953576200,0.795576171875,0.2397118424385786,-1.1012917740743606,0.2678556033126078
1761413900963588400,0.80558837890625,0.24100538938045502,-1.1475965021967887,0.2848221366120502
1761413900973601300,0.815601318359375,0.16163550006747246,-1.2245166602700948,0.26019867708496747
1761413900983614200,0.8256142578125,0.06532733543515205,-1.2868589885450898,0.19612623708173632
1761413900993626400,0.83562646484375,-0.07576981899440288,-1.2995029276713728,0.12346229341449215
1761413901003639300,0.845639404296875,-0.23529577956199646,-1.2934569255053996,-0.0038893173224292693
1761413901013652200,0.85565234375,-0.36912966499030586,-1.2296188057146966,-0.11259654294187202
1761413901023664000,0.8656640625,-0.5212883116602898,-1.0839841539859771,-0.1990370464945212
1761413901033677300,0.87567724609375,-0.6129489427477121,-0.8781956239372491,-0.23850575458444653
1761413901043690200,0.885690185546875,-0.6967448318094015,-0.6830410083666444,-0.17424734528874977
1761413901053703400,0.895703369140625,-0.7960071700721979,-0.4845451560767367,-0.046120274933613835
1761413901063715300,0.90571533203125,-0.8513613930255174,-0.2943655524397269,0.10515059258379042
1761413901073728300,0.915728271484375,-0.8822638962894678,-0.24107034437544642,0.37384010770358145
1761413901083741200,0.9257412109375,-0.8739005570918321,-0.34931221750546243,0.7609143024463206
1761413901093753300,0.93575341796875,-0.7044061602175236,-0.40241259711738675,0.9366858068287373
1761413901103766300,0.945766357421875,-0.5522235481500626,-0.39527693655118346,0.7858453300852328
1761413901113779200,0.955779296875,-0.5414525632888079,-0.400740827980265,0.5768921254605055
1761413901123791000,0.965791015625,-0.6441285093873739,-0.4932508424386382,0.45564095049053427
1761413901133804300,0.97580419921875,-0.7582680987864733,-0.5596747409388423,0.3569167376924306
1761413901143817200,0.985817138671875,-0.8267506833821535,-0.6038468409467488,0.2469171341748908
1761413901153830400,0.995830322265625,-0.7961994777739048,-0.5546422266643494,0.12337189345099031
1761413901163842300,1.00584228515625,-0.6925275063753128,-0.46249067025482654,0.10542840487817302
1761413901173855200,1.015855224609375,-0.5688631327837705,-0.3603636632759124,0.19134937806874514
1761413901183868200,1.0258681640625,-0.3959638959020376,-0.2332021682836115,0.26257910594809797
1761413901193880300,1.03588037109375,-0.2396376081585884,-0.051180152139067646,0.2798317444462329
1761413901203893200,1.045893310546875,-0.15529636017382145,0.10205401480793952,0.26601344604464244
1761413901213906200,1.05590625,-0.18213585178256034,0.2170166840929538,0.24793201030585912
1761413901223918000,1.06591796875,-0.24633330640494822,0.2801562271602452,0.25055244020363315
1761413901233931300,1.07593115234375,-0.28566753792762756,0.34046412699818607,0.24128913822527973
1761413901243944200,1.085944091796875,-0.26501053434610367,0.3794411425810307,0.24182361042816192
1761413901253957400,1.095957275390625,-0.1472638603657484,0.42778972455598413,0.2946264501319267
1761413901263969300,1.10596923828125,-0.018625205492973328,0.39916218048669394,0.2563859138637781
1761413901273982200,1.115982177734375,0.11176292339563369,0.4283098029073327,0.10919290851084515
1761413901283995400,1.125995361328125,0.20444646779000758,0.4872948566436767,-0.07491411548051982
1761413901294007300,1.13600732421875,0.2585381234616041,0.5240763349436223,-0.20662218612758443
1761413901304020200,1.146020263671875,0.2674485751479864,0.5115779417678713,-0.26274149343557657
1761413901314033200,1.156033203125,0.29410744949281215,0.5079520063556731,-0.2563250139893964
1761413901324045000,1.166045166015625,0.37848084618151184,0.5174810283318162,-0.19565083812233058
1761413901334058200,1.176058349609375,0.45918578349053857,0.5510508511088789,-0.13170919402507134
1761413901344071400,1.186071533203125,0.5235749612927436,0.5107319924630225,-0.0731576317685889
1761413901354083300,1.196083251953125,0.572583030089736,0.5129527372524142,-0.099566837634705
1761413901364096300,1.20609619140625,0.5866980646818876,0.5396263707749546,-0.2540099967789836
1761413901374109200,1.216109130859375,0.5264753589093685,0.5468392247632146,-0.390892657052353
1761413901384122400,1.226122314453125,0.3945429231882095,0.5600019270665944,-0.46295463450476526
1761413901394134300,1.23613427734375,0.2352981176495552,0.5916773143991828,-0.496324185469374
1761413901404147500,1.2461474609375,0.08515197984576225,0.6150808402098715,-0.46557950311563906
1761413901414160100,1.25616015625,0.00917290201485157,0.6577990150824189,-0.40926618933919817
1761413901424172300,1.26617236328125,-0.0132236387103796,0.7013828668735921,-0.40478221232555806
1761413901434185200,1.276185302734375,0.01056932480931282,0.7018931544832885,-0.4516816914707422
1761413901444198400,1.286198486328125,0.03690203593969345,0.676464698716253,-0.4580068393716588
1761413901454210300,1.296210205078125,0.05573474670350551,0.6033696518890559,-0.521088076380454
1761413901464223500,1.306223388671875,0.07863982147276401,0.4982996502608061,-0.5790064507333561
1761413901474236200,1.316236083984375,0.1086035825818777,0.3740248896859586,-0.5925566910495981
1761413901484249300,1.326249267578125,0.10550269395709037,0.2238782404255122,-0.5744852104492485
1761413901494261200,1.33626123046875,0.08684358619451522,0.11120682388283312,-0.5978500116847455
1761413901504274400,1.3462744140625,0.10635317330658435,0.041924686407297844,-0.6734736271414905
1761413901514287400,1.356287353515625,0.15030688132345676,0.004010258554667234,-0.7156533112231641
1761413901524299300,1.36629931640625,0.18587328474521636,-0.08220124028138816,-0.6952522551640867
1761413901534312200,1.376312255859375,0.2766150474220514,-0.17710669850893318,-0.620253566672653
1761413901544325400,1.386325439453125,0.4381149384111166,-0.2562530812643468,-0.5789703930392861
1761413901554337300,1.396337158203125,0.6333668768763542,-0.3404560898222029,-0.5687793269578367
1761413901564350500,1.4063505859375,0.8528852415919304,-0.42449682049043475,-0.6099974359983578
1761413901574363100,1.416363037109375,1.0574579661101102,-0.5193854737136513,-0.6029209948061034
1761413901584376300,1.426376220703125,1.1490595604866742,-0.6106997025161981,-0.6118199752504005
1761413901594388200,1.43638818359375,1.1430875003397465,-0.7196518793400377,-0.5464584087520837
1761413901604401400,1.4464013671875,1.0685592058390379,-0.8005235515180975,-0.533655808465369
1761413901614414300,1.456414306640625,0.9554144726961851,-0.8223775828644633,-0.5772387469410896
1761413901624426200,1.46642626953125,0.8465776658803225,-0.8240336795084178,-0.6044441492527723
1761413901634439200,1.476439208984375,0.7406827577352524,-0.8476469025470316,-0.6073811525527387
1761413901644452400,1.486452392578125,0.6603156740784645,-0.834279471451789,-0.6001473288416862
1761413901654464300,1.49646435546875,0.5804390042871237,-0.7709793309953064,-0.5558644984683021
1761413901664477400,1.5064775390625,0.49537645629048344,-0.7338520349323749,-0.4871762717653066
1761413901674490000,1.516489990234375,0.4215419892728329,-0.6684782300069928,-0.42955753794610496
1761413901684502300,1.526502197265625,0.3852005098253488,-0.6006042057637125,-0.36409009992051866
1761413901694515200,1.53651513671875,0.3405722635477781,-0.5776914591446518,-0.2517138303995132
1761413901704528400,1.5465283203125,0.29153730674386025,-0.5976519318293779,-0.15993991166334598
1761413901714541300,1.556541259765625,0.2313642853319645,-0.6352727104976773,-0.08415690439380705
1761413901724553500,1.566553466796875,0.16992518950700758,-0.6971530472841113,-0.061869230870530006
1761413901734566100,1.576566162109375,0.10700257712602615,-0.7682363158974796,-0.06330638753417879
1761413901744579300,1.586579345703125,-0.0051198272317647935,-0.8204951301187277,-0.07944251615777612
1761413901754591200,1.59659130859375,-0.15418401501774787,-0.8858161088783293,-0.07979067200832068
1761413901764604400,1.6066044921875,-0.26568039643168445,-0.8931915330171585,-0.11594389887470752
1761413901774617000,1.6166171875,-0.3874240310937166,-0.8704414296139031,-0.12950161011135206
1761413901784629200,1.626629150390625,-0.4873404493510723,-0.8688963921289891,-0.10671360411681234
1761413901794642200,1.63664208984375,-0.5809802715569734,-0.8326254936996846,-0.12881525354869663
1761413901804655400,1.6466552734375,-0.6796347070544958,-0.7658212175797671,-0.1480504076335579
1761413901814668300,1.656668212890625,-0.7903115887790918,-0.7030502886291593,-0.1570001318844035
1761413901824680400,1.666680419921875,-0.8612842366248369,-0.6618214024662971,-0.12856811038721352
1761413901834693000,1.676693115234375,-0.8770745109528303,-0.6813958715081214,0.0450054455595091
1761413901844706300,1.686706298828125,-0.829653419086337,-0.9259460938885807,0.48290246690362687
1761413901854718200,1.69671826171875,-0.6134808576673269,-1.1673881211206316,0.7873588033881038
1761413901864731400,1.7067314453125,-0.35308453911840915,-1.1987255086705089,0.6803817260295152
1761413901874744000,1.716744140625,-0.2902864298999309,-1.2028551558211444,0.38950558660812673
1761413901884756200,1.726756103515625,-0.4094195898026228,-1.2534225828893482,0.15969490566002204
1761413901894769200,1.73676904296875,-0.6223042155921459,-1.1651925107724963,-0.09078377518765628
1761413901904782300,1.7467822265625,-0.9221627759575843,-1.004984559290111,-0.3513899005623534
1761413901914794200,1.756794189453125,-1.2773825735390185,-0.7795237989135086,-0.4574709423966706
1761413901924807400,1.766807373046875,-1.6139859334558249,-0.4825697278179228,-0.48478298342060294
1761413901934820000,1.776820068359375,-1.8216566239893435,-0.21574637189619242,-0.41272944500297304
1761413901944833300,1.786833251953125,-1.8733657684385776,0.06946779624074698,-0.3492854390963912
1761413901954845200,1.79684521484375,-1.7606459827095269,0.3394241164259612,-0.2881458924735896
1761413901964859000,1.80685888671875,-1.5174632492899893,0.5659736949525773,-0.21136331624006852
1761413901974871800,1.816871826171875,-1.160205223879218,0.7090491637177765,-0.062491340257669795
1761413901984883700,1.8268837890625,-0.7932628398001194,0.6589025924101471,0.17249219045080244
1761413901994897000,1.83689697265625,-0.4113216240316629,0.5856465098023415,0.3390522874388844
1761413902004909800,1.846909912109375,-0.03955518079698086,0.5653745600156486,0.3576043546304106
1761413902014922000,1.856921875,0.3110761199504137,0.5055005215503275,0.3035245720596984
1761413902024934700,1.8669345703125,0.5833984386146068,0.41984833709746594,0.27503154109027234
1761413902034947800,1.87694775390625,0.7573001305371523,0.3060655983120203,0.2745251442044042
1761413902044960800,1.886960693359375,0.8291191660791635,0.15662483229860663,0.3044137029191479
1761413902054973000,1.896972900390625,0.8375824585199355,0.01376870537251234,0.2781112773291766
1761413902064985900,1.90698583984375,0.8541554076582193,-0.014861322914808987,0.2025689652140252
1761413902074998800,1.916998779296875,0.8665624692887067,0.008324468491971493,0.07564781831623986
1761413902085010700,1.9270107421875,0.8654957168400287,0.03642331251204014,-0.04548414158769883
1761413902095023900,1.93702392578125,0.7979214792609214,0.09172814336568116,-0.09824194570649415
1761413902105036800,1.947036865234375,0.747953040999174,0.1557403045490384,-0.10264769725161604
1761413902115049000,1.957049072265625,0.68331953304708,0.2570649821691215,-0.09597270386656746
1761413902125061600,1.9670615234375,0.5770177976667881,0.3804112297222018,-0.027310862846998497
1761413902135074800,1.97707470703125,0.47023616981506344,0.5188090620651841,0.02236886726701632
1761413902145086700,1.987086669921875,0.3733674486905336,0.6377008144274353,0.058522569057438516
1761413902155100000,1.997099853515625,0.3210357884287834,0.7057464689105749,0.08580079001015983
1761413902165112800,2.00711279296875,0.32395255265831946,0.7115593929730355,0.11898924878682009
1761413902175125800,2.017125732421875,0.3491203116625547,0.6515476996026933,0.13762735942713916
1761413902185137700,2.0271376953125,0.41038171283304686,0.5497147801995277,0.17129426763681693
1761413902195150800,2.03715087890625,0.4471323576033115,0.4346468239091337,0.17232823206074535
1761413902205163800,2.047163818359375,0.5021165782004594,0.3661016954712569,0.10329517397545278
1761413902215176000,2.057176025390625,0.559291002318263,0.3514931782737374,0.07924302979661152
1761413902225188600,2.067188720703125,0.5918921261936426,0.3057401657499373,0.1317155233011581
1761413902235201800,2.077201904296875,0.604825257524848,0.24028394323810934,0.23846642722105607
1761413902245213700,2.087213623046875,0.6649719754517078,0.22731311024501918,0.26247849511783566
1761413902255227000,2.097226806640625,0.6838093623906374,0.21389877126812934,0.24153659191401675
1761413902265239800,2.10723974609375,0.6733563574373722,0.1935404583722353,0.22625459590172395
1761413902275252000,2.117251953125,0.6265835003465414,0.18159531516507266,0.17967846695939077
1761413902285264600,2.1272646484375,0.5955763676643371,0.17310250436887145,0.13357718898719176
1761413902295277800,2.13727783203125,0.5871855559378862,0.14540829562693833,0.06637647916190326
1761413902305291000,2.147291015625,0.586387683558464,0.09833470202386378,-0.012605707741435617
1761413902315303000,2.157302978515625,0.608590747538209,0.06542202798128127,-0.04913536670478061
1761413902325315800,2.16731591796875,0.653397272992134,0.021601883216202256,-0.0574932808086276
1761413902335328800,2.177328857421875,0.701906160095334,-0.03399842345267534,-0.019521314082480964
1761413902345340700,2.187340576171875,0.7814969986826181,-0.08342354861795902,0.03858863731976598
1761413902355353900,2.197353759765625,0.8858990379214287,-0.12960574633926153,0.057971456247009334
1761413902365367000,2.207366943359375,1.0048393056005238,-0.1861117696762085,0.08989323782240971
1761413902375379000,2.21737890625,1.0613269164979457,-0.2566488025836646,0.0852816158411093
1761413902385391600,2.2273916015625,1.0916109956026077,-0.32810002772659064,0.12288007307974622
1761413902395404800,2.23740478515625,1.088684294500947,-0.4123766860425472,0.182262583434768
1761413902405416700,2.247416748046875,1.0856775139003991,-0.445549033934623,0.18708684351975097
1761413902415430000,2.257429931640625,0.9720751001179218,-0.45857086646258827,0.13443311169678346
1761413902425442800,2.26744287109375,0.8117851694405078,-0.48225437825843687,0.10361554676992818
1761413902435455700,2.277455810546875,0.6546405510514974,-0.43199236387759443,0.02542748765265569
1761413902445467600,2.287467529296875,0.529827591946721,-0.38610081966593857,-0.008452880644612014
1761413902455480800,2.297480712890625,0.4413420837640762,-0.3550118539191782,0.03818226674227044
1761413902465494000,2.307493896484375,0.33574235917329787,-0.372026701606065,0.16745430588144808
1761413902475506000,2.317505859375,0.24406068529784677,-0.43639965892583127,0.2839592361724004
1761413902485518800,2.327518798828125,0.12936404653787612,-0.49760290016829967,0.29886867254525423
1761413902495531800,2.33753173828125,0.007662497451901435,-0.5307575662732124,0.23904683919120578
1761413902505543700,2.347543701171875,-0.14984920068383217,-0.575081130515784,0.10268679628614336
1761413902515556900,2.357556884765625,-0.34692367840111255,-0.6053584876187146,-0.019124094925820827
1761413902525569800,2.36756982421875,-0.5893944641590118,-0.6104593178890645,-0.21606120999902487
1761413902535582700,2.377582763671875,-0.7847253130793571,-0.5441942632123827,-0.4234084407318383
1761413902545595000,2.387594970703125,-0.9850678526818751,-0.43950807326994834,-0.5837898125523701
1761413902555607800,2.39760791015625,-1.1958745031535625,-0.30959662198238075,-0.6176180305372924
1761413902565621000,2.40762109375,-1.373118491241336,-0.20152933823429048,-0.5461043346174062
1761413902575633000,2.4176328125,-1.5066519324183463,-0.22884046594277022,-0.16446739902514965
1761413902585645800,2.427645751953125,-1.4535580556124448,-0.501956638398394,0.39069110659826545
1761413902595658800,2.43765869140625,-1.2058955464303494,-0.7043978307805955,0.6804640705507248
1761413902605671000,2.4476708984375,-0.9001789076864719,-0.7631474683258682,0.4551791051324457
1761413902615683800,2.457683837890625,-0.7545154682546854,-0.7388779733356088,0.08067382978470995
1761413902625697000,2.467697021484375,-0.7980079885005951,-0.7246393854290246,-0.2204172132514417
1761413902635709000,2.477708984375,-1.0009686016470194,-0.6300608941335231,-0.4708621562262997
1761413902645721900,2.487721923828125,-1.2400345473974943,-0.4624508497010916,-0.5828431428194045
1761413902655734800,2.49773486328125,-1.4961317074477671,-0.2345765253767371,-0.5383219371128827
1761413902665748000,2.507748046875,-1.6354595141172408,0.062456967630609865,-0.34354178087785836
1761413902675759900,2.517759765625,-1.6188842268913983,0.32752515044808383,-0.05752080813637003
1761413902685772800,2.527772705078125,-1.4497171622753142,0.49142866851277645,0.23625779299456626
1761413902695785700,2.53778564453125,-1.2433791816502808,0.5731869142670184,0.49763139561042186
1761413902705798000,2.5477978515625,-1.027137062126398,0.5457380585882813,0.6585726298034191
1761413902715810800,2.557810791015625,-0.7963508689433336,0.4852208268485963,0.6451012268770486
1761413902725824000,2.567823974609375,-0.5754366659551858,0.46002881018593905,0.5201931368347257
1761413902735836000,2.5778359375,-0.38714462963044644,0.42464273176714773,0.33976807102542367
1761413902745848800,2.587848876953125,-0.2084188785523176,0.37491796606816347,0.14678546573165804
1761413902755861800,2.59786181640625,-0.033742110604047776,0.3902946180939674,-0.020659524332173166
1761413902765874000,2.6078740234375,0.09553075051903724,0.40033984596394,-0.18143088185098022
1761413902775886800,2.617886962890625,0.1828910540640354,0.4412244487337768,-0.29624424232579766
1761413902785899800,2.627899658203125,0.22908114283084868,0.45722230139784514,-0.3461000139933079
1761413902795912700,2.63791259765625,0.20565350549221037,0.5112856077577919,-0.40246410810891536
1761413902805924900,2.6479248046875,0.24045535428225992,0.5656793151158839,-0.45733730607964096
1761413902815937800,2.657937744140625,0.31786592622101306,0.6441630692441016,-0.598303856399469
1761413902825951000,2.667950927734375,0.4210340397506952,0.6958807623259723,-0.754284874369204
1761413902835963000,2.677962890625,0.48575171885490415,0.6183963944986463,-0.8839314641755074
1761413902845975800,2.687975830078125,0.47978667297065253,0.5013211900390684,-1.0266378804326057
1761413902855988700,2.69798876953125,0.3607762626647949,0.37661286035254593,-1.1955257627811282
1761413902866001000,2.7080009765625,0.24279694897234438,0.28223610217422246,-1.3476836057335138
1761413902876013800,2.718013916015625,0.15262918679118156,0.2352165768459439,-1.4721668944925068
1761413902886026800,2.72802685546875,0.09198036456108093,0.2761464069969952,-1.5571318273335695
1761413902896038700,2.73803857421875,0.04857318451106548,0.36581074970066546,-1.5834455415025352
1761413902906051800,2.7480517578125,-0.08866963257789612,0.4732933654285967,-1.5326237012818456
1761413902916064800,2.758064697265625,-0.22920096981823443,0.6152963826566934,-1.4169132093042134
1761413902926078000,2.768077880859375,-0.37414603184759615,0.8056691707782447,-1.332572838102281
1761413902936089900,2.77808984375,-0.5310661938309669,0.9263486833401023,-1.2467230852507054
1761413902946102800,2.788102783203125,-0.6829688199132681,1.0442745132796465,-1.1240787023566663
1761413902956115700,2.79811572265625,-0.780036863002181,1.1424078475125132,-1.0246300477415322
1761413902966127600,2.808127685546875,-0.7747323268532752,1.2305898427039383,-0.9564349017851054
1761413902976140800,2.818140869140625,-0.633283290246129,1.2975079544618724,-0.887731514045596
1761413902986153700,2.82815380859375,-0.3989350206673145,1.288008596971631,-0.8262165034402161
1761413902996165600,2.83816552734375,-0.10186287615001201,1.2090689157694579,-0.7800395664159208
1761413903006178600,2.848178466796875,0.22961481131613254,1.1274914334096013,-0.7075625053565949
1761413903016191700,2.858191650390625,0.510409190249443,0.9690487380340694,-0.6351495955746621
1761413903026204700,2.86820458984375,0.76868077172935,0.795511641640216,-0.5375333440184593
1761413903036216800,2.878216796875,0.9869862535238265,0.6180157246179878,-0.4755663518618792
1761413903046229500,2.8882294921875,1.252401861539483,0.46540655770152806,-0.4288648795068264
1761413903056242700,2.89824267578125,1.4911130025029182,0.29548078367263075,-0.40872324156891554
1761413903066254600,2.908254638671875,1.6630056926906107,0.10302855892851948,-0.3854101339880377
1761413903076267800,2.918267822265625,1.7639631444334982,-0.0853271902821958,-0.3611676731351763
1761413903086280700,2.92828076171875,1.7894816165715455,-0.24082959442213175,-0.3780497247552499
1761413903096292600,2.938292724609375,1.806439181113243,-0.3632053895078599,-0.37025337179061024
1761413903106305500,2.948305419921875,1.8022195175915956,-0.44946986064016814,-0.3819578746423125
1761413903116318700,2.958318603515625,1.8196897078305483,-0.5022855050265789,-0.3699125589963049
1761413903126330600,2.96833056640625,1.826864714026451,-0.5346360151417553,-0.30050674034217373
1761413903136343800,2.97834375,1.8339216468006372,-0.5788441363111138,-0.2381646495291963
1761413903146356500,2.9883564453125,1.7777923478215931,-0.6163860775895417,-0.1173532268165145
1761413903156369700,2.99836962890625,1.6252777273207901,-0.6456802688740193,-0.021019777045887894
1761413903166381600,3.008381591796875,1.4240151502639053,-0.6478814321801066,0.04919510666853748
1761413903176394800,3.018394775390625,1.123667929598689,-0.5973762566931545,0.07281934429151006
1761413903186407700,3.02840771484375,0.8451233754187821,-0.5284942975163459,0.03158440284719691
1761413903196419800,3.038419921875,0.6663356650203466,-0.4946591018013656,0.08150364993866532
1761413903206432500,3.0484326171875,0.5715525179982185,-0.5307525978371501,0.1982314109337516
1761413903216445700,3.05844580078125,0.503217817440629,-0.5789096027627587,0.36400830338858065
1761413903226457600,3.06845751953125,0.309245981913805,-0.6270310979835688,0.41079581005927174
1761413903236470800,3.078470703125,-0.034388591814041136,-0.6647340019773692,0.3442165018016472
1761413903246483500,3.0884833984375,-0.523300236004591,-0.7520398719213902,0.26241291906833647
1761413903256495600,3.09849560546875,-0.8718862946599721,-0.868577900764346,0.301535115275532
1761413903266508500,3.108508544921875,-1.1165607279419898,-0.9350386241436004,0.3785320649120956
1761413903276521700,3.118521728515625,-1.2253151171714067,-0.9523648758672177,0.38372353260796516
1761413903286533600,3.12853369140625,-1.2526397619485854,-0.8622345230869949,0.364239226067625
1761413903296546800,3.138546875,-1.213753274193406,-0.7803175796397029,0.39207726372703905
1761413903306559500,3.1485595703125,-1.224904198282957,-0.7527705973487346,0.40646790039017794
1761413903316572700,3.15857275390625,-1.2569675620198248,-0.7773762654908001,0.39827831032425165
1761413903326584600,3.16858447265625,-1.3690163166195153,-0.7644807627562433,0.3286125072933733
1761413903336597800,3.17859765625,-1.4905010080844163,-0.7659325689997524,0.288499875276722
1761413903346610400,3.1886103515625,-1.6171704087108372,-0.9343632091000675,0.4709043879328295
1761413903356622600,3.19862255859375,-1.599337814900279,-1.1716225438199936,0.8484578536037355
1761413903366635500,3.208635498046875,-1.4126461995095014,-1.3070156413890421,1.0277670305930078
1761413903376648700,3.218648681640625,-1.2108207278728484,-1.2643269848719239,0.8681569719385355
1761413903386660600,3.22866064453125,-1.0908803432404994,-1.148817933750525,0.5483324955282732
1761413903396673800,3.238673828125,-1.0965496210485697,-0.9962585242599248,0.24987181926202026
1761413903406686500,3.2486865234375,-1.26247843439579,-0.8109609205108136,-0.044528694893233474
1761413903416699600,3.25869970703125,-1.510391703468561,-0.5832288542013615,-0.24374190167225895
1761413903426711600,3.268711669921875,-1.809512597209215,-0.3472881277993321,-0.28607604566328226
1761413903436724700,3.278724853515625,-2.033035521391034,-0.10700864154063165,-0.2170566507771611
1761413903446737700,3.288737548828125,-2.054694395491481,0.11591302881240845,-0.10114190493170172
1761413903456749600,3.29874951171875,-1.979261845627427,0.3471251192573458,0.03373137001432478
1761413903466762500,3.308762451171875,-1.806732026579976,0.5583328248105943,0.16844908907245842
1761413903476775700,3.318775634765625,-1.531865868651867,0.7178863309722393,0.31582298568394035
1761413903486787600,3.32878759765625,-1.2030810735315083,0.801223808741942,0.42639918351303785
1761413903496800800,3.33880078125,-0.8137386415958404,0.8297111406229436,0.47602041577231136
1761413903506813700,3.348813720703125,-0.432737337026,0.7965707953043282,0.4915562404152006
1761413903516825600,3.35882568359375,-0.12913959013223647,0.7095296407110989,0.4847009676929563
1761413903526838500,3.368838623046875,0.1404489196538925,0.6523528785057365,0.4290649321235716
1761413903536851700,3.378851806640625,0.3750678228676319,0.6547152237229049,0.4162847263317555
1761413903546863600,3.388863525390625,0.5925970595926046,0.6818436152756214,0.48015462950021026
1761413903556876500,3.39887646484375,0.8275327736705541,0.7561920231647788,0.5319876195248217
1761413903566889700,3.4088896484375,1.1117705710560082,0.840787684302032,0.555113789698854
1761413903576902700,3.418902587890625,1.3174901275217532,0.832368084872514,0.5850871588865295
1761413903586914600,3.42891455078125,1.4592635737776756,0.764382928404957,0.5196654962314292
1761413903596927700,3.438927734375,1.5067407797455787,0.6915323578581214,0.38254594019595534
1761413903606940700,3.448940673828125,1.4867074610203503,0.6600539544023573,0.2795816056100651
1761413903616952600,3.45895263671875,1.3650953437834978,0.6536174916140735,0.22939839208647608
1761413903626965800,3.4689658203125,1.128793017527461,0.6613112609870732,0.24924700189456342
1761413903636978700,3.478978759765625,0.9491232635974883,0.7486931918419897,0.2804877241369337
1761413903646990600,3.488990478515625,0.7958487646400928,0.8628849498197436,0.31725298195444046
1761413903657003500,3.49900341796875,0.7166384498029947,0.951714449134469,0.416975631205365
1761413903667016700,3.5090166015625,0.6263415082842111,1.0016808415696024,0.5568485776022076
1761413903677029600,3.519029541015625,0.5703606778651475,1.0016250197291374,0.7408375829707831
1761413903687041800,3.529041748046875,0.5749082581669092,0.9807681096613406,0.9045791884720324
1761413903697054700,3.5390546875,0.600160772845149,0.9101239631175995,1.037104475519806
1761413903707067600,3.549067626953125,0.6248930630415678,0.8236042020499705,1.0735902588088064
1761413903717079600,3.55907958984375,0.622785277107358,0.7461575358845293,0.9868091433912515
1761413903727092700,3.5690927734375,0.5708715499967336,0.6388602135956287,0.8315493158355355
1761413903737105700,3.579105712890625,0.49307168647944927,0.528976381944865,0.7006573290780186
1761413903747117800,3.589117919921875,0.36816754195988177,0.4065216764040291,0.5458670917954296
1761413903757130500,3.599130615234375,0.3035030543476343,0.32269509994313117,0.39446068826485425
1761413903767143700,3.609143798828125,0.3251923235863447,0.34759777827039356,0.2707674539050087
1761413903777155600,3.619155517578125,0.3619610885351896,0.40776071667969227,0.2149793330464512
1761413903787168800,3.629168701171875,0.33535540568232536,0.40704438510388136,0.22453575448617338
1761413903797181700,3.639181640625,0.2175117010682821,0.36061946466788647,0.28155557256415487
1761413903807193900,3.64919384765625,-0.026162615260481834,0.3158455263093114,0.2628912406371906
1761413903817206500,3.65920654296875,-0.19644436312019825,0.31979119519516824,0.18753051390033215
1761413903827219700,3.6692197265625,-0.2647293793171644,0.3426543305188417,0.1159627131730318
1761413903837232600,3.679232666015625,-0.2523077046394348,0.33835897141247984,0.16920257432088254
1761413903847244800,3.689244873046875,-0.10091478164494037,0.3424262208513915,0.23208719277903436
1761413903857257700,3.6992578125,0.11487141080498695,0.3653106912240386,0.3010181056641042
1761413903867270700,3.709270751953125,0.3528630053222179,0.4235048137784004,0.37392391352951526
1761413903877282600,3.719282470703125,0.5754331588238477,0.4469492561213672,0.4409815068233758
1761413903887295700,3.729295654296875,0.7601099272608757,0.3982080215670168,0.47683454516679047
1761413903897308700,3.73930859375,0.8958072684735059,0.3429876541264355,0.4749500465944409
1761413903907320800,3.74932080078125,0.9472779279917478,0.2638886907093227,0.438250255228579
1761413903917333500,3.75933349609375,0.9322539618611335,0.11025383400693535,0.3985664796158671
1761413903927346700,3.7693466796875,0.8899386687010526,-0.01614332554936409,0.26835502246841786
1761413903937358600,3.779358642578125,0.7966583274573087,-0.16138649374246597,0.17580942524001
1761413903947371800,3.789371826171875,0.6690455085009336,-0.30601342973336576,0.05001644212193787
1761413903957384700,3.799384765625,0.5436988809108734,-0.446606434033066,-0.05728014951460063
1761413903967398000,3.80939794921875,0.39624388188719745,-0.5030708101853728,-0.18203151462525127
1761413903977409800,3.819409912109375,0.22544483215510844,-0.5845135602496564,-0.2824113856758922
1761413903987423000,3.829423095703125,0.023003274446725844,-0.6561231908246874,-0.30359862367659807
1761413903997436000,3.839435791015625,-0.19483283627033232,-0.7292534550957381,-0.32020182182267304
1761413904007448000,3.849447998046875,-0.3407914592564106,-0.7703297079801559,-0.3048762423969805
1761413904017460700,3.859460693359375,-0.4261737407267093,-0.7921281366817653,-0.3031519758876413
1761413904027474000,3.869473876953125,-0.4800187281608581,-0.8307701481565832,-0.32809367105104026
1761413904037485800,3.87948583984375,-0.49267011994123455,-0.8572802616804838,-0.296112651835382
1761413904047499000,3.8894990234375,-0.465274163493514,-0.8983698124378919,-0.3353396235913038
1761413904057511700,3.89951171875,-0.4249450757145881,-0.897202229963243,-0.4097458260823041
1761413904067523800,3.90952392578125,-0.4447030846297741,-0.917127704399824,-0.5040074334483593
1761413904077536800,3.919536865234375,-0.546914920347929,-0.9094495709873736,-0.5425241380430758
1761413904087550000,3.929550048828125,-0.7244792264312505,-0.8601670691631734,-0.5710588892623781
1761413904097563000,3.93956298828125,-0.8780535851180553,-0.7790078122153877,-0.6224138865116984
1761413904107575000,3.949574951171875,-1.0315630618751048,-0.7413917827874421,-0.4845950961656868
1761413904117587700,3.959587646484375,-1.1874638176828622,-0.9348141677379608,-0.0406882764801383
1761413904127601000,3.969600830078125,-1.1135866805672645,-1.1812997420951723,0.4422298263840377
1761413904137612800,3.97961279296875,-0.7918108874261379,-1.2160302792146802,0.5130808206114917
1761413904147626000,3.9896259765625,-0.4367109168320894,-1.083794184371829,0.2929628095023334
1761413904157639000,3.999638916015625,-0.1980237412661314,-0.9706729782350361,0.0026478841602802275
1761413904167650800,4.00965087890625,-0.12891688729226589,-0.9308430721499025,-0.3731971336249262
1761413904177663700,4.019663818359375,-0.2199865667492151,-0.8962718172453343,-0.7824404900778085
1761413904187677000,4.029677001953125,-0.4489911372125148,-0.7719792287528514,-1.1433397946003825
1761413904197688800,4.039688720703125,-0.7862333795547485,-0.5817785823278129,-1.333223995487392
1761413904207702000,4.049701904296875,-1.107681255915761,-0.3177076669193804,-1.2668898210972548
1761413904217714700,4.059714599609375,-1.2893377997487783,0.021968086180090902,-1.0400280348163098
1761413904227726800,4.069726806640625,-1.2430138554692267,0.34599019694328303,-0.7686265573240816
1761413904237739800,4.07973974609375,-1.1043553263634442,0.6628611207775771,-0.49993316974677143
1761413904247753000,4.0897529296875,-0.8888643174678087,0.8776216234415769,-0.25137509996443985
1761413904257766000,4.099765869140625,-0.6850602392345666,1.0267467476345598,-0.07943447898179293
1761413904267777800,4.10977783203125,-0.515903696012497,1.0674727257765828,0.011620295166969299
1761413904277790700,4.119790771484375,-0.35229075839221474,1.0509830710075796,0.01743610530626029
1761413904287804000,4.129803955078125,-0.22079554504454135,1.022700248722732,-0.025858846540935336
1761413904297815800,4.13981591796875,-0.10203355654180049,0.9853417011871933,-0.09798585205357521
1761413904307829000,4.1498291015625,0.04245090223848819,0.9229211931094526,-0.11717376946322619
1761413904317842000,4.159842041015625,0.2012345200061798,0.8840202384375035,-0.09586882336698473
1761413904327853800,4.169853759765625,0.3577788344144821,0.885222307703644,-0.08219133994188159
1761413904337867000,4.179866943359375,0.5200561395168304,0.8496088502697646,-0.05066153509244323
1761413904347880000,4.1898798828125,0.6441185725152492,0.8140655354626476,-0.02310647909287363
1761413904357891800,4.199891845703125,0.7001607777327299,0.7766944207064806,-0.020331753682531414
1761413904367905000,4.209905029296875,0.6857090585321187,0.7239638242550194,-0.07925503076165914
1761413904377918000,4.21991796875,0.594174099650979,0.70027242141366,-0.18445497891250998
1761413904387931000,4.229930908203125,0.4698550615429878,0.7184193418703972,-0.2654090321443975
1761413904397943000,4.239943115234375,0.3681231182962656,0.7437127730809152,-0.22293467596508562
1761413904407956000,4.2499560546875,0.2501993341833353,0.7277667236693203,-0.06597283026445656
1761413904417969000,4.259968994140625,0.15849077230095862,0.7436316706687212,0.11969959814641624
1761413904427980800,4.269980712890625,0.1285807872056961,0.8258810609407723,0.24995416378322988
1761413904437994000,4.279993896484375,0.09600245968401432,0.9082125765383243,0.3326789164820686
1761413904448007000,4.2900068359375,0.09194763133525848,0.9421041786156594,0.383579301831685
1761413904458019000,4.30001904296875,0.023834464573860167,0.9637826341994106,0.4196036050887778
1761413904468032000,4.310031982421875,-0.10366787974536418,0.9508177925556898,0.41417087598294017
1761413904478045000,4.320044921875,-0.2597381469011307,0.9100054513044655,0.3529661734357476
1761413904488056800,4.330056884765625,-0.4119412172347307,0.8343975448735058,0.28953378490172327
1761413904498070000,4.340070068359375,-0.4591653252243995,0.7691128795363008,0.3045617696203291
1761413904508083000,4.3500830078125,-0.4150649022132158,0.7362170104980469,0.3053171910975128
1761413904518096000,4.360095947265625,-0.2697182736456394,0.679715517205745,0.3079728201728314
1761413904528107800,4.370107666015625,-0.020730068817734718,0.6402987219661473,0.3634508521689102
1761413904538121000,4.380120849609375,0.22966508019864557,0.5841111169286072,0.37864484110418706
1761413904548134000,4.3901337890625,0.46411154945492744,0.5329658899724483,0.3867127775518223
1761413904558146000,4.40014599609375,0.654904170423746,0.4734617077328264,0.440032316339761
1761413904568159000,4.410158935546875,0.8381056056112051,0.39555692253634334,0.41958983229175206
1761413904578172000,4.420171875,0.9843050516158341,0.3046967941768467,0.4252426704216748
1761413904588183800,4.430183837890625,1.093466268080473,0.17242299767211078,0.4145755112610757
1761413904598197000,4.440197021484375,1.1382938363224266,0.04744754148200154,0.37800767571181054
1761413904608210000,4.4502099609375,1.1844669739544391,-0.08215075220316648,0.3288618058793247
1761413904618222000,4.46022216796875,1.2213041279643773,-0.2044743787102401,0.27150185086047274
1761413904628234800,4.47023486328125,1.268107380193472,-0.2904321219809353,0.20764692606544122
1761413904638248000,4.480248046875,1.3078753269582986,-0.3832533212803304,0.21715161731792612
1761413904648260900,4.4902607421875,1.3238491411596536,-0.46946927709579467,0.21368500065328552
1761413904658273000,4.50027294921875,1.2813450474292039,-0.542818444814533,0.2248929704260081
1761413904668286000,4.510285888671875,1.1908353399425744,-0.5834006305716931,0.23465455904901025
1761413904678299000,4.520298828125,1.072495960766077,-0.5657603444628417,0.21540802505360915
1761413904688310800,4.530310791015625,0.9133218823760747,-0.5200412342086435,0.13415512587246484
1761413904698324000,4.540323974609375,0.7960895876586437,-0.4232707127615809,0.11336401104987598
1761413904708337000,4.5503369140625,0.6675321813285351,-0.31923224613815543,0.13532940294938162
1761413904718349000,4.56034912109375,0.591648965087533,-0.2135124022990465,0.24550545901237053
1761413904728361700,4.57036181640625,0.5118786782801151,-0.08741846347302198,0.30542598523423076
1761413904738375000,4.580375,0.4669517413169145,-0.026266367895901203,0.35481636787969617
1761413904748386800,4.59038671875,0.41426586079001426,0.020302783316373824,0.42368528491184115
1761413904758400000,4.60039990234375,0.33689328277409075,0.03506590655371546,0.4538960430519655
1761413904768413000,4.610412841796875,0.2593547005414963,0.0401698055639863,0.5050233690252527
1761413904778425000,4.620425048828125,0.21479835045635698,0.025513795962929724,0.5510350690178573
1761413904788437800,4.630437744140625,0.17127251246273517,-0.012368921577185391,0.6285173179533332
1761413904798451000,4.640450927734375,0.0929226138472557,-0.06474588228538632,0.6762864195398985
1761413904808464000,4.6504638671875,0.002454991936683655,-0.10658683593198656,0.6880285144556313
1761413904818476000,4.66047607421875,-0.1635930638760328,-0.11251593372002243,0.6283052826378495
1761413904828488700,4.67048876953125,-0.3484668161898851,-0.08773015977069736,0.5093269845033064
1761413904838502000,4.680501953125,-0.5566267515450716,-0.0726334206648171,0.44085773431323466
1761413904848513800,4.690513671875,-0.7317255442976951,-0.04740384847074747,0.38579526084810495
1761413904858527000,4.70052685546875,-0.8665560395479202,0.014789280591905115,0.3995564770339057
1761413904868540000,4.710539794921875,-0.973061188545823,0.11377309417426586,0.4309591483723372
1761413904878552000,4.720552001953125,-1.0287123486191034,0.13016016535162925,0.5923283987190574
1761413904888564700,4.730564697265625,-1.0586585740715264,-0.0900575798049569,1.0874851478442549
1761413904898578000,4.740577880859375,-0.9456132096499205,-0.46040217354297636,1.6119214021414516
1761413904908589800,4.75058984375,-0.6777484549164772,-0.6011278643116355,1.600152930675447
1761413904918603000,4.76060302734375,-0.473079284286499,-0.5273544798314571,1.0154966009542346
1761413904928616000,4.770615966796875,-0.3914356048226356,-0.3065316083885729,0.16510184273747727
1761413904938627800,4.7806279296875,-0.4258639441251755,-0.07083820781111717,-0.5368352056864649
1761413904948640800,4.790640869140625,-0.6813736596763134,-0.006492430759221315,-0.7861557112086563
1761413904958654000,4.800654052734375,-1.142996899446845,-0.06766849173381924,-0.6067604999037459
1761413904968666000,4.810666015625,-1.51227737108469,0.06448752361014486,-0.34693317688181996
1761413904978678000,4.820677978515625,-1.6496476139456033,0.34599764959737656,-0.12504662173017858
1761413904988691200,4.830691162109375,-1.6117612431436776,0.6348654448710381,0.08434387833327055
1761413904998703900,4.840703857421875,-1.4570114109367132,0.8484301618792116,0.365288662055321
1761413905008716000,4.850716064453125,-1.2495768672466276,0.9548621725756674,0.5773162691567093
1761413905018729000,4.86072900390625,-1.0410527747541665,1.0098292959075421,0.7095860470734536
1761413905028742100,4.8707421875,-0.8985083441257476,0.9409978978741913,0.7751451454378664
1761413905038754000,4.880754150390625,-0.7889081517219543,0.7901623895667493,0.7267145112026483
1761413905048767000,4.89076708984375,-0.6714286042451858,0.6188557556387037,0.6391742479808629
1761413905058780000,4.90077978515625,-0.45741877381801604,0.5057002819061279,0.5721462826402858
1761413905068793000,4.91079296875,-0.17409224605858326,0.43488048653453587,0.5159168477550149
1761413905078805000,4.920804931640625,0.1308206750869751,0.35413434043228625,0.5441975511480123
1761413905088818200,4.930818115234375,0.3996826241642236,0.31115693010166284,0.603353066080436
1761413905098830800,4.940830810546875,0.6642576897025108,0.3429850237779319,0.6871412832923233
1761413905108843000,4.950843017578125,0.870318022429943,0.4106374411597848,0.8080176336005329
1761413905118856000,4.96085595703125,1.0301718997776508,0.4969136027298867,0.9559423690278083
1761413905128869000,4.970869140625,1.0889064128190278,0.5640381968453526,1.0921152918629347
1761413905138881000,4.980881103515625,1.0595289271652697,0.6395686541259289,1.20753089254722
1761413905148894000,4.99089404296875,1.0200117402911186,0.7484377557761966,1.2281342662453651
1761413905158907000,5.000906982421875,0.9707517425596713,0.8102559140466153,1.245303719972074
1761413905168919000,5.0109189453125,0.85907766649127,0.8223957030430435,1.2089046651184558
1761413905178932000,5.020931884765625,0.7998457253217697,0.8520658880330622,1.0754244154334067
1761413905188945200,5.030945068359375,0.8050415403991937,0.9164290546111762,0.933713878345862
1761413905198957000,5.04095703125,0.8471551735073327,0.97123441151008,0.8312461681704968
1761413905208970000,5.050969970703125,0.855994898045063,0.9757827224642037,0.87774883001782
1761413905218983000,5.06098291015625,0.7634604067325591,0.9563502922415733,1.0036468809455632
1761413905228996000,5.07099609375,0.6452537140250205,0.9170498168580233,1.194342105954513
1761413905239008000,5.081008056640625,0.6080781218409538,0.9099706722520291,1.396963769470155
1761413905249021000,5.09102099609375,0.630582799115777,0.8997330636151134,1.506842778815329
1761413905259033900,5.101033935546875,0.651692807161808,0.8586879365213215,1.5303044645540416
1761413905269046000,5.1110458984375,0.6245312439918518,0.7553659476041793,1.5452639871463179
1761413905279059000,5.121058837890625,0.5106593656182289,0.579918925935775,1.5064188543148338
1761413905289072000,5.131072021484375,0.3317027283936739,0.4601991983167827,1.4753200978264212
1761413905299084000,5.141083984375,0.1138368070602417,0.3728326111614704,1.5358067152321337
1761413905309097000,5.151096923828125,-0.13821604603528975,0.3778701669372618,1.6294886230140924
1761413905319110000,5.16110986328125,-0.37890813168287274,0.45092941179871554,1.745529954381287
1761413905329122000,5.1711220703125,-0.5318319175064563,0.5947388939268887,1.732616696794331
1761413905339135000,5.181135009765625,-0.6428840622842311,0.7047784275960177,1.7999927814528345
1761413905349148200,5.191148193359375,-0.7082645892113447,0.7908198305621743,1.8683976246371865
1761413905359160000,5.20116015625,-0.7004471934586763,0.8936986788216977,1.9077979071334004
1761413905369173000,5.211173095703125,-0.6615075142115354,0.9458852315243333,1.9246034959837792
1761413905379186000,5.22118603515625,-0.639329584673047,0.9536707708340137,1.968164697551727
1761413905389199000,5.23119921875,-0.6329506972908974,0.9632285074479877,1.983890674471855
1761413905399211000,5.2412109375,-0.6629302404910326,0.978943889908865,1.9571276091001926
1761413905409224000,5.251223876953125,-0.717124772015214,0.9786812203846871,1.9138988543570041
1761413905419237000,5.261237060546875,-0.7949538616269827,0.931956074893102,1.9186827276326714
1761413905429249000,5.2712490234375,-0.8189186745822429,0.8668528305374086,1.9215305182792246
1761413905439262000,5.281261962890625,-0.8477391108751297,0.7897115770593285,1.8977976143836974
1761413905449275100,5.291275146484375,-0.8086895415127276,0.7401135064799338,1.829088673686236
1761413905459287000,5.301287109375,-0.7311147189229726,0.7120496607080101,1.7177955597594379
1761413905469300000,5.311300048828125,-0.6153887371152639,0.6726536159954964,1.5974544853717088
1761413905479313200,5.321313232421875,-0.5576847361654043,0.6330288770936429,1.4873454666629433
1761413905489325000,5.331324951171875,-0.5940723928421735,0.6099350017540156,1.3793290363192559
1761413905499338000,5.341337890625,-0.6714853028684854,0.5917850856225937,1.2521382421672342
1761413905509351000,5.351350830078125,-0.7154869416803121,0.6089814273562282,1.1227081446558236
1761413905519362800,5.36136279296875,-0.6962117478460073,0.6311734584853053,1.0276927232477813
1761413905529376000,5.3713759765625,-0.6345896966695785,0.6424504931725561,0.9643143299233168
1761413905539389200,5.38138916015625,-0.5695680661827326,0.6431685052487999,0.908865049097687
1761413905549402000,5.391402099609375,-0.48443946721255776,0.6403078551206738,0.8381883885238319
1761413905559414000,5.4014140625,-0.4104512709379196,0.6278530818909406,0.7687189117826521
1761413905569427000,5.411427001953125,-0.34091420885324475,0.5916519607622176,0.7445686592578887
1761413905579440000,5.421440185546875,-0.20537994924783706,0.5368032761782408,0.7244194590680301
1761413905589452000,5.4314521484375,-0.10136778610944747,0.49794455321282144,0.7131076453283429
1761413905599465200,5.44146533203125,0.010166004705429077,0.46373182942233976,0.7111949435748159
1761413905609478000,5.451477783203125,0.07098784541487693,0.4186071779299527,0.7087170091539621
1761413905619490000,5.461489990234375,0.12721008337438106,0.38239064003638923,0.6936923123709857
1761413905629503000,5.4715029296875,0.11224983012974261,0.33925212085992096,0.6943580097381025
1761413905639516200,5.48151611328125,0.061551324027776716,0.3329824660059064,0.6863691298760474
1761413905649528000,5.491528076171875,-0.057145198023319244,0.35241292346715924,0.654380146549642
1761413905659541200,5.501541259765625,-0.1899012250870466,0.3420760191742331,0.6027886371307075
1761413905669554000,5.511553955078125,-0.28137247108221053,0.38599334070347247,0.5761907722581178
1761413905679566000,5.521566162109375,-0.37274317931234835,0.4375046975582838,0.5366117721941321
1761413905689579000,5.5315791015625,-0.46353696443736553,0.4682397353008389,0.5199048214126378
1761413905699592200,5.54159228515625,-0.5308300469875336,0.44611865051612254,0.4591760658141225
1761413905709604900,5.55160498046875,-0.6247773277074098,0.373268810621649,0.3709402946088463
1761413905719617000,5.561616943359375,-0.6792565213918685,0.2959353955723345,0.17648564400114117
1761413905729630000,5.5716298828125,-0.7118330953478813,0.22293562581315635,-0.026689488678798078
1761413905739643100,5.58164306640625,-0.7137503271460532,0.11696253786534071,-0.20391754854507743
1761413905749655000,5.591655029296875,-0.6586164689451456,0.014938625934720038,-0.34185974607504904
1761413905759668200,5.601668212890625,-0.5809720882505178,-0.034317134013026954,-0.3975769571218639
1761413905769681000,5.611680908203125,-0.5271224246412516,-0.06472995406389236,-0.43635260491371153
1761413905779693000,5.621693115234375,-0.5125239904463291,-0.1130989943049848,-0.3960238824609667
1761413905789706000,5.6317060546875,-0.47592064519226546,-0.12322846639230847,-0.36789603154212236
1761413905799719200,5.64171923828125,-0.42976679678261276,-0.15574936463832853,-0.2605554546333849
1761413905809731000,5.65173095703125,-0.3671539810031652,-0.2797577293619513,0.01916333095766604
1761413905819744000,5.661743896484375,-0.2591045251727104,-0.4798617840334773,0.28893844935707746
1761413905829757000,5.6717568359375,-0.12593056495785712,-0.5272824375085532,0.33573205697499214
1761413905839769000,5.68176904296875,-0.046916064953804015,-0.5209055959530174,0.17348872720748185
1761413905849782000,5.691781982421875,-0.06387596758306026,-0.56882207012102,0.07731142241321504
1761413905859795200,5.701795166015625,-0.15956103188097476,-0.66916416644454,0.056527358385920524
1761413905869807900,5.711807861328125,-0.27999066133499145,-0.6956820248834789,0.020527970374375582
1761413905879820000,5.721820068359375,-0.3310433877021074,-0.5959900630317628,-0.08149820657856761
1761413905889833000,5.7318330078125,-0.3760387137264013,-0.43103228667378424,-0.212933798693493
1761413905899846100,5.74184619140625,-0.4386240569770336,-0.23221271885484457,-0.31195348730683325
1761413905909858000,5.751858154296875,-0.5203723658591508,-0.030640491326898334,-0.3313039383344352
1761413905919871000,5.76187109375,-0.622531594607234,0.1928641665458679,-0.2826091002050787
1761413905929884000,5.7718837890625,-0.6934884603619575,0.45413551436364646,-0.2445083560001105
1761413905939896000,5.78189599609375,-0.7673083143323659,0.6418586647592485,-0.1760206568378955
1761413905949909000,5.791908935546875,-0.8200158221691847,0.7578890363410115,-0.06424911174438894
1761413905959922200,5.801922119140625,-0.8168903836250304,0.8729043856613338,0.037149069503322245
1761413905969934600,5.8119345703125,-0.7260106737822294,1.0165880494527517,0.028206980569660662
1761413905979947800,5.82194775390625,-0.572366756990552,1.1380663111768663,0.036576238051429386
1761413905989960700,5.831960693359375,-0.4441951351076364,1.1913333525925873,0.0708532592497766
1761413905999974000,5.841973876953125,-0.3009773352622986,1.213402853320539,0.134087421797961
1761413906009985800,5.85198583984375,-0.1386678814560175,1.2257719210281968,0.19538630543462931
1761413906019998700,5.861998779296875,0.05032499661445618,1.2480289071522652,0.2795152258429676
1761413906030011600,5.87201171875,0.27602409579157827,1.2385557070165871,0.41647265011928974
1761413906040023800,5.88202392578125,0.5099497560441494,1.201651332989335,0.5547385997109114
1761413906050036700,5.89203662109375,0.7540472662210465,1.2006187750712036,0.6526246811844408
1761413906060049700,5.902049560546875,0.9508569555222988,1.1530857472628355,0.7312681559190154
1761413906070061600,5.9120615234375,1.0994558638840912,1.0873881172105668,0.8510557611424475
1761413906080074800,5.92207470703125,1.146333350393176,1.0000877271592616,1.0085963931117206
1761413906090087700,5.932087646484375,1.102968255919218,0.811896813121438,1.1801914155270903
1761413906100099800,5.942099853515625,0.9634458034604787,0.6190817464143037,1.308159989118576
1761413906110112800,5.95211279296875,0.8137602689057588,0.45854368619471786,1.322451549321413
1761413906120125700,5.962125732421875,0.7270639822274446,0.37901948310285805,1.3567663452468812
1761413906130137600,5.9721376953125,0.6656494363218546,0.27700901517570015,1.414142575547099
1761413906140150800,5.98215087890625,0.5604261438280344,0.18821312586963176,1.4359569324702024
1761413906150163700,5.992163818359375,0.48145139131247994,0.11745908921062946,1.4078813231952487
1761413906160176600,6.0021767578125,0.439143696936965,0.10984335350990294,1.343832921654731
1761413906170188500,6.0121884765625,0.42740708191394805,0.18744301827996968,1.2477476059928536
1761413906180201700,6.02220166015625,0.43920565625727176,0.3162868403360247,1.1890298248905689
1761413906190214700,6.032214599609375,0.4110854771882295,0.4361120741561055,1.2146544608168304
1761413906200226800,6.042226806640625,0.30542203971147536,0.5600342219009995,1.166209286599606
1761413906210239700,6.05223974609375,0.1235445466041565,0.6698992027208208,1.1343591272220015
1761413906220252700,6.062252685546875,-0.08230828085243702,0.7643637853130698,1.077659188748151
1761413906230264600,6.0722646484375,-0.33240240109562874,0.7918696318760514,1.0232532794956117
1761413906240277800,6.08227783203125,-0.5228554148465394,0.766437376716733,0.9623447834160178
1761413906250290700,6.092290771484375,-0.6170160460561513,0.7625120199665427,0.9158284583695232
1761413906260302800,6.102302734375,-0.6231733996421098,0.7922440181463957,0.9036077861566096
1761413906270315500,6.1123154296875,-0.5297317303568124,0.7831088177934289,0.9799675338681787
1761413906280328700,6.12232861328125,-0.40601825692653654,0.7157596211418509,1.088595301043242
1761413906290340600,6.132340576171875,-0.21145254715979098,0.7038844744309782,1.1425261401299387
1761413906300353800,6.142353759765625,0.022307693397998807,0.6727087071835994,1.1768761534992604
1761413906310366700,6.15236669921875,0.22703473169505595,0.5474491733551025,1.2111375387370586
1761413906320379000,6.16237890625,0.37542145861089227,0.398704719042778,1.2178397397894412
1761413906330391600,6.1723916015625,0.5039081377923489,0.23863573763966558,1.1517671389449387
1761413906340404700,6.18240478515625,0.590388151371479,0.1035626658052206,1.0787882658433168
1761413906350417700,6.192417724609375,0.6092647012770176,-0.02950987986177206,1.0505900531020014
1761413906360429800,6.202429931640625,0.5792419034570455,-0.11519947371557354,1.0049446656711398
1761413906370442800,6.21244287109375,0.5428688598275184,-0.1279873513571918,0.9661557930715382
1761413906380455700,6.22245556640625,0.4919786305457353,-0.08152078373655676,0.9237555250417441
1761413906390467600,6.232467529296875,0.44068274307250976,0.01478255859017372,0.8919565843947231
1761413906400480800,6.242480712890625,0.43900048907399175,0.14778890715315937,0.8641093770481646
1761413906410493700,6.25249365234375,0.4470113615721464,0.2609504453003406,0.8785700832728296
1761413906420505900,6.262505859375,0.42438685730993747,0.3633315001055598,0.8845462350729852
1761413906430518500,6.2725185546875,0.41160336358249183,0.4323195500053465,0.9135885704882443
1761413906440531700,6.28253173828125,0.37716976358294485,0.45972895045652984,0.9236609786260872
1761413906450543600,6.292543701171875,0.38206688797473903,0.4776800560802221,0.9537019696898758
1761413906460556800,6.302556884765625,0.40020109508037566,0.4978108438305556,0.9642064856346696
1761413906470569700,6.31256982421875,0.4229787440776825,0.5253384638339281,0.9396496250703931
1761413906480582000,6.322581787109375,0.41337154229879375,0.54609249804914,0.8851306838974357
1761413906490594600,6.332594482421875,0.38851182633042336,0.5631035463437438,0.8245017354115843
1761413906500607700,6.342607666015625,0.30405484301149843,0.5496709410578012,0.8146750456631183
1761413906510620700,6.35262060546875,0.14824702618420124,0.5039790110714734,0.7995497380498796
1761413906520632800,6.3626328125,0.005118073666095733,0.4820129707179963,0.7456370922069996
1761413906530645500,6.3726455078125,-0.0986696330666542,0.478415092356503,0.6874985722973942
1761413906540658700,6.38265869140625,-0.13921207133531568,0.4482474792383611,0.6514907087184488
1761413906550670600,6.392670654296875,-0.18181962544023988,0.36619682640880347,0.6323925519514828
1761413906560683800,6.402683837890625,-0.24611001904308794,0.2900048364795744,0.5843240290269255
1761413906570696700,6.41269677734375,-0.3048731736570596,0.20172142674028873,0.49085634851753707
1761413906580708900,6.422708984375,-0.32985271661281584,0.1416013045594096,0.4037644866503775
1761413906590721500,6.432721435546875,-0.2860767032504082,0.05304609214141964,0.3111610948201269
1761413906600734700,6.442734619140625,-0.28034371255636215,-0.052600101939588785,0.2604214529901743
1761413906610746600,6.45274658203125,-0.2894692682981491,-0.13579773284718394,0.21805647546947002
1761413906620759800,6.462759765625,-0.34738486617207526,-0.1740130433425307,0.17760675698556005
1761413906630772500,6.4727724609375,-0.5144166723251342,-0.19494228799417615,0.11778919794782995
1761413906640784600,6.48278466796875,-0.675648852288723,-0.16762027356550097,0.034466333225369454
1761413906650797600,6.492797607421875,-0.8225900565713643,-0.093344492521137,-0.004637012150883675
1761413906660810800,6.502810791015625,-0.9362018227040767,-0.02923646974787116,-0.02818447647690773
1761413906670824000,6.512823974609375,-1.0303700526982544,0.03325213513001799,-0.0016197832215577362
1761413906680835800,6.5228359375,-1.0907903268694876,0.11297960570901631,0.012436506920680403
1761413906690848500,6.5328486328125,-1.172531036967039,0.09951923563331365,0.153527304674685
1761413906700861700,6.54286181640625,-1.2247247500628233,-0.11927066867724061,0.5523843647349626
1761413906710873600,6.55287353515625,-1.0785241350144148,-0.34028964721411464,0.877760958847031
1761413906720886800,6.56288671875,-0.758135996839404,-0.346655236723274,0.740558254572749
1761413906730899700,6.572899658203125,-0.5484335082173347,-0.3320012729488313,0.47546128405220806
1761413906740911600,6.58291162109375,-0.5321995817750692,-0.40397769100964065,0.3858714678894728
1761413906750924500,6.592924560546875,-0.7174012508690357,-0.44269656711295247,0.40190972562916577
1761413906760937700,6.602937744140625,-0.9908113647699356,-0.3416219187311828,0.4156509584728628
1761413906770949600,6.61294970703125,-1.30265087030828,-0.09343348597884178,0.3968238006670028
1761413906780962800,6.622962890625,-1.4912462734937666,0.23219591385051608,0.3951522872582078
1761413906790975700,6.632975830078125,-1.5570926643669605,0.5228025156155228,0.5111266908690333
1761413906800987600,6.642987548828125,-1.4999106414645909,0.7443944717347621,0.7243265200875699
1761413906811000600,6.65300048828125,-1.2963269279837608,0.9714458623036741,0.9709335288673638
1761413906821013800,6.663013671875,-0.9662029932141304,1.2079729372262955,1.1423511488892137
1761413906831025700,6.673025634765625,-0.6005547405987978,1.352527392502874,1.256988020285964
1761413906841038600,6.68303857421875,-0.29435470225214955,1.406029703979194,1.3807859571292995
1761413906851051800,6.6930517578125,-0.12827099060416222,1.4079041195489466,1.4098629985317588
1761413906861064700,6.703064697265625,-0.04573825334608555,1.3965795924581585,1.3851681177362798
1761413906871076600,6.71307666015625,-0.08533318163156509,1.3859165980160235,1.3256360245764254
1761413906881089800,6.72308984375,-0.1318622930943966,1.3661599042750894,1.2250164264857768
1761413906891102700,6.733102783203125,-0.05824409917593002,1.38721496726349,1.1830036234036088
1761413906901114600,6.743114501953125,0.12494915270507335,1.407737238549441,1.2462509376943112
1761413906911127800,6.7531279296875,0.3741103760123253,1.4643359086059033,1.35115975741148
1761413906921140700,6.763140625,0.6370452731281518,1.5081241969279944,1.4664923559874294
1761413906931152600,6.773152587890625,0.8488637309908866,1.5134619046941398,1.5502531737357377
1761413906941165600,6.78316552734375,0.9846890824973583,1.5121141433469951,1.6136211917966603
1761413906951178800,6.7931787109375,1.0907704531252385,1.483120980835706,1.631541610021144
1761413906961190700,6.803190673828125,1.115346675977111,1.4326568680115044,1.5999902874596417
1761413906971203300,6.813203369140625,1.009262967261672,1.3832706135518849,1.4958226414985953
1761413906981216500,6.823216552734375,0.7870692458570003,1.351497757194191,1.3468199746415017
1761413906991228400,6.833228515625,0.4709264901667833,1.327806792744249,1.2061430183853954
1761413907001241300,6.843241455078125,0.16312544636428356,1.3545055607080458,1.0629304792370646
1761413907011254500,6.853254638671875,-0.05303250200748443,1.3551900358408688,0.9987767176259309
1761413907021267500,6.863267333984375,-0.2110375366181135,1.3895852035261689,0.9868801628008484
1761413907031279600,6.873279541015625,-0.3298118000805378,1.4159323815733194,0.98222415368855
1761413907041292500,6.88329248046875,-0.4500339242637157,1.4331639407508074,0.9561758124575018
1761413907051305500,6.893305419921875,-0.5262988332986831,1.4724224766887724,0.8984498919367789
1761413907061317400,6.9033173828125,-0.5422644641935825,1.4763848044484853,0.8401432489186524
1761413907071330600,6.91333056640625,-0.5391109685987234,1.443568576517701,0.750968881689012
1761413907081343500,6.923343505859375,-0.5203495695054531,1.3988693108305335,0.6739398564137518
1761413907091355600,6.933355712890625,-0.46456806105077264,1.3704144929796456,0.6263666427254676
1761413907101368300,6.943368408203125,-0.32985622374415396,1.3349420514516532,0.6144361125655472
1761413907111381500,6.953381591796875,-0.156300568780303,1.2736204445265233,0.6387776498787104
1761413907121393400,6.963393310546875,0.009803601133823394,1.1879422488495708,0.6493188445720821
1761413907131406600,6.973406494140625,0.20275369239747523,1.1226724888205528,0.6504692567162216
1761413907141419500,6.98341943359375,0.3723100485920906,1.0081604128472506,0.6257029181197286
1761413907151431700,6.993431640625,0.42573242669999595,0.823156604412943,0.6516918573137372
1761413907161444400,7.0034443359375,0.4460211814910173,0.6512342497393488,0.6041094374056906
1761413907171457500,7.01345751953125,0.40972529475092884,0.47082624466270206,0.5365760432936251
1761413907181470500,7.023470458984375,0.32514673087894913,0.30603973321840167,0.44605943114217367
1761413907191482600,7.033482666015625,0.24998598369359967,0.183339382353425,0.33291915497872976
1761413907201495300,7.043495361328125,0.2372673718959093,0.08017901373878121,0.23417579908873884
1761413907211508500,7.053508544921875,0.23708500106632707,-0.01692030127122998,0.1844457726927474
1761413907221520400,7.063520263671875,0.2608037303060293,-0.1342690619751811,0.1688716253334656
1761413907231533600,7.073533447265625,0.30329964073002336,-0.20300605972334743,0.13937091515883804
1761413907241546500,7.08354638671875,0.33950317301154137,-0.24154797182455656,0.1007759211635217
1761413907251558700,7.09355859375,0.39723289292454717,-0.24077801036536692,0.08963814881648868
1761413907261571300,7.1035712890625,0.41547699014544487,-0.23847426346763967,0.11385416005384176
1761413907271584500,7.11358447265625,0.4713929386347532,-0.22074235355257987,0.20176084543522446
1761413907281596400,7.123596435546875,0.5251514168292284,-0.17210764811262488,0.3638970980990678
1761413907291609600,7.133609619140625,0.6008353111058473,-0.07530658539682626,0.4902462537951767
1761413907301622300,7.143622314453125,0.6427274104177951,-0.021336364147812127,0.588913475709036
1761413907311634400,7.153634521484375,0.66138710270226,-0.010441606776416302,0.6679456575002521
1761413907321647400,7.1636474609375,0.6044663610845804,-0.040853842305392025,0.6756150230843574
1761413907331660500,7.17366064453125,0.5351175150483847,-0.09463891624584793,0.6125436133498325
1761413907341672400,7.18367236328125,0.43495968925058837,-0.13672799943462013,0.5366084477258846
1761413907351685600,7.193685546875,0.3281429900854826,-0.20897402821704744,0.4857217255754396
1761413907361698300,7.2036982421875,0.17070085005462168,-0.23824264666885137,0.38774975591674443
1761413907371711500,7.21371142578125,-0.005662263545393943,-0.2763701327502727,0.30813319836631414
1761413907381723400,7.223723388671875,-0.17412673285007477,-0.3069466189302504,0.29011304609440264
1761413907391736600,7.233736572265625,-0.2253893025755882,-0.34419176921918987,0.3134322911551222
1761413907401749200,7.243749267578125,-0.24223113178312777,-0.3801569627001881,0.34006234126426277
1761413907411761400,7.253761474609375,-0.2651023042827845,-0.4086960978336632,0.34361309254840017
1761413907421774300,7.2637744140625,-0.3140618577629328,-0.4143703440777957,0.2741646951278671
1761413907431787500,7.27378759765625,-0.4058119206994772,-0.42012160108089447,0.17888671379350124
1761413907441799400,7.28379931640625,-0.5272814145952462,-0.4295193978928029,0.10205160365514457
1761413907451812600,7.2938125,-0.6791150670945644,-0.45895533573552966,0.014300693357363342
1761413907461825300,7.3038251953125,-0.844786106288433,-0.44967634299769993,-0.06012304479032755
1761413907471837400,7.31383740234375,-1.0339508337944745,-0.41541883021742104,-0.15001856590136886
1761413907481850400,7.323850341796875,-1.1746622037768364,-0.3798036192178726,-0.26337752631679173
1761413907491863600,7.333863525390625,-1.2464052514731883,-0.3183589704349637,-0.31005868653617796
1761413907501875500,7.34387548828125,-1.2036135729730129,-0.2616696994856,-0.24396336240321395
1761413907511888400,7.353888427734375,-1.1042208863288163,-0.21816066649630664,-0.09516228253282606
1761413907521901300,7.3639013671875,-0.9457838900417089,-0.22433657865226267,0.16006028664000332
1761413907531913500,7.37391357421875,-0.7712696191787719,-0.359553589002043,0.48937692361474033
1761413907541926400,7.383926513671875,-0.5782897172987461,-0.5607118289016186,0.6641806058783084
1761413907551939600,7.393939697265625,-0.3707610655844211,-0.6721119103342295,0.5151918214160949
1761413907561952300,7.4039521484375,-0.2721440394878387,-0.7766726472660899,0.3066935940172523
1761413907571964400,7.41396435546875,-0.3090536742120981,-0.8875909365311264,0.15951646208688616
1761413907581977300,7.423977294921875,-0.38319969139695165,-0.9674931791551411,0.09509754673354327
1761413907591990500,7.433990478515625,-0.4652291553080082,-1.0090333962894975,0.12152012810446321
1761413907602002400,7.44400244140625,-0.49836219410300253,-0.9555050735890864,0.1725507157050073
1761413907612015400,7.454015380859375,-0.4210217647910118,-0.8114347485676408,0.18639255937896668
1761413907622028300,7.4640283203125,-0.27776772458851334,-0.5976360766731202,0.26511487150341273
1761413907632040400,7.47404052734375,-0.14145488182604313,-0.3817743347689509,0.3274869373295456
1761413907642053400,7.484053466796875,-0.11874445284605026,-0.18990502447932958,0.3664538699097931
1761413907652066600,7.494066650390625,-0.1886076781451702,0.0025203122578561304,0.30667021314166487
1761413907662078500,7.504078369140625,-0.31703824322521684,0.20363091362342237,0.20099172422625122
1761413907672091400,7.51409130859375,-0.5374146860748529,0.3721503279857337,0.09144640381485224
1761413907682104300,7.524104248046875,-0.7329653152257204,0.5128590676195919,0.005771569138765335
1761413907692116500,7.534116455078125,-0.8242740641355514,0.6247526316575706,-0.024904870284348724
1761413907702129400,7.54412939453125,-0.7852548899114131,0.7192658756971358,0.0484011889450252
1761413907712142600,7.554142578125,-0.5354045152962208,0.782572372829169,0.12367474885508417
1761413907722155300,7.5641552734375,-0.18334990374743937,0.8138349415771663,0.17338716652914882
1761413907732167400,7.57416748046875,0.16404139216542243,0.7548492302536964,0.18645868341773747
1761413907742180400,7.584180419921875,0.4751245263785124,0.6700592155881225,0.1511537439437583
1761413907752193500,7.594193603515625,0.6484580630242824,0.6194632930777967,0.05892017180658877
1761413907762205400,7.604205322265625,0.6994412312865257,0.5176302275441587,-0.006316124344244599
1761413907772218400,7.61421826171875,0.6386947939008474,0.4214988807834685,-0.06467062509208918
1761413907782231300,7.624231201171875,0.5072475113481283,0.36807094971761106,-0.1705658254981041
1761413907792243500,7.634243408203125,0.36037235803902146,0.36536154462844134,-0.23079634925089776
1761413907802256400,7.64425634765625,0.25260990245640275,0.41852439501732586,-0.2514096963537857
1761413907812269600,7.65426953125,0.22969255272746084,0.48197044675052164,-0.2424884310124442
1761413907822281500,7.664281494140625,0.26916765402555465,0.562979189311713,-0.21597671005334704
1761413907832294400,7.67429443359375,0.3305120573043823,0.6616168198049068,-0.1714395395927131
1761413907842307300,7.684307373046875,0.4059937070071697,0.7073406062342226,-0.14157050756234674
1761413907852319500,7.694319580078125,0.44720600736141203,0.7250047116100787,-0.09821450971029698
1761413907862332400,7.70433251953125,0.4564554817438125,0.7419593535423278,-0.0816613977836445
1761413907872345300,7.714345458984375,0.39722061796486374,0.7230461248882114,-0.07775850859358906
1761413907882357200,7.724357177734375,0.3234960410624742,0.6829344792522489,-0.07987477009519935
1761413907892370400,7.734370361328125,0.229110368925333,0.6342905675925314,-0.0640011283326894
1761413907902383400,7.74438330078125,0.14733166490495203,0.5667674756787717,-0.046342758577875794
1761413907912395500,7.7543955078125,0.10316460639834403,0.5218981141217053,0.0421005544308573
1761413907922408400,7.764408447265625,0.10881985568106174,0.5148993412755429,0.07450896874573082
1761413907932421400,7.77442138671875,0.15040625004470348,0.4880839611947536,0.09640939651709049
1761413907942434600,7.7844345703125,0.2227449255466461,0.41034649538919327,0.09946578841302543
1761413907952446500,7.794446533203125,0.33675358204245565,0.3126242261752486,0.08892726060077548
1761413907962459600,7.804459716796875,0.4431020791739225,0.21508345100805162,0.08237445969013497
1761413907972472600,7.81447265625,0.5473515581995249,0.12680427905246613,0.09391812769062817
1761413907982484500,7.824484375,0.658091568288207,0.025643413691967723,0.11859286074722185
1761413907992497700,7.83449755859375,0.6650117229402065,-0.08144932593554258,0.14652367299031466
1761413908002510600,7.844510498046875,0.7308230425000191,-0.1038806457132101,0.08721556131206452
1761413908012522500,7.8545224609375,0.8112894948780536,-0.16201909255757926,0.05790558793656528
1761413908022535700,7.86453564453125,0.8258931897699833,-0.23220818881019947,0.045510819532070305
1761413908032548600,7.874548583984375,0.8449789985120296,-0.2886372013881802,0.04741933830082416
1761413908042560500,7.884560546875,0.8488748369067907,-0.33519773090258237,0.04413220638893545
1761413908052573700,7.89457373046875,0.866578835901618,-0.3531777703598141,0.0626145328124985
1761413908062586600,7.904586669921875,0.9179583100050688,-0.3778320268839597,0.08619410930983722
1761413908072598500,7.9145986328125,0.9502572360634803,-0.42810996948629615,0.10194076369181275
1761413908082611500,7.924611572265625,1.0268073917806149,-0.4538042365826666,0.10411271916972473
1761413908092624600,7.934624755859375,1.1250485703021287,-0.5384311696410179,0.10356308593032881
1761413908102636500,7.944636474609375,1.1275965012192726,-0.6234625918470322,0.07911315633924677
1761413908112649700,7.954649658203125,1.0369587834388017,-0.6757287856571376,0.1677073855933733
1761413908122662700,7.96466259765625,0.9063952979832887,-0.6721607179120183,0.24273685281556098
1761413908132675600,7.974675537109375,0.8142132733702659,-0.6213266027316451,0.28335701422924175
1761413908142687500,7.9846875,0.6955395476728677,-0.5893658225864171,0.35418994307704266
1761413908152700700,7.99470068359375,0.5737526583909988,-0.5050751357451081,0.4534280236814171
1761413908162713600,8.004713623046875,0.43075346973240375,-0.445422192684561,0.45188181715272363
1761413908172725800,8.014725830078126,0.3319558263719082,-0.37093949089124795,0.5219836004480719
1761413908182738400,8.024738525390624,0.2572825704425573,-0.34936478794291614,0.618447247903049
1761413908192751600,8.034751708984375,0.21333529216647146,-0.35254181054383515,0.7346903854526579
1761413908202763500,8.044763427734376,0.2163759750366211,-0.37638752716407176,0.8212470444645732
1761413908212776700,8.054776611328125,0.20055764365792272,-0.43698987990394234,0.780497100925073
1761413908222789600,8.06478955078125,0.15906827992796896,-0.4892353231869638,0.7398719528090208
1761413908232801800,8.0748017578125,-0.039463410860300065,-0.572285362317413,0.696363796602562
1761413908242814500,8.084814453125,-0.3169265995442867,-0.5860214805945754,0.6294144859887659
1761413908252827600,8.09482763671875,-0.5704191300541163,-0.4994194480709731,0.5408637670828029
1761413908262839600,8.104839599609376,-0.8238619762033224,-0.4857487962454557,0.4751471766017377
1761413908272852700,8.114852783203125,-1.079812421259284,-0.4775752805314958,0.4208555413786322
1761413908282865400,8.124865478515625,-1.2876853563666344,-0.47569458135142917,0.3567013779086992
1761413908292877600,8.134877685546876,-1.4066250395238398,-0.4860590312384069,0.23017894800491628
1761413908302890500,8.144890380859374,-1.445927706864476,-0.5978330605499446,0.24298529288498683
1761413908312903700,8.154903564453125,-1.4214935228317975,-0.9249522605456412,0.6241543735034764
1761413908322916600,8.16491650390625,-1.1664689604490994,-1.201837064819783,0.7820432343885302
1761413908332928800,8.1749287109375,-0.8667904328256845,-1.1291893233686685,0.3885800692610442
1761413908342941400,8.18494140625,-0.7997241447687149,-1.0245438307628034,0.009066263302601874
1761413908352954600,8.19495458984375,-0.8299486026406288,-0.9556094107463955,-0.1954436251124367
1761413908362966500,8.204966552734374,-0.9620920507639646,-0.9179524647861719,-0.23796494397232307
1761413908372979700,8.214979736328125,-1.2160574594825506,-0.8389597382225096,-0.18199403215907514
1761413908382992400,8.224992431640626,-1.4928461099058388,-0.6356257617190479,-0.16178407822530716
1761413908393004500,8.235004638671874,-1.6640508178293705,-0.34848391345515844,-0.1793009206175804
1761413908403017500,8.245017578125,-1.6671803480267524,-0.0821104201927781,-0.10177896072622387
1761413908413030700,8.25503076171875,-1.608457525423169,0.1337790865011513,0.05236804674938321
1761413908423042600,8.26504248046875,-1.4237170441001652,0.24281477688997982,0.2430885888626799
1761413908433055700,8.2750556640625,-1.1234756218969821,0.3291482216052711,0.37473756799995894
1761413908443068400,8.285068359375,-0.7354998021394014,0.35420068366676566,0.45384570110421624
1761413908453080600,8.29508056640625,-0.3761556181043386,0.2764421750731766,0.4597147027354687
1761413908463093500,8.305093505859375,0.03966740899980068,0.20661139073893425,0.4238975759556517
1761413908473106700,8.315106689453126,0.5282973136395216,0.2343085220903158,0.383571666514501
1761413908483118600,8.32511865234375,1.0349339996129274,0.2706390417523682,0.30922486606054006
1761413908493131500,8.335131591796875,1.4848890134215353,0.27634733639657494,0.35496856276672334
1761413908503144400,8.34514453125,1.5962281584471463,0.0880545694194734,0.5244449490603059
1761413908513156600,8.355156494140624,1.3899445383578537,-0.10458923237398267,0.5691977715656161
1761413908523169500,8.36516943359375,1.0842834291934966,-0.16879019412770865,0.4874307579830289
1761413908533182700,8.3751826171875,0.7679115409225225,-0.04742416060641408,0.36440186928343027
1761413908543195400,8.3851953125,0.5827040266096591,0.13257102588564157,0.3037824923435226
1761413908553207600,8.39520751953125,0.6150011991024017,0.18078224521651862,0.4433065887700766
1761413908563220500,8.405220458984376,0.7160702945262193,0.18958426809236406,0.6639071226991713
1761413908573233700,8.415233642578125,0.7149772385925054,0.22372297679856418,0.8496890028338879
1761413908583245600,8.42524560546875,0.5890215391933917,0.3254483441740274,0.968602893962711
