time,seconds_elapsed,z,y,x
1761413735237916200,0.075916259765625,-0.018054980784654617,-0.07913468033075333,0.05303385108709335
1761413735247929000,0.08592919921875,-0.0014746711822226644,-0.0800984799861908,0.04213672876358032
1761413735257942300,0.0959423828125,0.009762095287442207,-0.07578014582395554,0.023801857605576515
1761413735267956000,0.1059560546875,0.020530320703983307,-0.06409206241369247,-0.000021183164790272713
1761413735277969200,0.11596923828125,0.029560208320617676,-0.05849491432309151,-0.0222686268389225
1761413735287982300,0.125982421875,0.031175948679447174,-0.03475416451692581,-0.038010306656360626
1761413735297995000,0.1359951171875,0.02983199432492256,-0.013577179983258247,-0.05477418750524521
1761413735308008200,0.14600830078125,0.03602411225438118,-0.0072801364585757256,-0.0722154974937439
1761413735318022000,0.15602197265625,0.03665653243660927,-0.002860837383195758,-0.07557282596826553
1761413735328035000,0.16603515625,0.03347458690404892,-0.004605208057910204,-0.0775986909866333
1761413735338048300,0.17604833984375,0.02461288869380951,-0.008807331323623657,-0.06451872736215591
1761413735348061200,0.186061279296875,0.018102258443832397,-0.015245523303747177,-0.04692775011062622
1761413735358074000,0.19607421875,0.014755944721400738,-0.02782900258898735,-0.02825232222676277
1761413735368087000,0.206087158203125,0.007943045347929,-0.02336607687175274,-0.013895752839744091
1761413735378101000,0.21610107421875,0.005888571962714195,-0.023570477962493896,-0.007350534200668335
1761413735388114200,0.2261142578125,0.011731014586985111,-0.016387667506933212,-0.004676453769207001
1761413735398127000,0.236127197265625,0.019705604761838913,0.012341835536062717,-0.000013422220945358276
1761413735408140300,0.246140380859375,0.021473942324519157,0.05076645687222481,-0.007095832843333483
1761413735418153000,0.256153076171875,0.02340633235871792,0.08428766578435898,-0.016770031303167343
1761413735428167200,0.266167236328125,0.023022571578621864,0.11856094747781754,-0.022061999887228012
1761413735438180000,0.27618017578125,0.02670576237142086,0.14742134511470795,-0.024384602904319763
1761413735448193000,0.286193115234375,0.02098209597170353,0.17747405171394348,-0.030592430382966995
1761413735458206200,0.296206298828125,0.016528401523828506,0.19707515835762024,-0.03554397448897362
1761413735468219100,0.30621923828125,0.016457827761769295,0.2162342071533203,-0.03840341046452522
1761413735478232000,0.316232177734375,0.01908569037914276,0.2224196046590805,-0.0319875068962574
1761413735488246300,0.326246337890625,0.028815550729632378,0.21597768366336823,-0.02386593259871006
1761413735498259000,0.336259033203125,0.036887507885694504,0.19567404687404633,-0.012739652767777443
1761413735508272000,0.346272216796875,0.037559423595666885,0.16431212425231934,-0.004485184792429209
1761413735518285000,0.35628515625,0.03547659516334534,0.14316467940807343,0.010543450713157654
1761413735528298200,0.36629833984375,0.024509966373443604,0.12527994811534882,0.020906610414385796
1761413735538312200,0.376312255859375,0.006599297747015953,0.10365335643291473,0.02698151394724846
1761413735548325000,0.3863251953125,-0.011840429157018661,0.08503785729408264,0.025326360017061234
1761413735558338000,0.396338134765625,-0.030524061992764473,0.062253426760435104,0.0205142330378294
1761413735568351000,0.40635107421875,-0.054498638957738876,0.04343632981181145,0.0036734689492732286
1761413735578364200,0.4163642578125,-0.06874454021453857,0.018829846754670143,-0.019404500722885132
1761413735588378000,0.426378173828125,-0.0808294340968132,0.00803525559604168,-0.04328426718711853
1761413735598391000,0.43639111328125,-0.0789434015750885,0.014516202732920647,-0.05719646066427231
1761413735608404200,0.446404296875,-0.07251692563295364,0.03467633202672005,-0.0668104737997055
1761413735618417200,0.456417236328125,-0.05469247326254845,0.06089545786380768,-0.08105479180812836
1761413735628430000,0.46643017578125,-0.03526631370186806,0.06769344210624695,-0.0910661444067955
1761413735638443300,0.476443359375,-0.01962566003203392,0.08567854762077332,-0.09708748012781143
1761413735648457000,0.48645703125,-0.009982353076338768,0.09561426937580109,-0.09748189896345139
1761413735658470100,0.49647021484375,-0.0021255873143672943,0.09985639899969101,-0.09484796226024628
1761413735668483000,0.506483154296875,-0.004904862493276596,0.09766408801078796,-0.09533745050430298
1761413735678496000,0.51649609375,-0.0061027840711176395,0.09604762494564056,-0.0937919020652771
1761413735688509200,0.52650927734375,-0.003963999450206757,0.09918536245822906,-0.09058039635419846
1761413735698523100,0.536523193359375,0.003571927547454834,0.1015314906835556,-0.0864613950252533
1761413735708536000,0.5465361328125,0.012816292233765125,0.10110964626073837,-0.0795198604464531
1761413735718549000,0.556549072265625,0.025375669822096825,0.10215917974710464,-0.07274790853261948
1761413735728562200,0.566562255859375,0.03605707362294197,0.10266837477684021,-0.06145557016134262
1761413735738575000,0.5765751953125,0.03973204270005226,0.08501017838716507,-0.05689508095383644
1761413735748588000,0.586588134765625,0.041136059910058975,0.05882784724235535,-0.05007605627179146
1761413735758602200,0.596602294921875,0.03900517150759697,0.03214295208454132,-0.0407373420894146
1761413735768615200,0.606615234375,0.03258562460541725,0.016950419172644615,-0.03425600752234459
1761413735778628000,0.616628173828125,0.025943169370293617,0.006250635255128145,-0.025978373363614082
1761413735788641300,0.626641357421875,0.02197878621518612,-0.009145630523562431,-0.020580146461725235
1761413735798654000,0.636654052734375,0.01720307022333145,-0.017264818772673607,-0.02328711375594139
1761413735808668700,0.646668701171875,0.0077275438234210014,-0.01199175976216793,-0.023955034092068672
1761413735818681600,0.656681640625,0.005868729203939438,-0.003393579740077257,-0.03033587522804737
1761413735828694500,0.666694580078125,0.007069814950227737,0.01369725726544857,-0.046180617064237595
1761413735838707500,0.67670751953125,0.009691891260445118,0.03396694362163544,-0.05722909793257713
1761413735848720600,0.686720703125,0.01707257516682148,0.057485051453113556,-0.06725350767374039
1761413735858733300,0.6967333984375,0.022606799378991127,0.07092547416687012,-0.0772397518157959
1761413735868747500,0.70674755859375,0.03105221688747406,0.07539159804582596,-0.08248112350702286
1761413735878760700,0.7167607421875,0.037069305777549744,0.07661868631839752,-0.0753694623708725
1761413735888773400,0.7267734375,0.035393375903367996,0.08089199662208557,-0.06341426074504852
1761413735898786600,0.73678662109375,0.034439560025930405,0.08467208594083786,-0.04581835865974426
1761413735908799500,0.746799560546875,0.029095929116010666,0.09590849280357361,-0.03179122135043144
1761413735918813400,0.7568134765625,0.026611220091581345,0.10659214109182358,-0.009266102686524391
1761413735928826600,0.76682666015625,0.03000754863023758,0.11335710436105728,0.003949834033846855
1761413735938839600,0.776839599609375,0.037127088755369186,0.11943085491657257,0.025263145565986633
1761413735948852500,0.7868525390625,0.038859475404024124,0.12597636878490448,0.031834498047828674
1761413735958865400,0.796865478515625,0.041277043521404266,0.13147389888763428,0.0448690764605999
1761413735968878600,0.806878662109375,0.032795943319797516,0.1413443684577942,0.045314889401197433
1761413735978892500,0.816892578125,0.02855200134217739,0.12519006431102753,0.04289257153868675
1761413735988905500,0.826905517578125,0.025378046557307243,0.11014241725206375,0.03735612705349922
1761413735998918700,0.836918701171875,0.01921490579843521,0.10305516421794891,0.030050551518797874
1761413736008931300,0.846931396484375,0.012077635154128075,0.10224875807762146,0.024702658876776695
1761413736018944500,0.856944580078125,0.0030084862373769283,0.10370858758687973,0.016212664544582367
1761413736028958500,0.86695849609375,-0.007213790901005268,0.11872562021017075,0.020915009081363678
1761413736038971400,0.876971435546875,-0.009778374806046486,0.14195580780506134,0.02734248712658882
1761413736048984600,0.886984619140625,-0.012320095673203468,0.1596999168395996,0.03872483968734741
1761413736058997500,0.89699755859375,-0.008250098675489426,0.1585247963666916,0.05005282536149025
1761413736069010400,0.907010498046875,-0.0019373417599126697,0.14425984025001526,0.0603528693318367
1761413736079023600,0.917023681640625,0.0006186370737850666,0.11348601430654526,0.0625256597995758
1761413736089037300,0.927037353515625,-0.00046074207057245076,0.07374898344278336,0.07148080319166183
1761413736099050500,0.937050537109375,-0.006528078578412533,0.028003128245472908,0.0793551579117775
1761413736109063700,0.947063720703125,-0.01875278726220131,-0.018772898241877556,0.08455418795347214
1761413736119076600,0.95707666015625,-0.032253384590148926,-0.07114190608263016,0.08877038210630417
1761413736129089500,0.967089599609375,-0.04856684431433678,-0.11543693393468857,0.09010835736989975
1761413736139103500,0.977103515625,-0.07158702611923218,-0.1643812656402588,0.08633957803249359
1761413736149116400,0.987116455078125,-0.09850386530160904,-0.18610307574272156,0.07567042112350464
1761413736159129600,0.997129638671875,-0.11572854965925217,-0.14150011539459229,0.08843253552913666
1761413736169142500,1.007142578125,-0.10606526583433151,-0.042482443153858185,0.11270138621330261
1761413736179155700,1.01715576171875,-0.0796714574098587,0.023281242698431015,0.12760800123214722
1761413736189168400,1.02716845703125,-0.0851634293794632,0.021398920565843582,0.11049053072929382
1761413736199182600,1.0371826171875,-0.10892576724290848,-0.020455174148082733,0.07006870955228806
1761413736209195500,1.047195556640625,-0.13864372670650482,-0.08068975061178207,0.022635409608483315
1761413736219208400,1.05720849609375,-0.15383309125900269,-0.12930040061473846,-0.01646479405462742
1761413736229221600,1.0672216796875,-0.15641610324382782,-0.15876534581184387,-0.03867023065686226
1761413736239234600,1.077234619140625,-0.16053973138332367,-0.16370519995689392,-0.04498719424009323
1761413736249248500,1.08724853515625,-0.16783039271831512,-0.14299538731575012,-0.03905021399259567
1761413736259261700,1.09726171875,-0.1696382462978363,-0.10015473514795303,-0.019609063863754272
1761413736269274400,1.1072744140625,-0.15951156616210938,-0.0482097789645195,0.006871279329061508
1761413736279287600,1.11728759765625,-0.13812996447086334,-0.004553318955004215,0.040236879140138626
1761413736289300500,1.127300537109375,-0.12295901030302048,0.02866854891180992,0.076695017516613
1761413736299313700,1.137313720703125,-0.1179051324725151,0.04625526815652847,0.10499483346939087
1761413736309327600,1.14732763671875,-0.1210324838757515,0.0460083931684494,0.12320312857627869
1761413736319340500,1.157340576171875,-0.12831245362758636,0.02558065764605999,0.13483847677707672
1761413736329353500,1.167353515625,-0.13326913118362427,-0.0008277799934148788,0.14159543812274933
1761413736339366400,1.177366455078125,-0.14029043912887573,-0.03690708428621292,0.14548954367637634
1761413736349379600,1.187379638671875,-0.15553517639636993,-0.07939141988754272,0.14090438187122345
1761413736359393500,1.1973935546875,-0.1699497103691101,-0.11704371869564056,0.12323877215385437
1761413736369406500,1.207406494140625,-0.17612025141716003,-0.14233814179897308,0.10974054038524628
1761413736379419600,1.217419677734375,-0.18156565725803375,-0.16448794305324554,0.08951782435178757
1761413736389432300,1.227432373046875,-0.18568477034568787,-0.19329829514026642,0.06679946184158325
1761413736399445500,1.237445556640625,-0.18716762959957123,-0.2393401563167572,0.05114269629120827
1761413736409458400,1.24745849609375,-0.18632872402668,-0.27307069301605225,0.0477285236120224
1761413736419472400,1.257472412109375,-0.19972722232341766,-0.3021925687789917,0.04633400961756706
1761413736429485600,1.267485595703125,-0.20946533977985382,-0.3192296028137207,0.05058708041906357
1761413736439498500,1.27749853515625,-0.21887898445129395,-0.31672027707099915,0.0551125667989254
1761413736449511400,1.287511474609375,-0.2146293818950653,-0.29790931940078735,0.07467322051525116
1761413736459524400,1.2975244140625,-0.20959745347499847,-0.2605874538421631,0.09796594083309174
1761413736469538600,1.30753857421875,-0.18842852115631104,-0.22376765310764313,0.11839025467634201
1761413736479551500,1.317551513671875,-0.16904132068157196,-0.18986478447914124,0.14001230895519257
1761413736489564400,1.327564453125,-0.14189784228801727,-0.18011894822120667,0.1437348872423172
1761413736499577600,1.33757763671875,-0.11942389607429504,-0.20248112082481384,0.14380869269371033
1761413736509590500,1.347590576171875,-0.10583166033029556,-0.23859332501888275,0.13394302129745483
1761413736519603500,1.357603515625,-0.10299523174762726,-0.2773791551589966,0.13264314830303192
1761413736529617700,1.36761767578125,-0.11284653097391129,-0.3109799921512604,0.13071581721305847
1761413736539630300,1.37763037109375,-0.12895411252975464,-0.3086254298686981,0.13710452616214752
1761413736549643500,1.3876435546875,-0.14036309719085693,-0.2853355407714844,0.14053919911384583
1761413736559656700,1.39765673828125,-0.14461062848567963,-0.270849347114563,0.13027246296405792
1761413736569669400,1.40766943359375,-0.15022963285446167,-0.2622454762458801,0.10832028836011887
1761413736579682600,1.4176826171875,-0.15824806690216064,-0.26327112317085266,0.07014636695384979
1761413736589696500,1.427696533203125,-0.1664162427186966,-0.27585217356681824,0.022272583097219467
1761413736599709400,1.43770947265625,-0.16863907873630524,-0.27891114354133606,-0.021411431953310966
1761413736609722600,1.44772265625,-0.16858261823654175,-0.2668134570121765,-0.049555454403162
1761413736619735600,1.457735595703125,-0.16129787266254425,-0.2452378273010254,-0.06521711498498917
1761413736629748500,1.46774853515625,-0.14491942524909973,-0.2132420837879181,-0.062486834824085236
1761413736639762400,1.477762451171875,-0.13023896515369415,-0.15153273940086365,-0.04903458431363106
1761413736649775600,1.487775634765625,-0.10889504849910736,-0.09341111779212952,-0.039277829229831696
1761413736659788500,1.49778857421875,-0.07563798874616623,-0.03854575380682945,-0.030602380633354187
1761413736669801500,1.507801513671875,-0.04989640787243843,0.012126745656132698,-0.02292368747293949
1761413736679814700,1.517814697265625,-0.028755977749824524,0.044551730155944824,-0.028240740299224854
1761413736689827300,1.527827392578125,-0.019985921680927277,0.052443474531173706,-0.0392470508813858
1761413736699841500,1.537841552734375,-0.01877410151064396,0.057827018201351166,-0.05031820014119148
1761413736709854700,1.547854736328125,-0.022544337436556816,0.0587383508682251,-0.054130248725414276
1761413736719867400,1.557867431640625,-0.020347436890006065,0.07595498859882355,-0.05945013836026192
1761413736729880600,1.567880615234375,-0.011416259221732616,0.09484425187110901,-0.05316880717873573
1761413736739893500,1.5778935546875,-0.0008442976977676153,0.11779065430164337,-0.04712577909231186
1761413736749906400,1.587906494140625,0.011946598999202251,0.14080221951007843,-0.04054670408368111
1761413736759920600,1.597920654296875,0.02986779622733593,0.15095092356204987,-0.028979847207665443
1761413736769933600,1.60793359375,0.04272766783833504,0.14403149485588074,-0.022309960797429085
1761413736779946500,1.617946533203125,0.05039536952972412,0.12499640136957169,-0.015668395906686783
1761413736789959400,1.62795947265625,0.051745060831308365,0.11325958371162415,-0.015575984492897987
1761413736799972600,1.63797265625,0.052065543830394745,0.1035977229475975,-0.019955309107899666
1761413736809986000,1.647986083984375,0.05388687923550606,0.0990985780954361,-0.024453386664390564
1761413736819999000,1.6579990234375,0.05744590610265732,0.09291992336511612,-0.025309696793556213
1761413736830012200,1.66801220703125,0.0546509213745594,0.08187632262706757,-0.025813300162553787
1761413736840024800,1.67802490234375,0.05491209402680397,0.06384756416082382,-0.01920613832771778
1761413736850038000,1.6880380859375,0.04426237940788269,0.04918419197201729,-0.012414013035595417
1761413736860051200,1.69805126953125,0.030804380774497986,0.04088350757956505,-0.004292333498597145
1761413736870065000,1.70806494140625,0.010782468132674694,0.023900795727968216,0.007446347735822201
1761413736880078000,1.718078125,-0.019864963367581367,0.020708490163087845,0.020422659814357758
1761413736890091000,1.728091064453125,-0.049401815980672836,0.014503326267004013,0.040865350514650345
1761413736900104000,1.73810400390625,-0.07205726206302643,0.00550594599917531,0.061440709978342056
1761413736910117000,1.7481171875,-0.08074795454740524,0.00005658622831106186,0.07387420535087585
1761413736920130000,1.758130126953125,-0.08041398972272873,-0.004431853070855141,0.07647563517093658
1761413736930144000,1.76814404296875,-0.0715256929397583,-0.012056216597557068,0.07143852859735489
1761413736940157000,1.778156982421875,-0.06393902003765106,-0.027697289362549782,0.05751161277294159
1761413736950170000,1.788170166015625,-0.05412899702787399,-0.05123137682676315,0.03364143148064613
1761413736960183000,1.79818310546875,-0.053462136536836624,-0.07301438599824905,0.003962155431509018
1761413736970196000,1.808196044921875,-0.07019637525081635,-0.107322558760643,-0.02328677661716938
1761413736980210200,1.818210205078125,-0.09871486574411392,-0.1475875824689865,-0.0545915924012661
1761413736990222800,1.828222900390625,-0.1397421956062317,-0.17532840371131897,-0.08097819238901138
1761413737000236000,1.838236083984375,-0.17119714617729187,-0.20001748204231262,-0.09750644117593765
1761413737010249200,1.848249267578125,-0.20312657952308655,-0.15565933287143707,-0.10930557548999786
1761413737020262000,1.858261962890625,-0.21736539900302887,-0.08080621063709259,-0.11517396569252014
1761413737030275000,1.868275146484375,-0.20052702724933624,0.03173578158020973,-0.1174302026629448
1761413737040289300,1.878289306640625,-0.1392255425453186,0.14383679628372192,-0.10356233268976212
1761413737050302000,1.888302001953125,-0.06923473626375198,0.15448971092700958,-0.10214712470769882
1761413737060315100,1.898315185546875,-0.05311060696840286,0.11188537627458572,-0.11239619553089142
1761413737070328000,1.908328125,-0.07899360358715057,0.08819682151079178,-0.11504311114549637
1761413737080341000,1.918341064453125,-0.10681620240211487,0.07766283303499222,-0.10603028535842896
1761413737090354000,1.92835400390625,-0.12292246520519257,0.08036194741725922,-0.08368236571550369
1761413737100368100,1.9383681640625,-0.1363355666399002,0.08650775998830795,-0.057467684149742126
1761413737110381000,1.948381103515625,-0.14749473333358765,0.0924476757645607,-0.037066005170345306
1761413737120394000,1.95839404296875,-0.14918382465839386,0.12101074308156967,-0.005380012094974518
1761413737130407200,1.9684072265625,-0.14837369322776794,0.15900073945522308,0.03687450289726257
1761413737140419800,1.978419921875,-0.13536164164543152,0.1958789825439453,0.07382483035326004
1761413737150433000,1.98843310546875,-0.10867755860090256,0.2163373827934265,0.10382001101970673
1761413737160447200,1.998447265625,-0.0729624330997467,0.22829025983810425,0.12003923952579498
1761413737170460000,2.0084599609375,-0.03622705489397049,0.24154800176620483,0.12130876630544662
1761413737180473000,2.01847314453125,-0.009524861350655556,0.2440652996301651,0.10972592979669571
1761413737190486000,2.028486083984375,0.012931711971759796,0.2402210384607315,0.10128185153007507
1761413737200499000,2.0384990234375,0.04126177355647087,0.2525382339954376,0.11700538545846939
1761413737210513200,2.04851318359375,0.06311700493097305,0.28402000665664673,0.1460556834936142
1761413737220526000,2.058526123046875,0.07474017888307571,0.3121548891067505,0.18618296086788177
1761413737230539000,2.0685390625,0.08384019881486893,0.31583723425865173,0.22213084995746613
1761413737240552000,2.078552001953125,0.08654728531837463,0.28178274631500244,0.24987740814685822
1761413737250565000,2.088565185546875,0.08114133030176163,0.21686899662017822,0.2672281861305237
1761413737260578000,2.098578125,0.06760874390602112,0.12902942299842834,0.274156391620636
1761413737270592000,2.108592041015625,0.04853065684437752,0.041510485112667084,0.2761039733886719
1761413737280605200,2.118605224609375,0.025918258354067802,-0.04546535015106201,0.2767171263694763
1761413737290617900,2.128617919921875,-0.0013807411305606365,-0.12618710100650787,0.273113876581192
1761413737300631000,2.138631103515625,-0.03376602753996849,-0.1723272055387497,0.27215102314949036
1761413737310644200,2.148644287109375,-0.06757858395576477,-0.1950402408838272,0.2596741020679474
1761413737320657000,2.158656982421875,-0.09167453646659851,-0.18905992805957794,0.2419588565826416
1761413737330671000,2.168671142578125,-0.11180057376623154,-0.14984115958213806,0.2239590883255005
1761413737340684000,2.17868408203125,-0.13245712220668793,-0.11036332696676254,0.18914218246936798
1761413737350697000,2.188697021484375,-0.14480061829090118,-0.09038536250591278,0.14621523022651672
1761413737360710100,2.198710205078125,-0.15213894844055176,-0.06553107500076294,0.10640661418437958
1761413737370723000,2.20872314453125,-0.15856461226940155,-0.038964979350566864,0.07042251527309418
1761413737380737000,2.218737060546875,-0.16850970685482025,-0.04530680552124977,0.024165013805031776
1761413737390750000,2.22875,-0.17117339372634888,-0.0953473299741745,-0.029524846002459526
1761413737400763100,2.23876318359375,-0.16622698307037354,-0.12990663945674896,-0.06089169159531593
1761413737410776000,2.248776123046875,-0.16006256639957428,-0.1276243031024933,-0.07357285916805267
1761413737420789000,2.2587890625,-0.15817545354366302,-0.12070362269878387,-0.07333695888519287
1761413737430802200,2.26880224609375,-0.15033218264579773,-0.10038530081510544,-0.056751593947410583
1761413737440816000,2.278816162109375,-0.14558036625385284,-0.038791753351688385,-0.02005481719970703
1761413737450829000,2.2888291015625,-0.13894295692443848,0.012139871716499329,0.006627659313380718
1761413737460842200,2.29884228515625,-0.12586498260498047,0.05427001416683197,0.024309983476996422
1761413737470855000,2.30885498046875,-0.11303438991308212,0.08244519680738449,0.027885809540748596
1761413737480868000,2.3188681640625,-0.10818976163864136,0.1279425323009491,0.022261839359998703
1761413737490881000,2.328881103515625,-0.09790303558111191,0.16564065217971802,-0.002883994486182928
1761413737500895000,2.33889501953125,-0.07515675574541092,0.19113750755786896,-0.03595932945609093
1761413737510908200,2.348908203125,-0.0527622327208519,0.2249860167503357,-0.07224196940660477
1761413737520921000,2.358921142578125,-0.03069969452917576,0.24273958802223206,-0.11298750340938568
1761413737530934000,2.36893408203125,-0.010564068332314491,0.2593284249305725,-0.15036842226982117
1761413737540947000,2.378947021484375,0.00447855144739151,0.27098971605300903,-0.1780252456665039
1761413737550960000,2.388960205078125,0.01435009017586708,0.28432655334472656,-0.19656512141227722
1761413737560974000,2.39897412109375,0.01135259959846735,0.27585574984550476,-0.21500402688980103
1761413737570987000,2.408987060546875,-0.005099078174680471,0.2538873255252838,-0.23179152607917786
1761413737581000200,2.419000244140625,-0.03056095354259014,0.22529636323451996,-0.2553609311580658
1761413737591012900,2.429012939453125,-0.07013419270515442,0.1870690882205963,-0.2879830598831177
1761413737601026000,2.439026123046875,-0.10590899735689163,0.13318121433258057,-0.32199761271476746
1761413737611040000,2.4490400390625,-0.13462159037590027,0.0810927078127861,-0.3424866497516632
1761413737621053000,2.459052978515625,-0.15186807513237,0.0554007962346077,-0.34735384583473206
1761413737631066000,2.469066162109375,-0.16472582519054413,0.028381159529089928,-0.3420855700969696
1761413737641079000,2.4790791015625,-0.17634360492229462,0.0029458412900567055,-0.3343408405780792
1761413737651092000,2.489092041015625,-0.17910081148147583,-0.028656654059886932,-0.323844850063324
1761413737661105200,2.499105224609375,-0.1740294247865677,-0.05684792250394821,-0.3110084533691406
1761413737671118800,2.509118896484375,-0.15807655453681946,-0.077662393450737,-0.29423531889915466
1761413737681132000,2.519132080078125,-0.14580480754375458,-0.08862078934907913,-0.28142252564430237
1761413737691145000,2.52914501953125,-0.13279126584529877,-0.08202280104160309,-0.2687184512615204
1761413737701158100,2.539158203125,-0.12136822193861008,-0.07160802185535431,-0.26501449942588806
1761413737711171000,2.549171142578125,-0.10421480238437653,-0.06439058482646942,-0.2645851969718933
1761413737721184000,2.55918408203125,-0.08745981752872467,-0.06046654284000397,-0.269062876701355
1761413737731198000,2.569197998046875,-0.06582615524530411,-0.05429866164922714,-0.27383899688720703
1761413737741211000,2.5792109375,-0.04601534828543663,-0.062405623495578766,-0.27580612897872925
1761413737751224000,2.58922412109375,-0.013737838715314865,-0.08711256831884384,-0.27433526515960693
1761413737761237200,2.5992373046875,0.008617186918854713,-0.10611418634653091,-0.26231470704078674
1761413737771250000,2.60925,0.02069355733692646,-0.11185010522603989,-0.24051271378993988
1761413737781263000,2.61926318359375,0.025664417073130608,-0.13948528468608856,-0.220092311501503
1761413737791277000,2.629277099609375,0.03321687504649162,-0.20208315551280975,-0.20143499970436096
1761413737801290000,2.6392900390625,0.037322305142879486,-0.25084972381591797,-0.164861261844635
1761413737811303200,2.64930322265625,0.018773386254906654,-0.27711325883865356,-0.11548172682523727
1761413737821316400,2.65931640625,-0.008302695117890835,-0.26649731397628784,-0.06257025897502899
1761413737831329000,2.6693291015625,-0.016394710168242455,-0.22533391416072845,-0.011258603073656559
1761413737841342200,2.67934228515625,-0.0023288356605917215,-0.16074831783771515,0.049530792981386185
1761413737851356200,2.689356201171875,0.021169299259781837,-0.06720185279846191,0.09515979886054993
1761413737861369000,2.699369140625,0.04462694376707077,0.023485634475946426,0.1306583434343338
1761413737871382300,2.70938232421875,0.08848654478788376,0.12514834105968475,0.14981579780578613
1761413737881395200,2.719395263671875,0.15045587718486786,0.22554008662700653,0.1555795818567276
1761413737891408100,2.729408203125,0.2283080667257309,0.21851199865341187,0.12741611897945404
1761413737901421000,2.739421142578125,0.27894842624664307,0.1503252387046814,0.06371083855628967
1761413737911435000,2.74943505859375,0.2847152352333069,0.06133277714252472,-0.01747376285493374
1761413737921448200,2.7594482421875,0.26343661546707153,-0.06632672250270844,-0.09768083691596985
1761413737931461000,2.769461181640625,0.219843327999115,-0.2033626139163971,-0.16648812592029572
1761413737941474300,2.779474365234375,0.1632688045501709,-0.31615424156188965,-0.19868405163288116
1761413737951487000,2.789487060546875,0.09185375273227692,-0.404671311378479,-0.1890532523393631
1761413737961501200,2.799501220703125,0.010650498792529106,-0.4638763666152954,-0.14594686031341553
1761413737971514000,2.80951416015625,-0.06761874258518219,-0.4943791627883911,-0.08314632624387741
1761413737981527000,2.819527099609375,-0.12322714179754257,-0.4948926270008087,-0.025682762265205383
1761413737991540200,2.829540283203125,-0.14546959102153778,-0.4500575065612793,0.04109067842364311
1761413738001553200,2.83955322265625,-0.13746803998947144,-0.3667873740196228,0.11085344105958939
1761413738011566000,2.849566162109375,-0.11718140542507172,-0.25395667552948,0.18652023375034332
1761413738021580300,2.859580322265625,-0.08930117636919022,-0.10545722395181656,0.2641136944293976
1761413738031593000,2.869593017578125,-0.04807836562395096,0.0519435815513134,0.32392618060112
1761413738041606100,2.879606201171875,-0.005679307505488396,0.16401676833629608,0.3626714050769806
1761413738051619300,2.889619384765625,0.035124316811561584,0.21922649443149567,0.37249046564102173
1761413738061632300,2.89963232421875,0.06539248675107956,0.22998471558094025,0.3724772334098816
1761413738071645200,2.909645263671875,0.07902947068214417,0.22384372353553772,0.3675258755683899
1761413738081659100,2.9196591796875,0.08988498151302338,0.2132311314344406,0.3703029453754425
1761413738091672000,2.929672119140625,0.09082800894975662,0.19797362387180328,0.3760993182659149
1761413738101685200,2.939685302734375,0.08286458253860474,0.16681918501853943,0.38231760263442993
1761413738111698200,2.9496982421875,0.06590104848146439,0.10968372970819473,0.386836975812912
1761413738121711400,2.95971142578125,0.03773265704512596,0.029101263731718063,0.3854783773422241
1761413738131724000,2.96972412109375,0.0006225714460015297,-0.04691014811396599,0.37316951155662537
1761413738141738200,2.97973828125,-0.04314224049448967,-0.10340523719787598,0.3508813977241516
1761413738151751200,2.989751220703125,-0.08038228750228882,-0.15829911828041077,0.3269481062889099
1761413738161764000,2.99976416015625,-0.10273382067680359,-0.1752859503030777,0.2992483377456665
1761413738171777300,3.00977734375,-0.12139724940061569,-0.17971478402614594,0.2754029333591461
1761413738181790200,3.019790283203125,-0.14083190262317657,-0.1683807224035263,0.2388424128293991
1761413738191803100,3.02980322265625,-0.153427854180336,-0.15397460758686066,0.2002905011177063
1761413738201817300,3.0398173828125,-0.1489412784576416,-0.1404782086610794,0.14953921735286713
1761413738211830000,3.049830078125,-0.14376568794250488,-0.11128251999616623,0.09725071489810944
1761413738221843200,3.05984326171875,-0.13753314316272736,-0.09000156819820404,0.03483070805668831
1761413738231856000,3.069856201171875,-0.1196947693824768,-0.06599956750869751,-0.014728056266903877
1761413738241869300,3.079869384765625,-0.10835330188274384,-0.034171126782894135,-0.05981609225273132
1761413738251883300,3.08988330078125,-0.10670188069343567,-0.03431200608611107,-0.11146064102649689
1761413738261896200,3.099896240234375,-0.12113622575998306,-0.05836926028132439,-0.1627766638994217
1761413738271909000,3.1099091796875,-0.1353210210800171,-0.08522084355354309,-0.2123817652463913
1761413738281922000,3.119922119140625,-0.15510137379169464,-0.11979974061250687,-0.25434431433677673
1761413738291935200,3.129935302734375,-0.17591583728790283,-0.16424895823001862,-0.29453033208847046
1761413738301948200,3.1399482421875,-0.19149529933929443,-0.19558319449424744,-0.30824512243270874
1761413738311961000,3.149961181640625,-0.20364516973495483,-0.19817206263542175,-0.29767850041389465
1761413738321975300,3.159975341796875,-0.2118600755929947,-0.1843755543231964,-0.2761174142360687
1761413738331988200,3.16998828125,-0.21002089977264404,-0.14231359958648682,-0.23404242098331451
1761413738342001200,3.180001220703125,-0.19793815910816193,-0.08568405359983444,-0.1911531537771225
1761413738352014000,3.19001416015625,-0.1811128407716751,-0.004843801725655794,-0.14216004312038422
1761413738362027300,3.20002734375,-0.15949378907680511,0.08615945279598236,-0.10188581794500351
1761413738372041200,3.210041259765625,-0.14360696077346802,0.15804004669189453,-0.07614690065383911
1761413738382054100,3.22005419921875,-0.1307009905576706,0.20024779438972473,-0.06442516297101974
1761413738392067000,3.230067138671875,-0.12346172332763672,0.22520826756954193,-0.06388187408447266
1761413738402080000,3.240080078125,-0.116840660572052,0.23868896067142487,-0.061524856835603714
1761413738412093200,3.25009326171875,-0.11438309401273727,0.23352137207984924,-0.05637004226446152
1761413738422106400,3.2601064453125,-0.11828941851854324,0.21514824032783508,-0.050758764147758484
1761413738432120000,3.2701201171875,-0.1278139352798462,0.19770559668540955,-0.033031165599823
1761413738442133200,3.28013330078125,-0.13683883845806122,0.17468006908893585,-0.010164576582610607
1761413738452146200,3.290146240234375,-0.15005822479724884,0.14307235181331635,0.014186834916472435
1761413738462159000,3.3001591796875,-0.16719667613506317,0.09423534572124481,0.038178976625204086
1761413738472172300,3.31017236328125,-0.18802154064178467,0.037928394973278046,0.06331309676170349
1761413738482185200,3.320185302734375,-0.21475806832313538,-0.02552802301943302,0.07793016731739044
1761413738492199200,3.33019921875,-0.24216333031654358,-0.08194496482610703,0.09030082076787949
1761413738502212400,3.34021240234375,-0.2679812014102936,-0.14063915610313416,0.0924232229590416
1761413738512225000,3.35022509765625,-0.29722270369529724,-0.19407841563224792,0.0926530584692955
1761413738522238200,3.36023828125,-0.32440492510795593,-0.23800313472747803,0.08617248386144638
1761413738532251100,3.370251220703125,-0.3466476500034332,-0.2695634663105011,0.08546328544616699
1761413738542264300,3.380264404296875,-0.36513543128967285,-0.280325710773468,0.09236057847738266
1761413738552278300,3.3902783203125,-0.3751196265220642,-0.2745727300643921,0.10569342225790024
1761413738562291200,3.400291259765625,-0.3913070857524872,-0.26519936323165894,0.12721773982048035
1761413738572304100,3.41030419921875,-0.4072439670562744,-0.24703101813793182,0.1460052728652954
1761413738582317000,3.420317138671875,-0.42649197578430176,-0.2099996656179428,0.16930751502513885
1761413738592330200,3.430330322265625,-0.43536803126335144,-0.1435881406068802,0.1969764232635498
1761413738602343200,3.44034326171875,-0.4102558493614197,-0.03961756452918053,0.23231929540634155
1761413738612357000,3.450357177734375,-0.3527502119541168,0.06126377731561661,0.27057987451553345
1761413738622370300,3.460370361328125,-0.29331690073013306,0.06748799234628677,0.2805856764316559
1761413738632383200,3.47038330078125,-0.29959556460380554,-0.005575037095695734,0.23345863819122314
1761413738642396200,3.480396240234375,-0.36256641149520874,-0.11608655005693436,0.142360657453537
1761413738652409000,3.4904091796875,-0.4363192021846771,-0.22268356382846832,0.04681123420596123
1761413738662422300,3.50042236328125,-0.5077710151672363,-0.30745241045951843,-0.05173947289586067
1761413738672436200,3.510436279296875,-0.5664170384407043,-0.33923643827438354,-0.13470520079135895
1761413738682449200,3.52044921875,-0.5916473865509033,-0.30462878942489624,-0.19505132734775543
1761413738692462000,3.530462158203125,-0.6000925898551941,-0.22438481450080872,-0.24419677257537842
1761413738702475000,3.54047509765625,-0.6021280288696289,-0.12195722758769989,-0.2828102111816406
1761413738712488200,3.55048828125,-0.5977537631988525,-0.019045760855078697,-0.3175812363624573
1761413738722502100,3.560502197265625,-0.5811993479728699,0.08467140793800354,-0.343449205160141
1761413738732515000,3.57051513671875,-0.5508797764778137,0.17545829713344574,-0.3602372407913208
1761413738742528300,3.5805283203125,-0.5170376896858215,0.24453800916671753,-0.36316558718681335
1761413738752541200,3.590541259765625,-0.48967909812927246,0.2983229160308838,-0.34212422370910645
1761413738762554000,3.60055419921875,-0.4712097644805908,0.3443550765514374,-0.3029058277606964
1761413738772567300,3.6105673828125,-0.46534523367881775,0.372438907623291,-0.24682310223579407
1761413738782581000,3.6205810546875,-0.4658472239971161,0.3767598867416382,-0.1824537068605423
1761413738792594200,3.63059423828125,-0.45886123180389404,0.37152013182640076,-0.11775540560483932
1761413738802607000,3.640607177734375,-0.4474157392978668,0.3702409267425537,-0.03741993382573128
1761413738812620000,3.6506201171875,-0.42673948407173157,0.3741866648197174,0.03742155060172081
1761413738822633000,3.660633056640625,-0.40564003586769104,0.36886319518089294,0.109527587890625
1761413738832646000,3.67064599609375,-0.3832487165927887,0.3470305800437927,0.1581534445285797
1761413738842659800,3.680659912109375,-0.36563044786453247,0.3081604838371277,0.19531145691871643
1761413738852673000,3.690673095703125,-0.3435240685939789,0.259647011756897,0.21525560319423676
1761413738862686000,3.70068603515625,-0.3236519694328308,0.1618114709854126,0.22146297991275787
1761413738872699100,3.71069921875,-0.30288705229759216,0.0506785586476326,0.21233206987380981
1761413738882712000,3.720712158203125,-0.2866368293762207,-0.06489915400743484,0.19678279757499695
1761413738892725000,3.73072509765625,-0.28080129623413086,-0.15928691625595093,0.16943080723285675
1761413738902738200,3.74073828125,-0.2797476351261139,-0.23162557184696198,0.1260909140110016
1761413738912751900,3.750751953125,-0.286352276802063,-0.28425467014312744,0.07890636473894119
1761413738922765000,3.76076513671875,-0.2946834862232208,-0.3211353123188019,0.028361858800053596
1761413738932778200,3.7707783203125,-0.31455570459365845,-0.32536014914512634,-0.027741091325879097
1761413738942791000,3.780791015625,-0.33043089509010315,-0.31399619579315186,-0.07928889989852905
1761413738952804000,3.79080419921875,-0.3514541685581207,-0.28504231572151184,-0.12976831197738647
1761413738962817800,3.80081787109375,-0.35714760422706604,-0.24107633531093597,-0.18177103996276855
1761413738972831000,3.8108310546875,-0.34411144256591797,-0.19262917339801788,-0.22114773094654083
1761413738982844200,3.82084423828125,-0.3198513984680176,-0.12376832216978073,-0.24714039266109467
1761413738992857000,3.830857177734375,-0.2882367670536041,-0.061016783118247986,-0.2586391270160675
1761413739002870000,3.8408701171875,-0.2582661509513855,-0.00634392723441124,-0.25466829538345337
1761413739012883000,3.850883056640625,-0.2309282422065735,0.034425873309373856,-0.23913486301898956
1761413739022897000,3.86089697265625,-0.20459061861038208,0.060895275324583054,-0.20301182568073273
1761413739032910000,3.87091015625,-0.19230811297893524,0.07616131007671356,-0.16181644797325134
1761413739042923000,3.880923095703125,-0.1871168166399002,0.07718582451343536,-0.11784205585718155
1761413739052936200,3.890936279296875,-0.18015530705451965,0.07330693304538727,-0.07769383490085602
1761413739062948900,3.900948974609375,-0.18124884366989136,0.05768698453903198,-0.05728944018483162
1761413739072962000,3.910962158203125,-0.17995667457580566,0.041996706277132034,-0.0490376353263855
1761413739082976000,3.92097607421875,-0.1660672128200531,0.03462759405374527,-0.04500417411327362
1761413739092989000,3.930989013671875,-0.15537089109420776,0.02482636459171772,-0.04573095217347145
1761413739103002000,3.941002197265625,-0.14993900060653687,0.009724711999297142,-0.058500025421381
1761413739113015000,3.95101513671875,-0.151047945022583,0.001459857914596796,-0.07892274111509323
1761413739123028000,3.961028076171875,-0.1531321108341217,-0.014214838854968548,-0.10625120252370834
1761413739133041000,3.971041015625,-0.15317019820213318,-0.03926719352602959,-0.13166175782680511
1761413739143054800,3.981054931640625,-0.1555989533662796,-0.06167425960302353,-0.1582619994878769
1761413739153068000,3.991068115234375,-0.17179124057292938,-0.0904901921749115,-0.17933878302574158
1761413739163081000,4.0010810546875,-0.1835423707962036,-0.09237581491470337,-0.20351381599903107
1761413739173094100,4.01109423828125,-0.18407472968101501,-0.07300984114408493,-0.2279544472694397
1761413739183106800,4.02110693359375,-0.17163793742656708,-0.046655911952257156,-0.2615007162094116
1761413739193120000,4.0311201171875,-0.14487183094024658,-0.022389989346265793,-0.3033349812030792
1761413739203134000,4.041134033203125,-0.11344567686319351,-0.004407429601997137,-0.3386862576007843
1761413739213147000,4.05114697265625,-0.08436475694179535,0.0018800273537635803,-0.3712945282459259
1761413739223160000,4.06116015625,-0.06451428681612015,0.0009270445443689823,-0.3884398937225342
1761413739233173000,4.071173095703125,-0.05194096639752388,-0.003201387356966734,-0.38664597272872925
1761413739243186000,4.08118603515625,-0.04245232790708542,0.00035271234810352325,-0.3667156398296356
1761413739253199000,4.09119921875,-0.032149359583854675,0.007076927460730076,-0.3306226134300232
1761413739263212800,4.101212890625,-0.01977132260799408,0.022638944908976555,-0.29328784346580505
1761413739273226000,4.11122607421875,0.004431485664099455,0.04473545774817467,-0.24486464262008667
1761413739283239000,4.121239013671875,0.036689892411231995,0.0639154464006424,-0.18575036525726318
1761413739293252000,4.131252197265625,0.06572474539279938,0.08357995748519897,-0.12492217868566513
1761413739303265000,4.14126513671875,0.09415783733129501,0.09261973202228546,-0.05875585973262787
1761413739313278000,4.15127783203125,0.12178999185562134,0.08988466113805771,0.006362426094710827
1761413739323292000,4.1612919921875,0.1486007124185562,0.05745701491832733,0.05500391498208046
1761413739333305000,4.17130517578125,0.1692412793636322,0.011327600106596947,0.10236717015504837
1761413739343318000,4.181318115234375,0.1814289689064026,-0.04674316197633743,0.13697494566440582
1761413739353331200,4.191331298828125,0.19183100759983063,-0.11394377052783966,0.17403016984462738
1761413739363344000,4.20134375,0.2009131759405136,-0.1789843589067459,0.21072235703468323
1761413739373357000,4.211357177734375,0.21328729391098022,-0.22516970336437225,0.24960505962371826
1761413739383371000,4.22137109375,0.22004754841327667,-0.24618713557720184,0.29611673951148987
1761413739393384000,4.231384033203125,0.23809552192687988,-0.20209051668643951,0.3396780788898468
1761413739403397000,4.241397216796875,0.28954067826271057,-0.08794554322957993,0.37929654121398926
1761413739413410000,4.25141015625,0.36445966362953186,-0.0014223700854927301,0.39341795444488525
1761413739423423000,4.261423095703125,0.4152551293373108,-0.03905006870627403,0.34675607085227966
1761413739433436000,4.271435791015625,0.41364791989326477,-0.14500153064727783,0.2656838595867157
1761413739443449900,4.281449951171875,0.37806615233421326,-0.2949664294719696,0.1603381633758545
1761413739453463000,4.291463134765625,0.32900941371917725,-0.4559444189071655,0.052159495651721954
1761413739463476000,4.30147607421875,0.27111294865608215,-0.5734063386917114,-0.03339686617255211
1761413739473489200,4.3114892578125,0.22878198325634003,-0.6426154971122742,-0.0664198026061058
1761413739483501800,4.321501708984375,0.1889321357011795,-0.6401840448379517,-0.03834589198231697
1761413739493515000,4.331514892578125,0.15283352136611938,-0.5617422461509705,0.04218596965074539
1761413739503529000,4.341529052734375,0.13287849724292755,-0.4240339398384094,0.1593972146511078
1761413739513542000,4.3515419921875,0.1283327341079712,-0.2290564477443695,0.2854110598564148
1761413739523555000,4.36155517578125,0.15399068593978882,-0.04330821335315704,0.39113345742225647
1761413739533568000,4.371568115234375,0.19704042375087738,0.066635861992836,0.45308631658554077
1761413739543581000,4.381580810546875,0.23440894484519958,0.12761573493480682,0.4688645005226135
1761413739553594000,4.391593994140625,0.25907620787620544,0.15654431283473969,0.4508231580257416
1761413739563607800,4.40160791015625,0.2760868966579437,0.14826135337352753,0.4278278350830078
1761413739573621000,4.41162109375,0.27886003255844116,0.09167743474245071,0.3973434269428253
1761413739583634000,4.421634033203125,0.27115997672080994,0.010755062103271484,0.38379406929016113
1761413739593647000,4.431647216796875,0.243864968419075,-0.0631021186709404,0.38303080201148987
1761413739603660000,4.441659912109375,0.22071583569049835,-0.11553715169429779,0.40617239475250244
1761413739613673000,4.4516728515625,0.19664324820041656,-0.14931295812129974,0.44086140394210815
1761413739623687000,4.46168701171875,0.17457595467567444,-0.16639676690101624,0.4775162637233734
1761413739633699800,4.471699951171875,0.15924040973186493,-0.15341944992542267,0.5157145261764526
1761413739643713000,4.481713134765625,0.14917245507240295,-0.12059658765792847,0.5414931774139404
1761413739653726200,4.491726318359375,0.15012159943580627,-0.07633565366268158,0.5511828660964966
1761413739663739000,4.50173876953125,0.15479247272014618,-0.030942445620894432,0.5459166765213013
1761413739673752000,4.511751953125,0.16055288910865784,-0.005602734163403511,0.5243522524833679
1761413739683766000,4.52176611328125,0.16373410820960999,-0.0019726145546883345,0.48964765667915344
1761413739693779000,4.531779052734375,0.166459858417511,-0.011772780679166317,0.44942834973335266
1761413739703792000,4.541792236328125,0.16616779565811157,-0.04683547466993332,0.4025435447692871
1761413739713805000,4.55180517578125,0.16472463309764862,-0.10158181190490723,0.35796329379081726
1761413739723818000,4.56181787109375,0.1557202786207199,-0.15694211423397064,0.3129056394100189
1761413739733831000,4.571830810546875,0.1332373321056366,-0.20343931019306183,0.27750182151794434
1761413739743844900,4.581844970703125,0.10137227177619934,-0.21976256370544434,0.24983437359333038
1761413739753858000,4.591858154296875,0.0653064101934433,-0.20362460613250732,0.22700603306293488
1761413739763871000,4.60187109375,0.03181172162294388,-0.17669007182121277,0.1986268311738968
1761413739773884200,4.61188427734375,0.00932292453944683,-0.1419171839952469,0.16732217371463776
1761413739783896800,4.621896728515625,-0.0029483488760888577,-0.11841507256031036,0.12904103100299835
1761413739793910000,4.631909912109375,-0.006426170468330383,-0.11171349138021469,0.07964684069156647
1761413739803924000,4.641924072265625,-0.009732822887599468,-0.11549294739961624,0.032232098281383514
1761413739813937200,4.651937255859375,-0.018692497164011,-0.12683482468128204,-0.020050283521413803
1761413739823950000,4.6619501953125,-0.026600344106554985,-0.14852966368198395,-0.06488841027021408
1761413739833963300,4.67196337890625,-0.03625057265162468,-0.16852468252182007,-0.09192242473363876
1761413739843976000,4.681975830078125,-0.05333110690116882,-0.16862504184246063,-0.10646209120750427
1761413739853989000,4.691989013671875,-0.06711429357528687,-0.1498657464981079,-0.10847411304712296
1761413739864003000,4.702003173828125,-0.07625515758991241,-0.11541324108839035,-0.10069654881954193
1761413739874016000,4.71201611328125,-0.08379057049751282,-0.08441831171512604,-0.10267740488052368
1761413739884029200,4.722029296875,-0.10168847441673279,-0.05862107127904892,-0.11485164612531662
1761413739894042000,4.7320419921875,-0.11983552575111389,-0.03370986506342888,-0.13706959784030914
1761413739904055000,4.742054931640625,-0.13827455043792725,-0.007567812688648701,-0.16685837507247925
1761413739914068200,4.752068115234375,-0.15526951849460602,0.014568914659321308,-0.20832592248916626
1761413739924082000,4.76208203125,-0.1645059585571289,0.018464956432580948,-0.24725210666656494
1761413739934095000,4.77209521484375,-0.166180819272995,0.0120368842035532,-0.28660884499549866
1761413739944108300,4.7821083984375,-0.16667068004608154,0.029019245877861977,-0.3155456483364105
1761413739954121200,4.792121337890625,-0.1598322093486786,0.06837011128664017,-0.3159365952014923
1761413739964134100,4.802134033203125,-0.14818938076496124,0.11974699050188065,-0.30061763525009155
1761413739974147000,4.81214697265625,-0.13994981348514557,0.17584142088890076,-0.2785080671310425
1761413739984161000,4.8221611328125,-0.12689127027988434,0.2136218249797821,-0.25135529041290283
1761413739994174200,4.83217431640625,-0.11183902621269226,0.2339458465576172,-0.22447089850902557
1761413740004187100,4.842187255859375,-0.10348659753799438,0.2245618849992752,-0.2021605223417282
1761413740014200300,4.852200439453125,-0.10743767023086548,0.21111080050468445,-0.18165390193462372
1761413740024213000,4.862212890625,-0.11388111114501953,0.18802380561828613,-0.17131377756595612
1761413740034226200,4.87222607421875,-0.11032978445291519,0.1620239019393921,-0.15909145772457123
1761413740044240100,4.882240234375,-0.1016937643289566,0.12496179342269897,-0.1383618265390396
1761413740054253000,4.892253173828125,-0.102440245449543,0.08168968558311462,-0.12096526473760605
1761413740064266200,4.902266357421875,-0.10010698437690735,0.015485531650483608,-0.0982489362359047
1761413740074279200,4.912279052734375,-0.10334645211696625,-0.03737475350499153,-0.06237802281975746
1761413740084292000,4.9222919921875,-0.10178455710411072,-0.07886285334825516,-0.016536220908164978
1761413740094305000,4.932304931640625,-0.11448623985052109,-0.10566623508930206,0.034880630671978
1761413740104319000,4.942319091796875,-0.12684214115142822,-0.11156725138425827,0.08420736342668533
1761413740114332200,4.952332275390625,-0.13081984221935272,-0.10270558297634125,0.12942038476467133
1761413740124345000,4.962344970703125,-0.13829398155212402,-0.095296211540699,0.16726405918598175
1761413740134358300,4.972358154296875,-0.1471378058195114,-0.08582814037799835,0.18987776339054108
1761413740144371000,4.982370849609375,-0.1652488112449646,-0.0679754763841629,0.2123543918132782
1761413740154384100,4.992384033203125,-0.20163452625274658,-0.03990522772073746,0.2280702292919159
1761413740164398000,5.002398193359375,-0.25557518005371094,0.008859733119606972,0.22734743356704712
1761413740174411000,5.012410888671875,-0.3233265280723572,0.03711347281932831,0.2053406685590744
1761413740184424200,5.022424072265625,-0.3906824588775635,0.025271300226449966,0.15171542763710022
1761413740194437000,5.03243701171875,-0.4603733718395233,0.00638469448313117,0.0701473280787468
1761413740204450000,5.042449951171875,-0.4956509470939636,0.04412434995174408,-0.013230911456048489
1761413740214463200,5.052463134765625,-0.48505812883377075,0.15281543135643005,-0.08237756043672562
1761413740224476200,5.06247607421875,-0.4427174925804138,0.28514552116394043,-0.13760413229465485
1761413740234490000,5.072489990234375,-0.3844776451587677,0.4135572910308838,-0.17626072466373444
1761413740244503000,5.0825029296875,-0.3013617992401123,0.5356113314628601,-0.1898323893547058
1761413740254516200,5.09251611328125,-0.212359219789505,0.5778684616088867,-0.1989782154560089
1761413740264529200,5.102529052734375,-0.17129269242286682,0.5117639899253845,-0.24096673727035522
1761413740274542000,5.1125419921875,-0.1659456044435501,0.3564140498638153,-0.30305221676826477
1761413740284555300,5.12255517578125,-0.19213299453258514,0.16407372057437897,-0.36657655239105225
1761413740294569000,5.13256884765625,-0.23810553550720215,-0.01903139054775238,-0.4010152220726013
1761413740304582100,5.14258203125,-0.28767889738082886,-0.13735932111740112,-0.3919769823551178
1761413740314595300,5.15259521484375,-0.33812767267227173,-0.16225402057170868,-0.3429633677005768
1761413740324608000,5.16260791015625,-0.37462612986564636,-0.1159876212477684,-0.26091358065605164
1761413740334621200,5.17262109375,-0.3952096998691559,-0.06665628403425217,-0.17542053759098053
1761413740344634000,5.182634033203125,-0.40375348925590515,-0.031951576471328735,-0.10083271563053131
1761413740354648000,5.19264794921875,-0.3975003957748413,-0.012914502993226051,-0.04619450494647026
1761413740364661200,5.2026611328125,-0.3788422644138336,0.0011614109389483929,-0.0202244333922863
1761413740374674200,5.212674072265625,-0.34749579429626465,0.003609389066696167,-0.009463132359087467
1761413740384687000,5.22268701171875,-0.33244049549102783,0.034912578761577606,-0.00015248660929501057
1761413740394700000,5.232699951171875,-0.3513963520526886,0.07454147934913635,0.006470262538641691
1761413740404713200,5.242713134765625,-0.3823280334472656,0.10943599045276642,0.01107222680002451
1761413740414727200,5.25272705078125,-0.4093351364135742,0.1885278820991516,0.037906769663095474
1761413740424740000,5.262739990234375,-0.44103291630744934,0.28300341963768005,0.05102379992604256
1761413740434753300,5.272753173828125,-0.4560030698776245,0.3318993151187897,0.04051922634243965
1761413740444766000,5.282765869140625,-0.4601704776287079,0.34795281291007996,0.02455764450132847
1761413740454779100,5.292779052734375,-0.4569384753704071,0.3468515872955322,-0.000020670471712946892
1761413740464792000,5.3027919921875,-0.4563060402870178,0.3322630524635315,-0.024995986372232437
1761413740474806000,5.312805908203125,-0.4598672091960907,0.31282010674476624,-0.03565661981701851
1761413740484819200,5.322819091796875,-0.45792439579963684,0.2804657220840454,-0.037394825369119644
1761413740494832000,5.33283203125,-0.4464235305786133,0.23454006016254425,-0.040465451776981354
1761413740504845000,5.342844970703125,-0.4451143741607666,0.19542737305164337,-0.016255810856819153
1761413740514858200,5.352858154296875,-0.4579457640647888,0.15221039950847626,0.005084097385406494
1761413740524871200,5.36287109375,-0.4720984399318695,0.08867036551237106,0.029121708124876022
1761413740534885000,5.372885009765625,-0.48307546973228455,0.03727801516652107,0.06347382068634033
1761413740544898000,5.38289794921875,-0.5090655088424683,-0.0002615158446133137,0.09721484780311584
1761413740554911200,5.3929111328125,-0.5529195070266724,-0.05523288622498512,0.11291631311178207
1761413740564924200,5.402924072265625,-0.6059660315513611,-0.12554356455802917,0.11050808429718018
1761413740574937000,5.41293701171875,-0.6626548767089844,-0.1935787945985794,0.0947195291519165
1761413740584950300,5.4229501953125,-0.707040011882782,-0.26741549372673035,0.06508228927850723
1761413740594964000,5.4329638671875,-0.734317421913147,-0.3423568606376648,0.031526993960142136
1761413740604977200,5.44297705078125,-0.7491496801376343,-0.39480000734329224,0.004225974436849356
1761413740614990300,5.452990234375,-0.7574379444122314,-0.43128132820129395,-0.025716211646795273
1761413740625003000,5.4630029296875,-0.7584793567657471,-0.4300074875354767,-0.05082596838474274
1761413740635016200,5.47301611328125,-0.7564223408699036,-0.39671212434768677,-0.07339119166135788
1761413740645029000,5.483029052734375,-0.7416667938232422,-0.3492948114871979,-0.09563977271318436
1761413740655043000,5.49304296875,-0.7193590998649597,-0.27024152874946594,-0.11167706549167633
1761413740665056300,5.50305615234375,-0.6880813241004944,-0.15479448437690735,-0.10363633930683136
1761413740675069200,5.513069091796875,-0.6498852372169495,-0.0386660173535347,-0.09569106251001358
1761413740685082000,5.52308203125,-0.6076820492744446,0.0489753820002079,-0.08242065459489822
1761413740695095000,5.533094970703125,-0.5663939714431763,0.10468284785747528,-0.06826595216989517
1761413740705108200,5.543108154296875,-0.5426301956176758,0.13166427612304688,-0.05730301886796951
1761413740715122200,5.5531220703125,-0.5397869944572449,0.13660123944282532,-0.03660440072417259
1761413740725135000,5.563135009765625,-0.5526911616325378,0.16831664741039276,-0.013531723991036415
1761413740735148300,5.573148193359375,-0.5622097849845886,0.1768166571855545,-0.009175592102110386
1761413740745161000,5.583160888671875,-0.566390335559845,0.17004378139972687,-0.022471977397799492
1761413740755174100,5.593174072265625,-0.5670763850212097,0.13833245635032654,-0.05556201934814453
1761413740765187000,5.60318701171875,-0.569616973400116,0.0806937888264656,-0.09839113801717758
1761413740775200300,5.6132001953125,-0.5723935961723328,0.03860066458582878,-0.13602560758590698
1761413740785214200,5.623214111328125,-0.5766199231147766,-0.015553327277302742,-0.17845596373081207
1761413740795227100,5.63322705078125,-0.5775451064109802,-0.054930027574300766,-0.20201241970062256
1761413740805240000,5.643239990234375,-0.5826959013938904,-0.07263153046369553,-0.21726754307746887
1761413740815253800,5.653253662109375,-0.5875769257545471,-0.09203904867172241,-0.23917736113071442
1761413740825266700,5.6632666015625,-0.5772953629493713,-0.11057227104902267,-0.2610311806201935
1761413740835279600,5.673279541015625,-0.5583187341690063,-0.11678782105445862,-0.27571505308151245
1761413740845293800,5.6832939453125,-0.5371930599212646,-0.12581808865070343,-0.28435856103897095
1761413740855306800,5.693306640625,-0.5238043069839478,-0.12048882991075516,-0.2891373336315155
1761413740865319700,5.703319580078125,-0.505604088306427,-0.09550066292285919,-0.2824060618877411
1761413740875332600,5.71333251953125,-0.48711273074150085,-0.06256082653999329,-0.26160091161727905
1761413740885345800,5.723345703125,-0.4674893915653229,-0.027133747935295105,-0.23579856753349304
1761413740895358500,5.7333583984375,-0.45356959104537964,0.010235995054244995,-0.2054329365491867
1761413740905372700,5.74337255859375,-0.4295284152030945,0.041773125529289246,-0.17397920787334442
1761413740915385600,5.753385498046875,-0.396321177482605,0.060775309801101685,-0.1470828652381897
1761413740925398500,5.7633984375,-0.35712406039237976,0.06246133893728256,-0.12026876211166382
1761413740935411700,5.77341162109375,-0.3097054362297058,0.047196101397275925,-0.09764547646045685
1761413740945424600,5.783424560546875,-0.2560521960258484,0.026828717440366745,-0.07835665345191956
1761413740955437600,5.7934375,-0.20225368440151215,0.007019325625151396,-0.050129007548093796
1761413740965451800,5.80345166015625,-0.15965738892555237,-0.005166216753423214,-0.02481759712100029
1761413740975464700,5.813464599609375,-0.12845739722251892,-0.009754044935107231,0.005851898342370987
1761413740985477600,5.8234775390625,-0.1076478660106659,-0.008313867263495922,0.031139492988586426
1761413740995490800,5.83349072265625,-0.09840749204158783,0.020227229222655296,0.045568499714136124
1761413741005503700,5.843503662109375,-0.08740590512752533,0.037231940776109695,0.05216683819890022
1761413741015516700,5.8535166015625,-0.0786568820476532,0.04333244636654854,0.04377468675374985
1761413741025530600,5.863530517578125,-0.07223133742809296,0.031375180929899216,0.02744916081428528
1761413741035543800,5.873543701171875,-0.0615917406976223,0.025532471016049385,0.01430619414895773
1761413741045556700,5.883556640625,-0.04046420380473137,0.024484578520059586,0.011469047516584396
1761413741055569700,5.893569580078125,-0.0125510822981596,0.06303410232067108,0.02195870690047741
1761413741065582800,5.903582763671875,0.025799604132771492,0.14675864577293396,0.051793813705444336
1761413741075595500,5.913595458984375,0.06191020458936691,0.19246222078800201,0.05999395251274109
1761413741085609700,5.923609619140625,0.07222209870815277,0.1462417095899582,0.025146091356873512
1761413741095622700,5.93362255859375,0.054922204464673996,0.054804477840662,-0.04834490641951561
1761413741105635600,5.943635498046875,0.02754468098282814,-0.07796663045883179,-0.1305711269378662
1761413741115648800,5.953648681640625,-0.01843053288757801,-0.26591575145721436,-0.21286147832870483
1761413741125661700,5.96366162109375,-0.09165877848863602,-0.502307653427124,-0.2792588770389557
1761413741135674600,5.973674560546875,-0.16220031678676605,-0.6823559403419495,-0.29302528500556946
1761413741145687600,5.9836875,-0.21177755296230316,-0.7890253663063049,-0.24797490239143372
1761413741155701800,5.99370166015625,-0.24312961101531982,-0.8199422955513,-0.16961990296840668
1761413741165714700,6.003714599609375,-0.2353140264749527,-0.7544756531715393,-0.03904778137803078
1761413741175727600,6.0137275390625,-0.21347211301326752,-0.6160600185394287,0.12518563866615295
1761413741185740800,6.02374072265625,-0.17965950071811676,-0.44494783878326416,0.2939925193786621
1761413741195753500,6.03375341796875,-0.14227351546287537,-0.27697134017944336,0.4426954388618469
1761413741205766700,6.0437666015625,-0.09864238649606705,-0.1413707137107849,0.5473945736885071
1761413741215780600,6.053780517578125,-0.06858088821172714,-0.04517707601189613,0.5980798602104187
1761413741225793500,6.06379345703125,-0.04548393934965134,0.019216155633330345,0.5936488509178162
1761413741235806700,6.073806640625,-0.03299957141280174,0.049775395542383194,0.5515578389167786
1761413741245819600,6.083819580078125,-0.0179495457559824,0.051410119980573654,0.5010290145874023
1761413741255832600,6.09383251953125,-0.016348985955119133,0.03890977427363396,0.44707873463630676
1761413741265845800,6.103845703125,-0.023227276280522346,0.020443357527256012,0.41397467255592346
1761413741275859700,6.113859619140625,-0.020071696490049362,0.0008949572220444679,0.41120630502700806
1761413741285872600,6.12387255859375,-0.024062618613243103,-0.00985354371368885,0.4301293194293976
1761413741295885600,6.133885498046875,-0.034657202661037445,-0.021793026477098465,0.46087685227394104
1761413741305898800,6.143898681640625,-0.049891624599695206,-0.02908279560506344,0.48748305439949036
1761413741315911700,6.15391162109375,-0.057435292750597,-0.052226465195417404,0.4978504776954651
1761413741325924600,6.163924560546875,-0.0591861791908741,-0.08131371438503265,0.4926513731479645
1761413741335938800,6.173938720703125,-0.06707126647233963,-0.12604708969593048,0.46296459436416626
1761413741345951500,6.183951416015625,-0.07974113523960114,-0.17696359753608704,0.41447141766548157
1761413741355964700,6.193964599609375,-0.09372512251138687,-0.2188178449869156,0.35504430532455444
1761413741365977900,6.203977783203125,-0.11380353569984436,-0.24726703763008118,0.2922297418117523
1761413741375990500,6.213990478515625,-0.1213541328907013,-0.2402687817811966,0.22893625497817993
1761413741386003700,6.224003662109375,-0.1176191195845604,-0.20093992352485657,0.1750739961862564
1761413741396017700,6.234017578125,-0.1005043163895607,-0.13894392549991608,0.12959200143814087
1761413741406030600,6.244030517578125,-0.07770522683858871,-0.07575783878564835,0.10402287542819977
1761413741416043800,6.254043701171875,-0.054186053574085236,-0.025314904749393463,0.07290703058242798
1761413741426056700,6.264056640625,-0.03377316892147064,0.012333258986473083,0.0605013333261013
1761413741436069600,6.274069580078125,-0.010954407043755054,0.03500581532716751,0.0529659166932106
1761413741446082600,6.28408251953125,0.00180556729901582,0.021855203434824944,0.05438469722867012
1761413741456096800,6.2940966796875,0.0004566762363538146,-0.013135537505149841,0.04818405956029892
1761413741466109700,6.304109619140625,-0.011136719025671482,-0.05840042605996132,0.05291561782360077
1761413741476122600,6.31412255859375,-0.024526560679078102,-0.104475237429142,0.05340723693370819
1761413741486135800,6.3241357421875,-0.03743250295519829,-0.1519934982061386,0.06134185567498207
1761413741496148500,6.3341484375,-0.04667740315198898,-0.17034374177455902,0.06616484373807907
1761413741506161700,6.34416162109375,-0.05110872909426689,-0.15949377417564392,0.06522135436534882
1761413741516176000,6.35417578125,-0.04322391003370285,-0.12960085272789001,0.05506672337651253
1761413741526188500,6.3641884765625,-0.028548702597618103,-0.09295289218425751,0.03238200023770332
1761413741536201700,6.37420166015625,-0.014283746480941772,-0.0525285005569458,-0.007112945429980755
1761413741546214700,6.384214599609375,-0.007733875419944525,-0.02234048768877983,-0.053356412798166275
1761413741556227600,6.3942275390625,-0.004753798246383667,0.016019152477383614,-0.0975790023803711
1761413741566240800,6.40424072265625,-0.004626837559044361,0.05321802198886871,-0.13646842539310455
1761413741576253700,6.414253662109375,-0.0033573084510862827,0.08410856127738953,-0.16798348724842072
1761413741586267600,6.424267578125,-0.003922850824892521,0.09484976530075073,-0.1887875348329544
1761413741596280600,6.434280517578125,-0.015134491957724094,0.08322320133447647,-0.20438672602176666
1761413741606293800,6.444293701171875,-0.03519049286842346,0.0734451413154602,-0.2124585062265396
1761413741616306700,6.454306640625,-0.048386722803115845,0.07848037779331207,-0.2188548892736435
1761413741626319600,6.464319580078125,-0.04179781675338745,0.08530727028846741,-0.20893605053424835
1761413741636332800,6.474332763671875,-0.03749760985374451,0.1083124503493309,-0.1935776025056839
1761413741646346500,6.484346435546875,-0.03586966171860695,0.11615122854709625,-0.17755089700222015
1761413741656359700,6.494359619140625,-0.03257612884044647,0.13597792387008667,-0.15691353380680084
1761413741666372900,6.504372802734375,-0.017540218308568,0.15182195603847504,-0.13489679992198944
1761413741676385500,6.514385498046875,-0.008143787272274494,0.1531575322151184,-0.11030463874340057
1761413741686398700,6.524398681640625,-0.0033988538198173046,0.14620786905288696,-0.08758105337619781
1761413741696411600,6.53441162109375,-0.011165963485836983,0.12648504972457886,-0.07246840745210648
1761413741706425600,6.544425537109375,-0.020021189004182816,0.09491623938083649,-0.055288370698690414
1761413741716438800,6.554438720703125,-0.033726081252098083,0.0556335523724556,-0.031045617535710335
1761413741726451700,6.56445166015625,-0.052625786513090134,0.018564438447356224,0.01224674005061388
1761413741736464600,6.574464599609375,-0.07377608120441437,-0.006811492145061493,0.07182139158248901
1761413741746477600,6.5844775390625,-0.09135092049837112,-0.03920307382941246,0.1469169557094574
1761413741756490800,6.59449072265625,-0.09694195538759232,-0.08441688865423203,0.23335091769695282
1761413741766504700,6.604504638671875,-0.09196220338344574,-0.14070813357830048,0.31015363335609436
1761413741776517600,6.614517578125,-0.08749394863843918,-0.1886298507452011,0.3819332718849182
1761413741786530800,6.62453076171875,-0.07627735286951065,-0.19891534745693207,0.43435123562812805
1761413741796543500,6.63454345703125,-0.06025310978293419,-0.19655604660511017,0.47098007798194885
1761413741806556700,6.644556640625,-0.04166976734995842,-0.21653838455677032,0.4864313006401062
1761413741816568800,6.65456884765625,-0.042247939854860306,-0.21557192504405975,0.49323034286499023
1761413741826582000,6.66458203125,-0.05746223405003548,-0.2501067519187927,0.4680119454860687
1761413741836595700,6.674595703125,-0.06978628039360046,-0.31519174575805664,0.43004992604255676
1761413741846609000,6.68460888671875,-0.07843352109193802,-0.3441195785999298,0.3970855176448822
1761413741856622000,6.6946220703125,-0.09026328474283218,-0.337496280670166,0.37944233417510986
1761413741866634800,6.704634765625,-0.09514211863279343,-0.2826147675514221,0.3740609884262085
1761413741876648000,6.71464794921875,-0.08043747395277023,-0.17288880050182343,0.39291325211524963
1761413741886660900,6.724660888671875,-0.055869732052087784,-0.09711365401744843,0.3968966603279114
1761413741896674800,6.7346748046875,-0.06619055569171906,-0.08702053129673004,0.36217838525772095
1761413741906688000,6.74468798828125,-0.11208219081163406,-0.10986676812171936,0.2714700400829315
1761413741916701000,6.754700927734375,-0.15656229853630066,-0.14470279216766357,0.15694721043109894
1761413741926713900,6.7647138671875,-0.1937890201807022,-0.1821696013212204,0.04063480719923973
1761413741936726800,6.774726806640625,-0.24101458489894867,-0.24629560112953186,-0.08448928594589233
1761413741946740000,6.784739990234375,-0.3023659288883209,-0.3043874204158783,-0.20428407192230225
1761413741956754000,6.79475390625,-0.3516879379749298,-0.299818754196167,-0.30389827489852905
1761413741966766800,6.804766845703125,-0.3844139575958252,-0.23887501657009125,-0.37243202328681946
1761413741976780000,6.814780029296875,-0.39445486664772034,-0.13515955209732056,-0.41200315952301025
1761413741986792700,6.824792724609375,-0.3833457827568054,-0.008532967418432236,-0.42611372470855713
1761413741996806000,6.834805908203125,-0.3598271608352661,0.11766145378351212,-0.41818174719810486
1761413742006818800,6.84481884765625,-0.35180285573005676,0.21943220496177673,-0.40356820821762085
1761413742016832800,6.854832763671875,-0.35299113392829895,0.30653512477874756,-0.389212429523468
1761413742026846000,6.864845947265625,-0.3562334179878235,0.37258780002593994,-0.3736659586429596
1761413742036859000,6.87485888671875,-0.3439301550388336,0.43235817551612854,-0.3460356593132019
1761413742046871800,6.884871826171875,-0.3321463167667389,0.4858737289905548,-0.30957165360450745
1761413742056884700,6.894884765625,-0.3178829550743103,0.5115596652030945,-0.2689773738384247
1761413742066898000,6.90489794921875,-0.3146401643753052,0.49846184253692627,-0.22652336955070496
1761413742076910800,6.914910888671875,-0.30923980474472046,0.4696616232395172,-0.18916055560112
1761413742086924800,6.9249248046875,-0.3005073070526123,0.44421398639678955,-0.14271001517772675
1761413742096938000,6.93493798828125,-0.2934770882129669,0.41833925247192383,-0.09812071174383163
1761413742106951000,6.944950927734375,-0.29706597328186035,0.3905772566795349,-0.05438350886106491
1761413742116963800,6.9549638671875,-0.3032365143299103,0.36737364530563354,-0.01472664624452591
1761413742126977000,6.96497705078125,-0.30935078859329224,0.35072028636932373,0.02713088132441044
1761413742136990000,6.974989990234375,-0.3210553824901581,0.32141751050949097,0.05596625804901123
1761413742147004000,6.98500390625,-0.33961862325668335,0.28035402297973633,0.07677991688251495
1761413742157017000,6.99501708984375,-0.3601526618003845,0.23831574618816376,0.08629805594682693
1761413742167029800,7.00502978515625,-0.3814390003681183,0.19076478481292725,0.09459592401981354
1761413742177043000,7.01504296875,-0.40722665190696716,0.15975280106067657,0.09685508161783218
1761413742187055900,7.025055908203125,-0.431110680103302,0.13525672256946564,0.08941895514726639
1761413742197069000,7.035069091796875,-0.4462915062904358,0.11008025705814362,0.07425012439489365
1761413742207083000,7.0450830078125,-0.4617435932159424,0.07840603590011597,0.04835032299160957
1761413742217096000,7.055095947265625,-0.47548845410346985,0.03831321373581886,0.004889932461082935
1761413742227108900,7.06510888671875,-0.4933150112628937,-0.010119017213582993,-0.04500792548060417
1761413742237121800,7.075121826171875,-0.5098194479942322,-0.05426890403032303,-0.09398159384727478
1761413742247135000,7.085135009765625,-0.5331264138221741,-0.09646225720643997,-0.1425933837890625
1761413742257148000,7.09514794921875,-0.5624096989631653,-0.13636599481105804,-0.1872820258140564
1761413742267160800,7.105160888671875,-0.5953455567359924,-0.18183976411819458,-0.22623693943023682
1761413742277175000,7.115175048828125,-0.6244861483573914,-0.21923348307609558,-0.2593112885951996
1761413742287187700,7.125187744140625,-0.6507359147071838,-0.22874702513217926,-0.2847258746623993
1761413742297201000,7.135200927734375,-0.6691583395004272,-0.20290343463420868,-0.2871221899986267
1761413742307213800,7.1452138671875,-0.6699569225311279,-0.13800539076328278,-0.2714032232761383
1761413742317227000,7.15522705078125,-0.6553638577461243,-0.0537341833114624,-0.2346297800540924
1761413742327240000,7.165239990234375,-0.6372796297073364,0.03827127441763878,-0.19205959141254425
1761413742337254000,7.17525390625,-0.6107718348503113,0.11064426600933075,-0.1493092030286789
1761413742347266800,7.185266845703125,-0.5749915838241577,0.1555764526128769,-0.10744406282901764
1761413742357279700,7.19527978515625,-0.5467602014541626,0.17898297309875488,-0.07525736838579178
1761413742367293000,7.20529296875,-0.5353096127510071,0.18342867493629456,-0.04237746819853783
1761413742377306000,7.21530615234375,-0.5368326306343079,0.18046218156814575,-0.018352294340729713
1761413742387318800,7.22531884765625,-0.5517874956130981,0.16205276548862457,0.0007013727445155382
1761413742397333000,7.2353330078125,-0.570776104927063,0.12915313243865967,0.006540886126458645
1761413742407345700,7.245345703125,-0.5866521596908569,0.0960812121629715,0.013602452352643013
1761413742417358800,7.25535888671875,-0.6040109395980835,0.06200100854039192,0.016916224732995033
1761413742427372000,7.2653720703125,-0.6271124482154846,0.02272164821624756,0.012616049498319626
1761413742437385000,7.275385009765625,-0.6469846963882446,-0.014512271620333195,0.004308585077524185
1761413742447398000,7.28539794921875,-0.667486310005188,-0.04031158983707428,-0.006128222215920687
1761413742457410800,7.295410888671875,-0.6869902014732361,-0.06371358782052994,-0.029445262625813484
1761413742467424800,7.3054248046875,-0.6934045553207397,-0.07272820919752121,-0.054719969630241394
1761413742477438000,7.31543798828125,-0.6912761926651001,-0.06369289755821228,-0.08805236220359802
1761413742487451000,7.325450927734375,-0.6811462640762329,-0.037055112421512604,-0.11253687739372253
1761413742497464000,7.335464111328125,-0.6613073348999023,0.0021535418927669525,-0.1320301592350006
1761413742507476700,7.345476806640625,-0.6425888538360596,0.0317346528172493,-0.14367496967315674
1761413742517490000,7.355489990234375,-0.6222513318061829,0.04696926847100258,-0.15583842992782593
1761413742527504000,7.36550390625,-0.6066210865974426,0.04086695984005928,-0.16854551434516907
1761413742537516800,7.375516845703125,-0.5838854312896729,-0.013558464124798775,-0.17823463678359985
1761413742547530000,7.385530029296875,-0.5595793128013611,-0.10719965398311615,-0.1663898378610611
1761413742557543000,7.39554296875,-0.5456954836845398,-0.1973460614681244,-0.13312189280986786
1761413742567555800,7.405555908203125,-0.5222196578979492,-0.25555258989334106,-0.07016317546367645
1761413742577568800,7.41556884765625,-0.48555776476860046,-0.316897451877594,0.005640769377350807
1761413742587582700,7.425582763671875,-0.4492541551589966,-0.37028008699417114,0.07787498086690903
1761413742597596000,7.435595947265625,-0.407793790102005,-0.3910503387451172,0.14520102739334106
1761413742607608800,7.44560888671875,-0.3643546402454376,-0.374915212392807,0.20548784732818604
1761413742617622000,7.4556220703125,-0.3155146837234497,-0.3418286144733429,0.250061959028244
1761413742627634700,7.465634765625,-0.2730104625225067,-0.3092607855796814,0.2665354013442993
1761413742637648000,7.47564794921875,-0.24204431474208832,-0.26891520619392395,0.2719903588294983
1761413742647661000,7.4856611328125,-0.20909252762794495,-0.19483910501003265,0.2677687704563141
1761413742657674800,7.4956748046875,-0.1438882201910019,-0.07237736880779266,0.26866811513900757
1761413742667688000,7.50568798828125,-0.04622969403862953,0.009430475533008575,0.27658241987228394
1761413742677701000,7.515701171875,0.015675749629735947,-0.0328565277159214,0.239593505859375
1761413742687713800,7.5257138671875,0.005148899741470814,-0.13947296142578125,0.18212668597698212
1761413742697727000,7.53572705078125,-0.038561031222343445,-0.2539990246295929,0.13071516156196594
1761413742707740000,7.545739990234375,-0.09056365489959717,-0.37994423508644104,0.09069138765335083
1761413742717753900,7.55575390625,-0.15572480857372284,-0.49020814895629883,0.0659671351313591
1761413742727767000,7.56576708984375,-0.22245091199874878,-0.5057509541511536,0.07730576395988464
1761413742737780000,7.575780029296875,-0.2766755223274231,-0.43848538398742676,0.12117575109004974
1761413742747793000,7.58579296875,-0.31225016713142395,-0.319573312997818,0.17113204300403595
1761413742757805800,7.595805908203125,-0.32151156663894653,-0.18266341090202332,0.23273761570453644
1761413742767819000,7.605819091796875,-0.30526071786880493,-0.05451209843158722,0.2890312671661377
1761413742777833000,7.6158330078125,-0.27009496092796326,0.041083306074142456,0.33717310428619385
1761413742787846000,7.625845947265625,-0.24825447797775269,0.07808618992567062,0.3701954483985901
1761413742797859000,7.635859130859375,-0.25036370754241943,0.07618416100740433,0.3854590952396393
1761413742807871700,7.645871826171875,-0.2649865448474884,0.047685861587524414,0.38843613862991333
1761413742817885700,7.6558857421875,-0.29212895035743713,-0.0028308392502367496,0.3829843997955322
1761413742827898600,7.665898681640625,-0.3301134407520294,-0.050237201154232025,0.3717643618583679
1761413742837911600,7.67591162109375,-0.36966484785079956,-0.09213218837976456,0.35748955607414246
1761413742847925800,7.68592578125,-0.41093501448631287,-0.1310555785894394,0.3451308608055115
1761413742857938400,7.6959384765625,-0.4410737454891205,-0.12734313309192657,0.3490971028804779
1761413742867951600,7.70595166015625,-0.463657408952713,-0.09167823940515518,0.34778594970703125
1761413742877964800,7.71596484375,-0.46751952171325684,-0.037543900310993195,0.3388686180114746
1761413742887977700,7.725977783203125,-0.4568973481655121,0.016615193337202072,0.317533016204834
1761413742897990700,7.73599072265625,-0.43422290682792664,0.04498771205544472,0.2757379114627838
1761413742908004600,7.746004638671875,-0.41861146688461304,0.04253840446472168,0.20685553550720215
1761413742918017500,7.756017578125,-0.40019091963768005,0.00594976544380188,0.13811694085597992
1761413742928030700,7.76603076171875,-0.38371995091438293,-0.052713409066200256,0.0773758590221405
1761413742938043600,7.776043701171875,-0.3772266209125519,-0.11602474004030228,0.05244095250964165
1761413742948056600,7.786056640625,-0.3771126866340637,-0.1663013994693756,0.05668028071522713
1761413742958069500,7.796069580078125,-0.3884207308292389,-0.20278696715831757,0.09077220410108566
1761413742968083700,7.806083740234375,-0.40153467655181885,-0.2392474263906479,0.1227576807141304
1761413742978096600,7.8160966796875,-0.40106889605522156,-0.24977436661720276,0.17716899514198303
1761413742988109600,7.826109619140625,-0.39831051230430603,-0.23170624673366547,0.22658689320087433
1761413742998122800,7.836122802734375,-0.4018482565879822,-0.22237372398376465,0.2539045512676239
1761413743008135700,7.8461357421875,-0.4107465445995331,-0.2245393991470337,0.2519001066684723
1761413743018148600,7.856148681640625,-0.40698081254959106,-0.23631323873996735,0.22118160128593445
1761413743028161500,7.86616162109375,-0.40378662943840027,-0.24381908774375916,0.17471317946910858
1761413743038175500,7.876175537109375,-0.3985617756843567,-0.24306941032409668,0.10981620848178864
1761413743048188700,7.886188720703125,-0.3959128260612488,-0.236032173037529,0.043671976774930954
1761413743058201600,7.89620166015625,-0.3972102999687195,-0.20236262679100037,-0.014462430961430073
1761413743068214500,7.906214599609375,-0.3970794975757599,-0.16314294934272766,-0.06335030496120453
1761413743078227500,7.9162275390625,-0.40376320481300354,-0.10805493593215942,-0.09315000474452972
1761413743088240600,7.92624072265625,-0.40639400482177734,-0.06097343564033508,-0.11851542443037033
1761413743098254600,7.936254638671875,-0.41380932927131653,-0.02081776037812233,-0.1373887062072754
1761413743108267500,7.946267578125,-0.4245116710662842,-0.006876894738525152,-0.16031433641910553
1761413743118280700,7.95628076171875,-0.43391263484954834,-0.0043420977890491486,-0.18395443260669708
1761413743128293600,7.966293701171875,-0.44439372420310974,-0.004686323925852776,-0.2069416493177414
1761413743138306600,7.976306640625,-0.4516223669052124,-0.011610809713602066,-0.22207213938236237
1761413743148319700,7.98631982421875,-0.4654591679573059,-0.012967268005013466,-0.23188486695289612
1761413743158332700,7.996332763671875,-0.48332151770591736,-0.009547770023345947,-0.23276956379413605
1761413743168346600,8.0063466796875,-0.5015892386436462,0.002858205698430538,-0.21631073951721191
1761413743178359800,8.01635986328125,-0.5152304768562317,0.018806811422109604,-0.19277852773666382
1761413743188372700,8.026372802734375,-0.5409650206565857,0.023333782330155373,-0.15930980443954468
1761413743198385700,8.0363857421875,-0.5683292150497437,0.015526192262768745,-0.11638657003641129
1761413743208398600,8.046398681640625,-0.5982806086540222,-0.022690830752253532,-0.07520901411771774
1761413743218411800,8.056411865234375,-0.6317698955535889,-0.0732370913028717,-0.03872450441122055
1761413743228425700,8.06642578125,-0.6567668318748474,-0.12069138884544373,-0.0040605440735816956
1761413743238438700,8.076438720703125,-0.6756901741027832,-0.157098650932312,0.028128817677497864
1761413743248451600,8.08645166015625,-0.6923092007637024,-0.18467684090137482,0.06214965507388115
1761413743258464500,8.096464599609375,-0.7093251943588257,-0.20217940211296082,0.09130647033452988
1761413743268477700,8.106477783203125,-0.7345431447029114,-0.22159817814826965,0.11552275717258453
1761413743278490600,8.11649072265625,-0.7689005732536316,-0.25056537985801697,0.12601721286773682
1761413743288503600,8.126503662109375,-0.814653754234314,-0.2903258800506592,0.13223649561405182
1761413743298517800,8.136517822265626,-0.8718611001968384,-0.32599759101867676,0.13113155961036682
1761413743308530700,8.14653076171875,-0.9399212002754211,-0.3405090570449829,0.13627035915851593
1761413743318543600,8.156543701171875,-1.0083967447280884,-0.3636878728866577,0.125881627202034
1761413743328556500,8.166556640625,-1.0633902549743652,-0.3748578727245331,0.12302389740943909
1761413743338569700,8.17656982421875,-1.111467957496643,-0.34658870100975037,0.13900738954544067
1761413743348582700,8.186582763671876,-1.1583502292633057,-0.2904541492462158,0.15025700628757477
1761413743358596600,8.1965966796875,-1.2014156579971313,-0.2517765164375305,0.1583322435617447
1761413743368609800,8.20660986328125,-1.234620213508606,-0.2299126237630844,0.1616431176662445
1761413743378622500,8.21662255859375,-1.2739710807800293,-0.24309313297271729,0.16176429390907288
1761413743388635600,8.2266357421875,-1.319609522819519,-0.2752992510795593,0.1527499556541443
1761413743398648800,8.23664892578125,-1.3709903955459595,-0.31528687477111816,0.15028412640094757
1761413743408661500,8.24666162109375,-1.421019196510315,-0.33995184302330017,0.15325504541397095
1761413743418674700,8.2566748046875,-1.4671834707260132,-0.338622123003006,0.15654537081718445
1761413743428688600,8.266688720703126,-1.4979171752929688,-0.3202786445617676,0.17310194671154022
1761413743438701600,8.27670166015625,-1.5166109800338745,-0.2862730026245117,0.18601348996162415
1761413743448714800,8.28671484375,-1.520641565322876,-0.23422342538833618,0.2151215821504593
1761413743458727700,8.296727783203124,-1.4989551305770874,-0.19162537157535553,0.2413896769285202
1761413743468740600,8.30674072265625,-1.4833987951278687,-0.22323206067085266,0.24165958166122437
1761413743478753500,8.31675341796875,-1.497135043144226,-0.32338181138038635,0.21179835498332977
1761413743488767700,8.326767822265625,-1.5442858934402466,-0.47872528433799744,0.15745069086551666
1761413743498780700,8.33678076171875,-1.6221612691879272,-0.6156439781188965,0.09332176297903061
1761413743508793600,8.346793701171874,-1.71155846118927,-0.699416995048523,0.031242433935403824
1761413743518806800,8.356806884765625,-1.788826823234558,-0.7125999331474304,-0.022200018167495728
1761413743528819500,8.3668193359375,-1.827561378479004,-0.6576969027519226,-0.05448541045188904
1761413743538832600,8.37683251953125,-1.838602066040039,-0.5558198094367981,-0.0836627334356308
1761413743548846800,8.386846923828125,-1.8202060461044312,-0.4821888506412506,-0.10319485515356064
1761413743558859500,8.396859619140624,-1.7986618280410767,-0.42799192667007446,-0.12148011475801468
1761413743568872700,8.406872802734375,-1.7803277969360352,-0.382080078125,-0.14181576669216156
1761413743578885600,8.4168857421875,-1.7616755962371826,-0.36216601729393005,-0.16128532588481903
1761413743588898600,8.426898681640624,-1.7374759912490845,-0.34417131543159485,-0.1757468283176422
1761413743598911500,8.436911376953125,-1.715638279914856,-0.3146917223930359,-0.1799016296863556
1761413743608924700,8.446924560546876,-1.7026782035827637,-0.27694448828697205,-0.17111840844154358
1761413743618938600,8.456938720703125,-1.7019513845443726,-0.22462347149848938,-0.15124483406543732
1761413743628951600,8.46695166015625,-1.6927521228790283,-0.1813218742609024,-0.12715819478034973
1761413743638964700,8.47696484375,-1.668266773223877,-0.15139327943325043,-0.10139477998018265
1761413743648977400,8.486977294921875,-1.6405465602874756,-0.14081773161888123,-0.08002480864524841
1761413743658990600,8.496990478515626,-1.6204471588134766,-0.16254059970378876,-0.05634104833006859
1761413743669003800,8.507003662109375,-1.6073167324066162,-0.1994519978761673,-0.028052624315023422
1761413743679017500,8.517017578125,-1.5928810834884644,-0.23050445318222046,0.003489589085802436
1761413743689030700,8.52703076171875,-1.5793324708938599,-0.2550322115421295,0.04306603595614433
1761413743699043800,8.5370439453125,-1.567122220993042,-0.281258225440979,0.07207105308771133
1761413743709056500,8.547056396484376,-1.5669974088668823,-0.31670454144477844,0.08694392442703247
1761413743719069700,8.557069580078124,-1.5668509006500244,-0.354171484708786,0.08278246968984604
1761413743729082600,8.56708251953125,-1.5597747564315796,-0.38686564564704895,0.06987062841653824
1761413743739095800,8.577095703125,-1.5537737607955933,-0.40488940477371216,0.04519004747271538
1761413743749109800,8.58710986328125,-1.5483723878860474,-0.4155694842338562,0.019438156858086586
1761413743759122700,8.597122802734376,-1.537479043006897,-0.4294360280036926,0.006384405307471752
1761413743769135600,8.607135498046874,-1.5303807258605957,-0.44609206914901733,0.0061659133061766624
1761413743779148500,8.6171484375,-1.5426325798034668,-0.4648124873638153,0.01863483339548111
1761413743789161700,8.62716162109375,-1.5554147958755493,-0.5023782253265381,0.018288150429725647
1761413743799174700,8.637174560546875,-1.545052170753479,-0.5349299907684326,0.015345358289778233
1761413743809188600,8.647188720703125,-1.5222514867782593,-0.5801120400428772,0.0016286538448184729
1761413743819201500,8.657201416015624,-1.4992071390151978,-0.6363478899002075,-0.01977117732167244
1761413743829214500,8.66721435546875,-1.4771711826324463,-0.708402156829834,-0.06370367854833603
1761413743839227400,8.677227294921876,-1.4662213325500488,-0.7329732775688171,-0.10165958106517792
1761413743849240600,8.687240478515625,-1.4751713275909424,-0.6804682016372681,-0.11883171647787094
1761413743859253800,8.697253662109375,-1.513683795928955,-0.56975257396698,-0.12986811995506287
1761413743869266400,8.707266357421876,-1.5506891012191772,-0.4344634413719177,-0.14356456696987152
1761413743879280600,8.71728076171875,-1.5484081506729126,-0.32629889249801636,-0.1676107794046402
1761413743889293300,8.727293212890626,-1.5203158855438232,-0.2810031473636627,-0.19713635742664337
