time,seconds_elapsed,z,y,x
1761413718895854300,0.073854248046875,-0.11903057247400284,0.027673736214637756,-0.12391488254070282
1761413718905868000,0.083867919921875,-0.1286855936050415,0.041089143604040146,-0.10301679372787476
1761413718915881200,0.093881103515625,-0.1244865357875824,0.060180582106113434,-0.08791960775852203
1761413718925894100,0.10389404296875,-0.10131783038377762,0.08048851788043976,-0.07992826402187347
1761413718935907000,0.113906982421875,-0.07125846296548843,0.09977566450834274,-0.07472711056470871
1761413718945921300,0.12392138671875,-0.04200071096420288,0.11091380566358566,-0.08165132254362106
1761413718955934000,0.133933837890625,-0.020005393773317337,0.11460220068693161,-0.08698412775993347
1761413718965947100,0.143947021484375,-0.009413203224539757,0.10334928333759308,-0.07932514697313309
1761413718975961000,0.153961181640625,-0.012090874835848808,0.0935916006565094,-0.06675873696804047
1761413718985974000,0.16397412109375,-0.017229445278644562,0.08821441233158112,-0.0392480231821537
1761413718995987200,0.1739873046875,-0.026172621175646782,0.07846526056528091,-0.002897578291594982
1761413719006000000,0.184000244140625,-0.0445292592048645,0.06856948882341385,0.028163667768239975
1761413719016014000,0.19401416015625,-0.06751376390457153,0.04364499822258949,0.0643785297870636
1761413719026027300,0.20402734375,-0.08307167887687683,0.02161453105509281,0.08458499610424042
1761413719036040200,0.214040283203125,-0.09789257496595383,0.010578718036413193,0.09204736351966858
1761413719046053000,0.22405322265625,-0.09596125036478043,0.005559192970395088,0.08701478689908981
1761413719056067300,0.2340673828125,-0.09191311150789261,-0.008160142228007317,0.07131286710500717
1761413719066080000,0.244080078125,-0.09064570814371109,-0.023072779178619385,0.038599930703639984
1761413719076093200,0.25409326171875,-0.09648086875677109,-0.04193607345223427,-0.003863333724439144
1761413719086106000,0.264106201171875,-0.10066363215446472,-0.06426534801721573,-0.037288401275873184
1761413719096120000,0.2741201171875,-0.1073588877916336,-0.08666296303272247,-0.054615285247564316
1761413719106133200,0.28413330078125,-0.11605357378721237,-0.10437510907649994,-0.06199916452169418
1761413719116146200,0.294146240234375,-0.11715734750032425,-0.12306375801563263,-0.06926029920578003
1761413719126160100,0.30416015625,-0.11525584757328033,-0.13507674634456635,-0.07901093363761902
1761413719136173300,0.31417333984375,-0.11242758482694626,-0.15131869912147522,-0.09604701399803162
1761413719146186200,0.324186279296875,-0.11326594650745392,-0.16153937578201294,-0.11640128493309021
1761413719156199200,0.33419921875,-0.11175352334976196,-0.14240416884422302,-0.13352717459201813
1761413719166213400,0.34421337890625,-0.10266362130641937,-0.10884115099906921,-0.1402900069952011
1761413719176226000,0.35422607421875,-0.0965675562620163,-0.0757867768406868,-0.14304430782794952
1761413719186239200,0.3642392578125,-0.08768458664417267,-0.04227196052670479,-0.13413257896900177
1761413719196252200,0.374252197265625,-0.08380064368247986,-0.009357009083032608,-0.12406566739082336
1761413719206266000,0.38426611328125,-0.08727314323186874,0.01494353823363781,-0.11372781544923782
1761413719216279300,0.394279296875,-0.09340620785951614,0.018338371068239212,-0.11337476223707199
1761413719226292200,0.404292236328125,-0.0980885773897171,0.008389600552618504,-0.10258044302463531
1761413719236305200,0.41430517578125,-0.1114998310804367,0.0024559954181313515,-0.08793862164020538
1761413719246319000,0.424319091796875,-0.1278391182422638,-0.003039171453565359,-0.06893936544656754
1761413719256332000,0.43433203125,-0.14151296019554138,0.01205308549106121,-0.0419759638607502
1761413719266345200,0.44434521484375,-0.1579369455575943,0.0298099797219038,-0.011099008843302727
1761413719276358100,0.454358154296875,-0.16751225292682648,0.03973054140806198,0.02073049359023571
1761413719286372000,0.4643720703125,-0.16817617416381836,0.05991996079683304,0.044530097395181656
1761413719296385000,0.474385009765625,-0.1672927737236023,0.09069684147834778,0.06511903554201126
1761413719306398200,0.484398193359375,-0.16509780287742615,0.12445002049207687,0.0683145672082901
1761413719316412200,0.494412109375,-0.16410697996616364,0.14095215499401093,0.06025449186563492
1761413719326425000,0.504425048828125,-0.16509127616882324,0.14082404971122742,0.033883340656757355
1761413719336438300,0.514438232421875,-0.16842322051525116,0.1266186386346817,0.007469520904123783
1761413719346451000,0.524450927734375,-0.16856196522712708,0.11323999613523483,-0.013499676249921322
1761413719356465200,0.534465087890625,-0.17737150192260742,0.11221619695425034,-0.022626593708992004
1761413719366478000,0.54447802734375,-0.18965266644954681,0.10888351500034332,-0.03590564802289009
1761413719376491000,0.554490966796875,-0.20240558683872223,0.11375287920236588,-0.04668226093053818
1761413719386504200,0.564504150390625,-0.21194902062416077,0.09804315865039825,-0.06416485458612442
1761413719396518100,0.57451806640625,-0.21215279400348663,0.0625331848859787,-0.10112807899713516
1761413719406531000,0.584531005859375,-0.2106718122959137,0.027787987142801285,-0.14704124629497528
1761413719416544300,0.594544189453125,-0.20628713071346283,-0.009844510816037655,-0.2190067172050476
1761413719426557200,0.60455712890625,-0.1929801106452942,-0.051817528903484344,-0.2952074706554413
1761413719436571100,0.614571044921875,-0.18055583536624908,-0.09540194272994995,-0.349052369594574
1761413719446584300,0.624584228515625,-0.1737583875656128,-0.12723229825496674,-0.36181530356407166
1761413719456597000,0.634596923828125,-0.16441592574119568,-0.118472620844841,-0.333499014377594
1761413719466610200,0.644610107421875,-0.13207769393920898,-0.07140311598777771,-0.27420586347579956
1761413719476624100,0.6546240234375,-0.08266332745552063,0.0019310680218040943,-0.17418357729911804
1761413719486637000,0.664636962890625,-0.020654551684856415,0.0872824564576149,-0.055232156068086624
1761413719496650200,0.674650146484375,0.04105591028928757,0.15308338403701782,0.08683722466230392
1761413719506664200,0.684664306640625,0.09436067938804626,0.1766403764486313,0.21654275059700012
1761413719516677000,0.694677001953125,0.14794230461120605,0.1808168590068817,0.32399246096611023
1761413719526690300,0.704690185546875,0.20165561139583588,0.16060799360275269,0.4131969213485718
1761413719536703200,0.714703125,0.23852232098579407,0.11046770215034485,0.4701755940914154
1761413719546717200,0.72471728515625,0.2578291893005371,0.051660314202308655,0.5144088268280029
1761413719556730400,0.73473046875,0.2607090175151825,0.037405725568532944,0.5697051286697388
1761413719566743000,0.744742919921875,0.2543289065361023,0.08267760276794434,0.6296877861022949
1761413719576756200,0.754756103515625,0.25129884481430054,0.15238900482654572,0.6832768321037292
1761413719586770200,0.764770263671875,0.26482024788856506,0.18462389707565308,0.7078061699867249
1761413719596783000,0.774783203125,0.2850700318813324,0.20125599205493927,0.7011615037918091
1761413719606796300,0.78479638671875,0.2944962680339813,0.18399019539356232,0.6564862132072449
1761413719616809200,0.794809326171875,0.28851231932640076,0.1456729918718338,0.583572268486023
1761413719626823200,0.8048232421875,0.26625335216522217,0.07827743887901306,0.49337899684906006
1761413719636836000,0.814836181640625,0.22994861006736755,0.0003075418062508106,0.39605510234832764
1761413719646849300,0.824849365234375,0.19032450020313263,-0.06717882305383682,0.3021818697452545
1761413719656862200,0.8348623046875,0.14098575711250305,-0.1175396665930748,0.22270305454730988
1761413719666876200,0.844876220703125,0.0825759619474411,-0.15291205048561096,0.15042778849601746
1761413719676889000,0.85488916015625,0.026297790929675102,-0.17209786176681519,0.10145583748817444
1761413719686902000,0.864902099609375,-0.017310937866568565,-0.18645788729190826,0.07228516042232513
1761413719696916200,0.874916259765625,-0.03604201227426529,-0.19141429662704468,0.06685550510883331
1761413719706929200,0.88492919921875,-0.03923319652676582,-0.1862349808216095,0.08017683774232864
1761413719716942000,0.894942138671875,-0.033322982490062714,-0.1592433601617813,0.10461089015007019
1761413719726955300,0.904955322265625,-0.023281799629330635,-0.13239151239395142,0.12123461067676544
1761413719736969200,0.91496923828125,-0.008575543761253357,-0.10755128413438797,0.1218286007642746
1761413719746982100,0.924982177734375,0.0034592817537486553,-0.09187378734350204,0.09642896801233292
1761413719756995300,0.934995361328125,0.01833328790962696,-0.08005426824092865,0.0492032952606678
1761413719767008000,0.945008056640625,0.02723996341228485,-0.044403325766325,-0.0008540153503417969
1761413719777022200,0.955022216796875,0.048914406448602676,0.014213301241397858,-0.03984813764691353
1761413719787035100,0.96503515625,0.07615135610103607,0.09116534143686295,-0.065304234623909
1761413719797047800,0.9750478515625,0.10867023468017578,0.1653868556022644,-0.07423681020736694
1761413719807061000,0.98506103515625,0.14096984267234802,0.21656589210033417,-0.07482963055372238
1761413719817075000,0.995074951171875,0.17032942175865173,0.24057970941066742,-0.07057679444551468
1761413719827088000,1.005087890625,0.19126398861408234,0.23658975958824158,-0.07484690845012665
1761413719837101000,1.01510107421875,0.20728814601898193,0.19339320063591003,-0.08760800957679749
1761413719847113700,1.02511376953125,0.20964904129505157,0.11165492236614227,-0.11331310123205185
1761413719857128000,1.0351279296875,0.19909948110580444,0.0021346756257116795,-0.1445542722940445
1761413719867141000,1.04514111328125,0.18584147095680237,-0.11416130512952805,-0.18150536715984344
1761413719877153800,1.05515380859375,0.17555119097232819,-0.19534046947956085,-0.20159469544887543
1761413719887167000,1.0651669921875,0.16040286421775818,-0.2442595362663269,-0.21182097494602203
1761413719897180700,1.0751806640625,0.1499655842781067,-0.26656925678253174,-0.21074913442134857
1761413719907193900,1.08519384765625,0.14738552272319794,-0.2742692530155182,-0.1999169886112213
1761413719917207000,1.09520703125,0.1493869423866272,-0.2658429741859436,-0.18335694074630737
1761413719927220700,1.105220703125,0.15220190584659576,-0.25231412053108215,-0.16746212542057037
1761413719937234000,1.11523388671875,0.15339337289333344,-0.23331639170646667,-0.15697826445102692
1761413719947246800,1.125246826171875,0.16048963367938995,-0.22080112993717194,-0.14982715249061584
1761413719957259800,1.135259765625,0.1634000837802887,-0.2239835560321808,-0.16349723935127258
1761413719967274000,1.14527392578125,0.1584247648715973,-0.23333950340747833,-0.1745496243238449
1761413719977287000,1.155286865234375,0.15554605424404144,-0.2259950488805771,-0.1806284338235855
1761413719987299800,1.1652998046875,0.14752301573753357,-0.20125454664230347,-0.1713891178369522
1761413719997313000,1.17531298828125,0.1402091234922409,-0.16413603723049164,-0.14640499651432037
1761413720007326700,1.18532666015625,0.14051192998886108,-0.11810089647769928,-0.11880985647439957
1761413720017340000,1.19533984375,0.14741306006908417,-0.06548840552568436,-0.09525628387928009
1761413720027352800,1.205352783203125,0.1635052114725113,-0.017476676031947136,-0.08218841999769211
1761413720037366000,1.215365966796875,0.17470921576023102,0.020890582352876663,-0.08508211374282837
1761413720047380000,1.2253798828125,0.17478378117084503,0.055271729826927185,-0.10841087251901627
1761413720057393000,1.235392822265625,0.17231635749340057,0.08668956905603409,-0.1464938223361969
1761413720067405800,1.24540576171875,0.16225600242614746,0.11360000818967819,-0.1891709715127945
1761413720077418800,1.255418701171875,0.14505288004875183,0.14068885147571564,-0.2368941456079483
1761413720087433000,1.265432861328125,0.12723660469055176,0.15792137384414673,-0.27295148372650146
1761413720097446000,1.27544580078125,0.10248000174760818,0.1694788783788681,-0.2937678098678589
1761413720107458800,1.285458740234375,0.08324532210826874,0.172365203499794,-0.3005266487598419
1761413720117472000,1.295471923828125,0.0708259865641594,0.17663222551345825,-0.2904403805732727
1761413720127486000,1.30548583984375,0.0708257183432579,0.1867447793483734,-0.2763589024543762
1761413720137499000,1.315498779296875,0.07527240365743637,0.21796154975891113,-0.2528887391090393
1761413720147512000,1.325511962890625,0.07660691440105438,0.21668750047683716,-0.23441065847873688
1761413720157524700,1.335524658203125,0.08773485571146011,0.19933372735977173,-0.2134622484445572
1761413720167539000,1.3455390625,0.09193731844425201,0.16400796175003052,-0.2064269781112671
1761413720177552000,1.3555517578125,0.0915251225233078,0.10907942056655884,-0.20196229219436646
1761413720187564800,1.365564697265625,0.08209992945194244,0.048285044729709625,-0.1895972341299057
1761413720197578000,1.375577880859375,0.06574052572250366,-0.003435201710090041,-0.17697323858737946
1761413720207592000,1.385592041015625,0.04910535365343094,-0.050976090133190155,-0.1586696058511734
1761413720217604900,1.39560498046875,0.03516343981027603,-0.08820361644029617,-0.1453452706336975
1761413720227618000,1.4056181640625,0.025896970182657242,-0.11884115636348724,-0.12097308784723282
1761413720237631700,1.4156318359375,0.018559133633971214,-0.15429340302944183,-0.09922432899475098
1761413720247645000,1.42564501953125,0.017007842659950256,-0.20281939208507538,-0.07352828979492188
1761413720257658000,1.435658203125,0.013400448486208916,-0.24876084923744202,-0.047788217663764954
1761413720267670800,1.4456708984375,0.013724288903176785,-0.28732767701148987,-0.012965524569153786
1761413720277685000,1.45568505859375,0.007981393486261368,-0.32094401121139526,0.02002306468784809
1761413720287698000,1.465697998046875,0.00047287740744650364,-0.3305114209651947,0.05040387064218521
1761413720297710800,1.4757109375,-0.0013213490601629019,-0.32163912057876587,0.0750514417886734
1761413720307724000,1.48572412109375,-0.002957861637696624,-0.2992648482322693,0.09391221404075623
1761413720317737700,1.49573779296875,-0.01909707859158516,-0.2532215416431427,0.11381784081459045
1761413720327751000,1.5057509765625,-0.04057840630412102,-0.21197424829006195,0.12246991693973541
1761413720337764000,1.51576416015625,-0.06495582312345505,-0.1683671623468399,0.1091446578502655
1761413720347776800,1.52577685546875,-0.08702703565359116,-0.12305454164743423,0.08228188753128052
1761413720357791000,1.535791015625,-0.10985998064279556,-0.05902067944407463,0.056112680584192276
1761413720367804000,1.545803955078125,-0.13506360352039337,0.027004215866327286,0.03675362840294838
1761413720377816800,1.55581689453125,-0.15841250121593475,0.11019307374954224,0.019915925338864326
1761413720387830000,1.565830078125,-0.17369957268238068,0.19294202327728271,0.010883547365665436
1761413720397843700,1.57584375,-0.1887555718421936,0.2789928615093231,0.022581124678254128
1761413720407857000,1.58585693359375,-0.1963876485824585,0.3671128451824188,0.03926396369934082
1761413720417869800,1.595869873046875,-0.1826777160167694,0.40818801522254944,0.038847871124744415
1761413720427883000,1.605883056640625,-0.15539203584194183,0.3403943181037903,0.012753421440720558
1761413720437897000,1.61589697265625,-0.15439561009407043,0.20908547937870026,-0.02349984459578991
1761413720447910000,1.625909912109375,-0.20496797561645508,0.06218259036540985,-0.064150869846344
1761413720457922800,1.6359228515625,-0.27538159489631653,-0.08338764309883118,-0.10886168479919434
1761413720467935700,1.645935791015625,-0.3377637565135956,-0.19006241858005524,-0.1312900185585022
1761413720477950000,1.655949951171875,-0.37947461009025574,-0.2325507402420044,-0.11938602477312088
1761413720487963000,1.665962890625,-0.41920018196105957,-0.19349947571754456,-0.08907419443130493
1761413720497975800,1.675975830078125,-0.43999698758125305,-0.07685106992721558,-0.033253300935029984
1761413720507989000,1.685989013671875,-0.4401647746562958,0.0743861123919487,0.028046276420354843
1761413720518003000,1.6960029296875,-0.4156842827796936,0.23397035896778107,0.07467719167470932
1761413720528016000,1.706015869140625,-0.3619856536388397,0.3534674644470215,0.09770287573337555
1761413720538029000,1.716029052734375,-0.292695552110672,0.4174008071422577,0.0998506098985672
1761413720548041700,1.726041748046875,-0.2264462262392044,0.4379641115665436,0.10503871738910675
1761413720558056000,1.736055908203125,-0.18010003864765167,0.4296434819698334,0.12320748716592789
1761413720568068900,1.74606884765625,-0.15334539115428925,0.3988206088542938,0.16068774461746216
1761413720578081800,1.756081787109375,-0.13268746435642242,0.3553487956523895,0.224191352725029
1761413720588095000,1.766094970703125,-0.12560930848121643,0.2953464388847351,0.29544636607170105
1761413720598109000,1.77610888671875,-0.12798435986042023,0.2232702076435089,0.3708661198616028
1761413720608121900,1.786121826171875,-0.13853581249713898,0.14665451645851135,0.43598493933677673
1761413720618135000,1.796135009765625,-0.15386153757572174,0.07008392363786697,0.4855180084705353
1761413720628148000,1.80614794921875,-0.17717112600803375,-0.000299165491014719,0.49928492307662964
1761413720638162000,1.816161865234375,-0.1977771669626236,-0.05633934587240219,0.4899466037750244
1761413720648175000,1.826175048828125,-0.20323877036571503,-0.104807548224926,0.4480430781841278
1761413720658187800,1.836187744140625,-0.20208130776882172,-0.14113454520702362,0.392766535282135
1761413720668201000,1.846200927734375,-0.19160495698451996,-0.16557598114013672,0.3361613154411316
1761413720678215000,1.85621484375,-0.17596367001533508,-0.16902092099189758,0.28081801533699036
1761413720688227800,1.866227783203125,-0.15391401946544647,-0.1713370829820633,0.2330763190984726
1761413720698241000,1.876240966796875,-0.13149477541446686,-0.1986229419708252,0.20425917208194733
1761413720708254700,1.886254638671875,-0.12267836928367615,-0.23789897561073303,0.19026319682598114
1761413720718268000,1.896267822265625,-0.12743669748306274,-0.28138861060142517,0.1899527907371521
1761413720728281000,1.906281005859375,-0.1416553109884262,-0.31937646865844727,0.1972714215517044
1761413720738293800,1.916293701171875,-0.15822936594486237,-0.34648314118385315,0.1994449943304062
1761413720748308000,1.926307861328125,-0.16925565898418427,-0.3607150614261627,0.20064635574817657
1761413720758321000,1.93632080078125,-0.17166154086589813,-0.35448580980300903,0.1897384226322174
1761413720768333800,1.946333740234375,-0.1738370656967163,-0.33570361137390137,0.17091786861419678
1761413720778347000,1.956346923828125,-0.16743916273117065,-0.30774804949760437,0.13646286725997925
1761413720788361000,1.96636083984375,-0.1592334359884262,-0.26803311705589294,0.09853624552488327
1761413720798373600,1.97637353515625,-0.14581824839115143,-0.2217317372560501,0.05879191309213638
1761413720808386600,1.986386474609375,-0.1304483562707901,-0.17186565697193146,0.018798157572746277
1761413720818399700,1.996399658203125,-0.11389371752738953,-0.13232925534248352,-0.022912245243787766
1761413720828413700,2.00641357421875,-0.09524919092655182,-0.09788178652524948,-0.04790947213768959
1761413720838426600,2.016426513671875,-0.0802672952413559,-0.06816665083169937,-0.06987272948026657
1761413720848439800,2.026439697265625,-0.06976298987865448,-0.03794696182012558,-0.08623119443655014
1761413720858452500,2.036452392578125,-0.058868564665317535,-0.0010664192959666252,-0.09248477220535278
1761413720868466700,2.046466796875,-0.04962899163365364,0.04098888859152794,-0.09164507687091827
1761413720878479600,2.056479736328125,-0.03859425336122513,0.07752037048339844,-0.08574733138084412
1761413720888492500,2.066492431640625,-0.022991593927145004,0.10318285971879959,-0.07341796159744263
1761413720898505700,2.076505615234375,-0.014233458787202835,0.13073135912418365,-0.06501792371273041
1761413720908519700,2.086519775390625,-0.009724993258714676,0.1425403356552124,-0.0771225243806839
1761413720918532600,2.09653271484375,0.004202407319098711,0.1352013498544693,-0.09538460522890091
1761413720928545800,2.1065458984375,0.014334936626255512,0.12136143445968628,-0.1271800845861435
1761413720938558500,2.116558349609375,0.0193552915006876,0.09626670181751251,-0.16077378392219543
1761413720948572700,2.12657275390625,0.011884593404829502,0.07091101258993149,-0.18370600044727325
1761413720958585900,2.1365859375,-0.003338756738230586,0.05599129945039749,-0.19723962247371674
1761413720968598500,2.1465986328125,-0.02160191722214222,0.040598757565021515,-0.2000013142824173
1761413720978611700,2.15661181640625,-0.04057994484901428,0.026007194072008133,-0.20194917917251587
1761413720988625700,2.166625732421875,-0.05241183564066887,0.020311489701271057,-0.20151695609092712
1761413720998638600,2.176638671875,-0.060540709644556046,0.011803348548710346,-0.20106051862239838
1761413721008651800,2.18665185546875,-0.06680046766996384,0.007900485768914223,-0.21432918310165405
1761413721018664700,2.196664794921875,-0.06494301557540894,-0.002746441401541233,-0.22685222327709198
1761413721028678700,2.2066787109375,-0.0657225176692009,-0.008098862133920193,-0.24075844883918762
1761413721038691800,2.21669189453125,-0.06734441220760345,-0.009009195491671562,-0.2622206509113312
1761413721048704500,2.22670458984375,-0.06768609583377838,-0.005484235007315874,-0.28109100461006165
1761413721058717700,2.2367177734375,-0.06440553814172745,0.010104741901159286,-0.2964056730270386
1761413721068731600,2.246731689453125,-0.050072673708200455,0.030172724276781082,-0.29616281390190125
1761413721078744600,2.25674462890625,-0.03155169636011124,0.0590108297765255,-0.28165653347969055
1761413721088757800,2.2667578125,-0.008598444983363152,0.09799391776323318,-0.24998752772808075
1761413721098770700,2.276770751953125,0.02058528922498226,0.13599947094917297,-0.2010880708694458
1761413721108784600,2.28678466796875,0.052212193608284,0.16527453064918518,-0.14911222457885742
1761413721118797600,2.296797607421875,0.08312761038541794,0.17012442648410797,-0.1068682074546814
1761413721128810800,2.306810791015625,0.10744999349117279,0.15470579266548157,-0.08151518553495407
1761413721138823700,2.31682373046875,0.12170115858316422,0.11145901679992676,-0.07117094844579697
1761413721148837600,2.326837646484375,0.1230284795165062,0.05744079500436783,-0.08024326711893082
1761413721158850600,2.3368505859375,0.12026037275791168,0.0007954989559948444,-0.08969653397798538
1761413721168863700,2.34686376953125,0.11801666021347046,-0.0578497014939785,-0.09826205670833588
1761413721178876700,2.356876708984375,0.11624392122030258,-0.10204252600669861,-0.10359469056129456
1761413721188890600,2.366890625,0.11801359057426453,-0.13107231259346008,-0.10767465829849243
1761413721198903600,2.376903564453125,0.12993338704109192,-0.14171099662780762,-0.10989242792129517
1761413721208916700,2.386916748046875,0.1442238986492157,-0.1336810290813446,-0.10379725694656372
1761413721218929700,2.3969296875,0.1612374633550644,-0.10538237541913986,-0.09753222018480301
1761413721228943600,2.406943603515625,0.1849486529827118,-0.055388450622558594,-0.09276409447193146
1761413721238956800,2.416956787109375,0.2338796705007553,0.026119805872440338,-0.08350469172000885
1761413721248969500,2.426969482421875,0.2914651930332184,0.07608017325401306,-0.09274666011333466
1761413721258982700,2.436982666015625,0.3307560384273529,0.03964843600988388,-0.14881379902362823
1761413721268996600,2.44699658203125,0.33060184121131897,-0.031814027577638626,-0.2513313889503479
1761413721279009500,2.457009521484375,0.29677578806877136,-0.11755412817001343,-0.3703136742115021
1761413721289022700,2.467022705078125,0.25167250633239746,-0.23694950342178345,-0.46708494424819946
1761413721299035600,2.47703564453125,0.19499212503433228,-0.3641759157180786,-0.5144990682601929
1761413721309049600,2.487049560546875,0.14183275401592255,-0.47670140862464905,-0.4926646053791046
1761413721319062800,2.497062744140625,0.09402536600828171,-0.5605216026306152,-0.41174861788749695
1761413721329075500,2.507075439453125,0.0665130466222763,-0.5553398728370667,-0.27181440591812134
1761413721339088600,2.517088623046875,0.07197720557451248,-0.4557214677333832,-0.09702926874160767
1761413721349102800,2.527102783203125,0.11302664130926132,-0.2903173267841339,0.08550485968589783
1761413721359115500,2.537115478515625,0.1776009052991867,-0.11154050379991531,0.22735263407230377
1761413721369128700,2.547128662109375,0.25267115235328674,0.039118506014347076,0.314399391412735
1761413721379141600,2.5571416015625,0.31992390751838684,0.17029553651809692,0.332247257232666
1761413721389155600,2.567155517578125,0.3741892874240875,0.24650456011295319,0.2803262770175934
1761413721399168800,2.577168701171875,0.40060749650001526,0.2669275999069214,0.18466325104236603
1761413721409181700,2.587181640625,0.392333060503006,0.26079192757606506,0.08409561961889267
1761413721419194600,2.597194580078125,0.3626222312450409,0.2536071836948395,0.01697252318263054
1761413721429208800,2.607208740234375,0.31706327199935913,0.21935443580150604,0.006306563038378954
1761413721439221500,2.617221435546875,0.26517045497894287,0.1902989000082016,0.053950633853673935
1761413721449234700,2.627234619140625,0.2229660302400589,0.16833926737308502,0.14281046390533447
1761413721459247600,2.63724755859375,0.20220531523227692,0.16368155181407928,0.26280659437179565
1761413721469261600,2.647261474609375,0.19920526444911957,0.16082611680030823,0.3833468556404114
1761413721479274800,2.657274658203125,0.20989972352981567,0.14210453629493713,0.4769856333732605
1761413721489287700,2.66728759765625,0.22592556476593018,0.12222591787576675,0.5307378172874451
1761413721499300600,2.677300537109375,0.24745731055736542,0.08761291950941086,0.5447250604629517
1761413721509314800,2.687314697265625,0.2718191146850586,0.041127171367406845,0.5163738131523132
1761413721519327700,2.69732763671875,0.2828475832939148,-0.008313573896884918,0.45647132396698
1761413721529340700,2.707340576171875,0.2765084505081177,-0.0559130497276783,0.37113672494888306
1761413721539353600,2.717353515625,0.25002390146255493,-0.09870841354131699,0.2753230929374695
1761413721549367600,2.727367431640625,0.22242742776870728,-0.13597455620765686,0.1824226975440979
1761413721559380700,2.737380615234375,0.20054438710212708,-0.15403006970882416,0.11640430241823196
1761413721569393700,2.7473935546875,0.1766265481710434,-0.16085468232631683,0.07208104431629181
1761413721579406800,2.75740673828125,0.16098341345787048,-0.16707438230514526,0.05152741074562073
1761413721589420500,2.767420654296875,0.1502697914838791,-0.1670466810464859,0.04582371562719345
1761413721599433700,2.777433837890625,0.15256188809871674,-0.15768024325370789,0.03919501602649689
1761413721609446700,2.78744677734375,0.1648624986410141,-0.13930097222328186,0.02922946959733963
1761413721619459600,2.79745947265625,0.17508891224861145,-0.10446681082248688,0.012120911851525307
1761413721629473800,2.807473876953125,0.1881280243396759,-0.06479130685329437,-0.011109841987490654
1761413721639486500,2.817486572265625,0.19708263874053955,-0.035725392401218414,-0.039467278867959976
1761413721649499600,2.827499755859375,0.2001737803220749,-0.009721754118800163,-0.07132934033870697
1761413721659512800,2.837512939453125,0.20264655351638794,0.01689865067601204,-0.09269007295370102
1761413721669526500,2.847526611328125,0.20079591870307922,0.03904043883085251,-0.10536006093025208
1761413721679539700,2.857539794921875,0.20039516687393188,0.06441853940486908,-0.11159773170948029
1761413721689552600,2.867552734375,0.21305610239505768,0.0971895381808281,-0.11567982286214828
1761413721699565600,2.877565673828125,0.228096142411232,0.1406935155391693,-0.11709921807050705
1761413721709579800,2.887579833984375,0.2500171661376953,0.19446219503879547,-0.11247650533914566
1761413721719592400,2.897592529296875,0.2651904821395874,0.25602614879608154,-0.1071973666548729
1761413721729605600,2.907605712890625,0.27469077706336975,0.31259381771087646,-0.10687112808227539
1761413721739618600,2.91761865234375,0.27516353130340576,0.3510333001613617,-0.09801889955997467
1761413721749632500,2.927632568359375,0.26118940114974976,0.36859366297721863,-0.09725217521190643
1761413721759645700,2.937645751953125,0.24460652470588684,0.36087170243263245,-0.08841443061828613
1761413721769658600,2.94765869140625,0.22535480558872223,0.35074687004089355,-0.07301603257656097
1761413721779671600,2.957671630859375,0.20509034395217896,0.3381848931312561,-0.057087045162916183
1761413721789685800,2.967685791015625,0.1938997507095337,0.32429197430610657,-0.03388718143105507
1761413721799698400,2.977698486328125,0.18601994216442108,0.31558194756507874,-0.014083798974752426
1761413721809711400,2.98771142578125,0.18872065842151642,0.3171529471874237,0.01790076680481434
1761413721819724500,2.997724609375,0.19198644161224365,0.3207739293575287,0.05243472382426262
1761413721829738500,3.007738525390625,0.19844168424606323,0.3038388788700104,0.08574474602937698
1761413721839751400,3.01775146484375,0.20492053031921387,0.28103184700012207,0.11384515464305878
1761413721849764400,3.027764404296875,0.20590883493423462,0.2514609098434448,0.14722494781017303
1761413721859777500,3.037777587890625,0.1966266632080078,0.20893900096416473,0.17007647454738617
1761413721869791500,3.04779150390625,0.1838243007659912,0.15585047006607056,0.1793903410434723
1761413721879804400,3.057804443359375,0.1633225530385971,0.08943672478199005,0.178995743393898
1761413721889817600,3.067817626953125,0.14296162128448486,0.012258587405085564,0.16814923286437988
1761413721899830300,3.077830322265625,0.10981880128383636,-0.06851992011070251,0.15107306838035583
1761413721909843500,3.087843505859375,0.06808467209339142,-0.13550162315368652,0.1308349072933197
1761413721919857400,3.097857421875,0.02794870175421238,-0.18127363920211792,0.10880735516548157
1761413721929870300,3.107870361328125,-0.008849527686834335,-0.21808543801307678,0.09164062142372131
1761413721939883500,3.117883544921875,-0.03953510895371437,-0.24745939671993256,0.07682788372039795
1761413721949896400,3.127896484375,-0.07190343737602234,-0.2521420121192932,0.08034511655569077
1761413721959910400,3.137910400390625,-0.10419049859046936,-0.2535189688205719,0.08057136088609695
1761413721969923600,3.147923583984375,-0.15455779433250427,-0.26644623279571533,0.05584657937288284
1761413721979936300,3.157936279296875,-0.2127898782491684,-0.3026658296585083,0.0071478430181741714
1761413721989949400,3.167949462890625,-0.2703479528427124,-0.3413626253604889,-0.06265094131231308
1761413721999963600,3.177963623046875,-0.32030102610588074,-0.36674514412879944,-0.12756818532943726
1761413722009976300,3.187976318359375,-0.3612458109855652,-0.369126558303833,-0.1705220490694046
1761413722019989500,3.197989501953125,-0.39994311332702637,-0.32519400119781494,-0.17171093821525574
1761413722030002400,3.20800244140625,-0.4162493944168091,-0.2110287994146347,-0.1134369745850563
1761413722040016400,3.218016357421875,-0.4009605348110199,-0.01995752565562725,-0.01620580069720745
1761413722050029600,3.228029541015625,-0.3537975549697876,0.1440977305173874,0.06988833844661713
1761413722060042500,3.23804248046875,-0.3100920021533966,0.19293175637722015,0.09925583750009537
1761413722070055400,3.248055419921875,-0.2937484681606293,0.1546938121318817,0.07683388143777847
1761413722080069600,3.258069580078125,-0.3074079155921936,0.10051920264959335,0.019728604704141617
1761413722090082300,3.268082275390625,-0.34683603048324585,0.03614341467618942,-0.053467847406864166
1761413722100095500,3.278095458984375,-0.40331628918647766,0.021174073219299316,-0.126060351729393
1761413722110108400,3.2881083984375,-0.46326136589050293,0.06854823976755142,-0.1786913424730301
1761413722120122400,3.298122314453125,-0.5127617716789246,0.15579332411289215,-0.2215302735567093
1761413722130135600,3.308135498046875,-0.5322233438491821,0.22908884286880493,-0.24123845994472504
1761413722140148500,3.3181484375,-0.5472898483276367,0.2670009732246399,-0.2367168515920639
1761413722150161400,3.328161376953125,-0.5441241264343262,0.2601659893989563,-0.22810445725917816
1761413722160175600,3.338175537109375,-0.5170049667358398,0.226068913936615,-0.21616394817829132
1761413722170188500,3.3481884765625,-0.4767776131629944,0.17886757850646973,-0.2072141319513321
1761413722180201500,3.358201416015625,-0.4148649275302887,0.12147984653711319,-0.18218904733657837
1761413722190214400,3.36821435546875,-0.360219269990921,0.06521843373775482,-0.1293458193540573
1761413722200228400,3.378228271484375,-0.3112385869026184,0.02546633407473564,-0.06181814521551132
1761413722210241500,3.388241455078125,-0.2622936964035034,0.008751269429922104,0.013084592297673225
1761413722220254500,3.39825439453125,-0.20830568671226501,0.02344479039311409,0.0899561196565628
1761413722230267600,3.408267578125,-0.15529067814350128,0.04731709882616997,0.1594124287366867
1761413722240281300,3.41828125,-0.10544214397668839,0.0866401195526123,0.20838060975074768
1761413722250294500,3.42829443359375,-0.060249634087085724,0.12551508843898773,0.23577016592025757
1761413722260307500,3.438307373046875,-0.024212004616856575,0.14667177200317383,0.22991786897182465
1761413722270320400,3.4483203125,0.010146464221179485,0.15638385713100433,0.20800335705280304
1761413722280334600,3.45833447265625,0.04351077601313591,0.15982981026172638,0.1739717423915863
1761413722290347300,3.46834716796875,0.08310025930404663,0.1419365555047989,0.13053984940052032
1761413722300360400,3.4783603515625,0.13003553450107574,0.09963825345039368,0.0940411165356636
1761413722310373600,3.48837353515625,0.18505483865737915,0.05592113360762596,0.0817096158862114
1761413722320387300,3.49838720703125,0.22832411527633667,0.007873465307056904,0.08729179948568344
1761413722330400500,3.508400390625,0.262116938829422,-0.030481645837426186,0.09380801767110825
1761413722340413400,3.518413330078125,0.28766053915023804,-0.06137815862894058,0.0940951257944107
1761413722350426400,3.52842626953125,0.3070605993270874,-0.08789259195327759,0.08831793069839478
1761413722360440600,3.538440673828125,0.3153257966041565,-0.10879465937614441,0.07497968524694443
1761413722370453200,3.548453369140625,0.31463736295700073,-0.13893258571624756,0.04774114489555359
1761413722380466400,3.558466552734375,0.3063759207725525,-0.18760468065738678,0.017516303807497025
1761413722390479600,3.568479736328125,0.29418423771858215,-0.25296851992607117,-0.015465881675481796
1761413722400493300,3.578493408203125,0.276183545589447,-0.3250049650669098,-0.028939321637153625
1761413722410506500,3.588506591796875,0.2607004642486572,-0.40103447437286377,-0.027065521106123924
1761413722420519400,3.59851953125,0.24903656542301178,-0.46738746762275696,-0.0011066122679039836
1761413722430532400,3.608532470703125,0.23960363864898682,-0.5038756728172302,0.03537656366825104
1761413722440546600,3.618546630859375,0.2515222430229187,-0.47225040197372437,0.0953872948884964
1761413722450559500,3.6285595703125,0.26083555817604065,-0.38090211153030396,0.15590204298496246
1761413722460572400,3.638572509765625,0.29318246245384216,-0.258797287940979,0.21700003743171692
1761413722470585300,3.64858544921875,0.32731568813323975,-0.1185496598482132,0.25966042280197144
1761413722480598500,3.6585986328125,0.35685786604881287,0.012772293761372566,0.26891985535621643
1761413722490612500,3.668612548828125,0.37729203701019287,0.10530968010425568,0.24742282927036285
1761413722500625400,3.67862548828125,0.3859964907169342,0.18201442062854767,0.20144431293010712
1761413722510638600,3.688638671875,0.38757333159446716,0.24142076075077057,0.1487150490283966
1761413722520651300,3.6986513671875,0.38292402029037476,0.29118815064430237,0.1015297994017601
1761413722530665500,3.70866552734375,0.37030330300331116,0.3216768205165863,0.05318038538098335
1761413722540678400,3.718678466796875,0.35199832916259766,0.3284231424331665,0.025456078350543976
1761413722550691300,3.72869140625,0.32872629165649414,0.311163991689682,0.001822653692215681
1761413722560704500,3.73870458984375,0.3062918782234192,0.28431829810142517,-0.010203395038843155
1761413722570718500,3.748718505859375,0.28703829646110535,0.24913503229618073,-0.01823761872947216
1761413722580731400,3.7587314453125,0.2681017220020294,0.21304042637348175,-0.018565788865089417
1761413722590744600,3.76874462890625,0.2471306324005127,0.18528150022029877,-0.019650759175419807
1761413722600757200,3.77875732421875,0.22551767528057098,0.15941132605075836,-0.02403312735259533
1761413722610771500,3.788771484375,0.2005891501903534,0.1461959183216095,-0.029829498380422592
1761413722620784600,3.79878466796875,0.19282062351703644,0.17406189441680908,-0.049656663089990616
1761413722630797300,3.80879736328125,0.19276735186576843,0.20945504307746887,-0.07129484415054321
1761413722640810500,3.818810546875,0.18876373767852783,0.2524682581424713,-0.09760201722383499
1761413722650824400,3.828824462890625,0.18418043851852417,0.296836256980896,-0.1204061359167099
1761413722660837400,3.83883740234375,0.184417724609375,0.33451759815216064,-0.13254483044147491
1761413722670850600,3.8488505859375,0.18942633271217346,0.3560178279876709,-0.1446683406829834
1761413722680863500,3.858863525390625,0.19406728446483612,0.3543356955051422,-0.15097087621688843
1761413722690877400,3.86887744140625,0.1976172775030136,0.3327859342098236,-0.16472025215625763
1761413722700890600,3.878890625,0.1958804875612259,0.29364222288131714,-0.18522492051124573
1761413722710903300,3.8889033203125,0.19377578794956207,0.24734929203987122,-0.20165476202964783
1761413722720916500,3.89891650390625,0.18179313838481903,0.20081093907356262,-0.2080341875553131
1761413722730930700,3.9089306640625,0.17139989137649536,0.16595283150672913,-0.2003760039806366
1761413722740943400,3.918943359375,0.16103556752204895,0.1397475153207779,-0.1837775707244873
1761413722750956500,3.92895654296875,0.16500021517276764,0.12187902629375458,-0.16603292524814606
1761413722760969500,3.938969482421875,0.17695102095603943,0.1046854555606842,-0.15301255881786346
1761413722770983400,3.9489833984375,0.1966879665851593,0.08452053368091583,-0.14408349990844727
1761413722780996600,3.95899658203125,0.21117882430553436,0.052001193165779114,-0.13836230337619781
1761413722791009500,3.969009521484375,0.22014568746089935,0.006134634837508202,-0.13776415586471558
1761413722801022700,3.979022705078125,0.22028565406799316,-0.05305447056889534,-0.14385904371738434
1761413722811035600,3.98903564453125,0.2173420637845993,-0.12779422104358673,-0.16577419638633728
1761413722821049600,3.999049560546875,0.2058611959218979,-0.21821002662181854,-0.181963711977005
1761413722831062500,4.0090625,0.1781829595565796,-0.28269872069358826,-0.19821085035800934
1761413722841075700,4.01907568359375,0.15057745575904846,-0.3058185577392578,-0.19332066178321838
1761413722851088600,4.029088623046875,0.12640394270420074,-0.2900601029396057,-0.16740144789218903
1761413722861102600,4.0391025390625,0.12014076858758926,-0.2066354900598526,-0.11841314285993576
1761413722871115800,4.04911572265625,0.1492059826850891,-0.04940458759665489,-0.047965072095394135
1761413722881128400,4.05912841796875,0.2130138874053955,0.1550414115190506,0.02023078314960003
1761413722891141600,4.0691416015625,0.31057852506637573,0.27199894189834595,0.048311151564121246
1761413722901155600,4.079155517578125,0.3752096891403198,0.23970770835876465,0.013252662494778633
1761413722911168500,4.08916845703125,0.38505566120147705,0.18003852665424347,-0.05338628590106964
1761413722921181700,4.099181640625,0.3653016984462738,0.1375626176595688,-0.12427122890949249
1761413722931194600,4.109194580078125,0.3499794602394104,0.10748700797557831,-0.17721247673034668
1761413722941208600,4.11920849609375,0.3364553451538086,0.07534319907426834,-0.18902911245822906
1761413722951221800,4.1292216796875,0.3121074140071869,0.032339803874492645,-0.15431399643421173
1761413722961234700,4.139234619140625,0.288176029920578,0.002055710181593895,-0.09041919559240341
1761413722971247600,4.14924755859375,0.27580776810646057,-0.021153206005692482,-0.007429501973092556
1761413722981261800,4.15926171875,0.28378647565841675,-0.031234007328748703,0.07034377753734589
1761413722991274500,4.1692744140625,0.30572956800460815,-0.029695499688386917,0.12302563339471817
1761413723001287700,4.17928759765625,0.34032195806503296,-0.014293189160525799,0.1497676521539688
1761413723011300600,4.189300537109375,0.36766862869262695,0.013410610146820545,0.15195782482624054
1761413723021314600,4.199314453125,0.383677214384079,0.046822674572467804,0.14214247465133667
1761413723031327700,4.20932763671875,0.3886474668979645,0.06708799302577972,0.12892094254493713
1761413723041340700,4.219340576171875,0.39120417833328247,0.07103656232357025,0.1276501715183258
1761413723051353600,4.229353515625,0.3892371654510498,0.07027756422758102,0.1355626881122589
1761413723061367800,4.239367919921875,0.3846825063228607,0.0674971416592598,0.16174530982971191
1761413723071380700,4.249380615234375,0.38757631182670593,0.06862791627645493,0.19691048562526703
1761413723081393700,4.2593935546875,0.39415833353996277,0.07022374868392944,0.24282929301261902
1761413723091406600,4.269406494140625,0.40434199571609497,0.08812311291694641,0.28973981738090515
1761413723101420500,4.279420654296875,0.42289939522743225,0.11349499225616455,0.3221677541732788
1761413723111433700,4.289433837890625,0.45167219638824463,0.13488522171974182,0.3392157256603241
1761413723121446700,4.29944677734375,0.47783607244491577,0.14981305599212646,0.3366495966911316
1761413723131459800,4.3094599609375,0.508009672164917,0.16317439079284668,0.31228938698768616
1761413723141472500,4.319472412109375,0.5359976291656494,0.17587512731552124,0.26831406354904175
1761413723151486700,4.32948681640625,0.5628359317779541,0.16193801164627075,0.20933623611927032
1761413723161499600,4.339499755859375,0.5731402039527893,0.10588672757148743,0.14652398228645325
1761413723171512600,4.3495126953125,0.5738110542297363,0.0189044252038002,0.08204911649227142
1761413723181525800,4.35952587890625,0.5666466951370239,-0.07354239374399185,0.02512744441628456
1761413723191539700,4.369539794921875,0.5553429126739502,-0.146857351064682,-0.008599894121289253
1761413723201552600,4.379552734375,0.5508190393447876,-0.20451687276363373,-0.006678435020148754
1761413723211565800,4.38956591796875,0.5547088384628296,-0.24221205711364746,0.03454729914665222
1761413723221578500,4.39957861328125,0.5759240388870239,-0.2582757771015167,0.09730711579322815
1761413723231592700,4.4095927734375,0.6068204045295715,-0.24777336418628693,0.16479507088661194
1761413723241605600,4.419605712890625,0.6466236114501953,-0.2315804362297058,0.20712286233901978
1761413723251618600,4.42961865234375,0.6853297352790833,-0.2107478529214859,0.21446731686592102
1761413723261631700,4.4396318359375,0.7221696972846985,-0.18555480241775513,0.18015819787979126
1761413723271645400,4.4496455078125,0.7531888484954834,-0.14736400544643402,0.11879231780767441
1761413723281658600,4.45965869140625,0.7764574289321899,-0.10063725709915161,0.04485576972365379
1761413723291671800,4.469671875,0.7972561717033386,-0.03685934096574783,-0.01937967538833618
1761413723301684700,4.479684814453125,0.8146331310272217,0.01954403519630432,-0.06533205509185791
1761413723311698700,4.48969873046875,0.826188325881958,0.08948476612567902,-0.09762901067733765
1761413723321711600,4.499711669921875,0.8459882140159607,0.1389731466770172,-0.11554660648107529
1761413723331724500,4.509724609375,0.8622470498085022,0.17822973430156708,-0.12312623113393784
1761413723341737700,4.51973779296875,0.8817356824874878,0.2093009650707245,-0.12821237742900848
1761413723351750700,4.529750732421875,0.8986963033676147,0.21995094418525696,-0.12138243019580841
1761413723361764600,4.5397646484375,0.907685399055481,0.21938329935073853,-0.1182132288813591
1761413723371777800,4.54977783203125,0.9120846390724182,0.20595456659793854,-0.11790723353624344
1761413723381790700,4.559790771484375,0.9134774804115295,0.18590176105499268,-0.12402904033660889
1761413723391803600,4.5698037109375,0.9089413285255432,0.15855802595615387,-0.14065700769424438
1761413723401817600,4.579817626953125,0.8984829783439636,0.1281241923570633,-0.16840288043022156
1761413723411830800,4.589830810546875,0.8821240067481995,0.1076601892709732,-0.19937171041965485
1761413723421843700,4.59984375,0.8605263233184814,0.11371734738349915,-0.22133076190948486
1761413723431856600,4.609856689453125,0.8486198782920837,0.13003161549568176,-0.2369195818901062
1761413723441870600,4.61987060546875,0.8462567329406738,0.15814533829689026,-0.249049574136734
1761413723451883500,4.629883544921875,0.8545897603034973,0.18678443133831024,-0.2482423633337021
1761413723461896700,4.639896728515625,0.8698659539222717,0.20242947340011597,-0.2515026032924652
1761413723471910000,4.649909912109375,0.880967915058136,0.20512618124485016,-0.2533729672431946
1761413723481923600,4.659923583984375,0.8941179513931274,0.20803865790367126,-0.24431833624839783
1761413723491936800,4.669936767578125,0.9084897041320801,0.2125748246908188,-0.2215200811624527
1761413723501949400,4.679949462890625,0.9251347780227661,0.21732647716999054,-0.19481311738491058
1761413723511962600,4.689962646484375,0.9379067420959473,0.2087835967540741,-0.16699427366256714
1761413723521976800,4.699976806640625,0.9476722478866577,0.19538730382919312,-0.12928709387779236
1761413723531989500,4.709989501953125,0.9560723900794983,0.182358056306839,-0.089527428150177
1761413723542002700,4.720002685546875,0.955253005027771,0.17038586735725403,-0.05013955757021904
1761413723552015600,4.730015625,0.9577537178993225,0.1673935353755951,-0.016239915043115616
1761413723562028500,4.740028564453125,0.953152060508728,0.1641233116388321,0.008682584390044212
1761413723572042800,4.750042724609375,0.9418677091598511,0.16221728920936584,0.019171977415680885
1761413723582055700,4.7600556640625,0.930390477180481,0.1659289002418518,0.026093602180480957
1761413723592068600,4.770068603515625,0.9131054878234863,0.1695239096879959,0.015247877687215805
1761413723602081800,4.780081787109375,0.8926262855529785,0.17026613652706146,-0.001441353466361761
1761413723612095500,4.790095458984375,0.8592936396598816,0.1648111790418625,-0.016903400421142578
1761413723622108700,4.800108642578125,0.8223682045936584,0.151140958070755,-0.028959276154637337
1761413723632121600,4.81012158203125,0.7790577411651611,0.13401097059249878,-0.03366268426179886
1761413723642134800,4.820134765625,0.7300164103507996,0.10266121476888657,-0.03842027485370636
1761413723652148700,4.830148681640625,0.6782491207122803,0.0724114328622818,-0.03963600844144821
1761413723662161700,4.84016162109375,0.6310086846351624,0.052861347794532776,-0.029535535722970963
1761413723672174600,4.850174560546875,0.582990288734436,0.060318462550640106,-0.0436478927731514
1761413723682187500,4.8601875,0.5438895225524902,0.0718880221247673,-0.06841430068016052
1761413723692201700,4.87020166015625,0.5120381712913513,0.09531211853027344,-0.10317840427160263
1761413723702214700,4.880214599609375,0.48421183228492737,0.13030177354812622,-0.14541593194007874
1761413723712227600,4.8902275390625,0.45999571681022644,0.1706039160490036,-0.1828107088804245
1761413723722240800,4.90024072265625,0.4387933313846588,0.22741980850696564,-0.2175394594669342
1761413723732254700,4.910254638671875,0.4304797351360321,0.27254122495651245,-0.2371661514043808
1761413723742267600,4.920267578125,0.43203964829444885,0.3181834816932678,-0.22912466526031494
1761413723752280800,4.93028076171875,0.44593629240989685,0.37480413913726807,-0.19285187125205994
1761413723762293500,4.94029345703125,0.4702739715576172,0.40274548530578613,-0.14989042282104492
1761413723772306700,4.950306640625,0.5055360794067383,0.36025288701057434,-0.12473127245903015
1761413723782320600,4.960320556640625,0.5180532932281494,0.2650129199028015,-0.12851916253566742
1761413723792333600,4.97033349609375,0.493951678276062,0.1961957812309265,-0.15417659282684326
1761413723802346800,4.9803466796875,0.45075419545173645,0.1655159294605255,-0.19162863492965698
1761413723812360000,4.99035986328125,0.40848928689956665,0.1453305035829544,-0.2443498969078064
1761413723822374000,5.000373779296875,0.3686447739601135,0.12393176555633545,-0.3123990595340729
1761413723832386800,5.01038671875,0.32488423585891724,0.10976294428110123,-0.39275941252708435
1761413723842399700,5.020399658203125,0.2894257605075836,0.1176418885588646,-0.4590606093406677
1761413723852413000,5.030412841796875,0.27456822991371155,0.14714118838310242,-0.5009062886238098
1761413723862427000,5.040427001953125,0.27678415179252625,0.18252786993980408,-0.5086193084716797
1761413723872439800,5.050439697265625,0.29342490434646606,0.21350736916065216,-0.4829980731010437
1761413723882452700,5.06045263671875,0.3102878928184509,0.217951700091362,-0.4222612977027893
1761413723892466000,5.0704658203125,0.3297356367111206,0.21871230006217957,-0.3372412323951721
1761413723902478800,5.080478759765625,0.35189512372016907,0.2140624225139618,-0.23857468366622925
1761413723912492800,5.090492919921875,0.3821592628955841,0.20944583415985107,-0.11704453080892563
1761413723922505700,5.100505615234375,0.40474197268486023,0.20908311009407043,-0.0008104754379019141
1761413723932518700,5.1105185546875,0.41318124532699585,0.20160895586013794,0.10027007013559341
1761413723942531800,5.12053173828125,0.4143218696117401,0.19205793738365173,0.1856362670660019
1761413723952545800,5.1305458984375,0.4001613259315491,0.17861483991146088,0.2425631880760193
1761413723962558700,5.140558837890625,0.3737407922744751,0.14881883561611176,0.2775777280330658
1761413723972572000,5.150572021484375,0.33591726422309875,0.11474315822124481,0.29588669538497925
1761413723982584800,5.160584716796875,0.2980601489543915,0.07141733169555664,0.30215826630592346
1761413723992598800,5.170598876953125,0.25993406772613525,0.029983345419168472,0.302002489566803
1761413724002612000,5.180612060546875,0.2142048329114914,-0.005678409710526466,0.29213351011276245
1761413724012624600,5.190624755859375,0.17538365721702576,-0.022678164765238762,0.2658156156539917
1761413724022637800,5.200637939453125,0.151624396443367,-0.03146692365407944,0.23417095839977264
1761413724032651800,5.21065185546875,0.13989077508449554,-0.047158800065517426,0.1849871575832367
1761413724042664700,5.220664794921875,0.13190025091171265,-0.06505858153104782,0.13126011192798615
1761413724052678000,5.230677978515625,0.12092456221580505,-0.07320225983858109,0.07699660956859589
1761413724062690800,5.24069091796875,0.09764762967824936,-0.07823998481035233,0.014668282121419907
1761413724072704800,5.250704833984375,0.06916005909442902,-0.07357199490070343,-0.04168127849698067
1761413724082718000,5.260718017578125,0.03270046412944794,-0.07314854860305786,-0.09430547803640366
1761413724092731000,5.27073095703125,-0.018150201067328453,-0.08005732297897339,-0.1472557932138443
1761413724102743800,5.280743896484375,-0.07548333704471588,-0.08760935813188553,-0.18869833648204803
1761413724112756700,5.2907568359375,-0.12898331880569458,-0.10709091275930405,-0.21904559433460236
1761413724122770700,5.300770751953125,-0.16767269372940063,-0.12722864747047424,-0.22717854380607605
1761413724132783900,5.310783935546875,-0.19114871323108673,-0.1529633104801178,-0.22763368487358093
1761413724142796800,5.320796875,-0.19884100556373596,-0.18325021862983704,-0.21857291460037231
1761413724152810000,5.33081005859375,-0.19471204280853271,-0.20821017026901245,-0.19513949751853943
1761413724162824000,5.340823974609375,-0.16181454062461853,-0.21335874497890472,-0.14562909305095673
1761413724172836900,5.3508369140625,-0.11230743676424026,-0.21100689470767975,-0.07443375140428543
1761413724182849800,5.360849853515625,-0.05698802322149277,-0.20880624651908875,-0.000885111978277564
1761413724192862700,5.37086279296875,-0.0019902843050658703,-0.20082609355449677,0.06750299781560898
1761413724202877000,5.380876953125,0.04233860224485397,-0.18295316398143768,0.11897485703229904
1761413724212889900,5.390889892578125,0.0784073919057846,-0.15232175588607788,0.14161653816699982
1761413724222902800,5.40090283203125,0.1016896665096283,-0.12223155051469803,0.14569470286369324
1761413724232916000,5.410916015625,0.1145458072423935,-0.09377381205558777,0.13148407638072968
1761413724242928600,5.4209287109375,0.12093212455511093,-0.0880548357963562,0.11439621448516846
1761413724252942800,5.43094287109375,0.12367118149995804,-0.08728545904159546,0.09320730715990067
1761413724262956000,5.4409560546875,0.13264448940753937,-0.09131317585706711,0.0779564380645752
1761413724272968700,5.45096875,0.1374320536851883,-0.08404061198234558,0.06628167629241943
1761413724282982000,5.46098193359375,0.1465071588754654,-0.0661933571100235,0.0574500747025013
1761413724292995800,5.470995849609375,0.15439410507678986,-0.049806397408246994,0.03839622437953949
1761413724303008800,5.4810087890625,0.1639351099729538,-0.02539876662194729,0.021347787231206894
1761413724313022000,5.49102197265625,0.1706332266330719,0.0019444404169917107,0.007344886194914579
1761413724323035000,5.501034912109375,0.18263177573680878,0.031382180750370026,-0.0038885814137756824
1761413724333048800,5.511048828125,0.19447273015975952,0.06748239696025848,-0.011180050671100616
1761413724343062000,5.52106201171875,0.20906288921833038,0.10446222871541977,-0.025088464841246605
1761413724353074700,5.53107470703125,0.21873575448989868,0.13702604174613953,-0.04347705841064453
1761413724363088000,5.541087890625,0.221318781375885,0.15897347033023834,-0.06624917685985565
1761413724373101800,5.551101806640625,0.21265365183353424,0.15999585390090942,-0.08928099274635315
1761413724383114800,5.56111474609375,0.20041410624980927,0.13903215527534485,-0.11389090120792389
1761413724393128000,5.5711279296875,0.19186030328273773,0.11016295105218887,-0.13187895715236664
1761413724403140900,5.581140869140625,0.18615210056304932,0.08717174082994461,-0.13463282585144043
1761413724413153800,5.59115380859375,0.171012282371521,0.08905752003192902,-0.12348270416259766
1761413724423168000,5.60116796875,0.1517181396484375,0.11083109676837921,-0.10212530940771103
1761413724433181000,5.611180908203125,0.13370026648044586,0.1481715440750122,-0.07923571020364761
1761413724443193900,5.62119384765625,0.11774694919586182,0.18882866203784943,-0.0552775040268898
1761413724453206800,5.631206787109375,0.1025160625576973,0.22692278027534485,-0.03546092286705971
1761413724463220700,5.641220703125,0.09496204555034637,0.2470589280128479,-0.036018647253513336
1761413724473234000,5.65123388671875,0.0926099419593811,0.2452183961868286,-0.05338086187839508
1761413724483246800,5.661246826171875,0.09429687261581421,0.2210339903831482,-0.09186733514070511
1761413724493260000,5.671260009765625,0.09791557490825653,0.18452125787734985,-0.1316826492547989
1761413724503272700,5.681272705078125,0.10263603180646896,0.13258162140846252,-0.1684691607952118
1761413724513287000,5.691286865234375,0.1055268943309784,0.07747922092676163,-0.1973346322774887
1761413724523299800,5.7012998046875,0.11524730175733566,0.032171934843063354,-0.1954772174358368
1761413724533312800,5.711312744140625,0.12209934741258621,-0.0036449176259338856,-0.1715782880783081
1761413724543326000,5.721325927734375,0.13402120769023895,-0.02859126776456833,-0.1268749237060547
1761413724553339600,5.731339599609375,0.14339500665664673,-0.042941175401210785,-0.06339608132839203
1761413724563352800,5.741352783203125,0.16567932069301605,-0.0649263858795166,0.007672697771340609
1761413724573366000,5.751365966796875,0.18730126321315765,-0.07421895116567612,0.080575130879879
1761413724583378700,5.761378662109375,0.22360031306743622,-0.05548662692308426,0.1370120644569397
1761413724593393000,5.771392822265625,0.2861819267272949,-0.020758207887411118,0.1703615039587021
1761413724603405800,5.78140576171875,0.36563149094581604,-0.06672649830579758,0.15436948835849762
1761413724613418800,5.791418701171875,0.4249472916126251,-0.17919620871543884,0.09783675521612167
1761413724623432000,5.801431884765625,0.4318373203277588,-0.2729736566543579,0.020934060215950012
1761413724633445600,5.811445556640625,0.4024738371372223,-0.30480507016181946,-0.049259405583143234
1761413724643458800,5.821458740234375,0.39009639620780945,-0.29390278458595276,-0.0688275545835495
1761413724653471700,5.8314716796875,0.3906777799129486,-0.25619399547576904,-0.03606986999511719
1761413724663485000,5.84148486328125,0.4225202202796936,-0.17246857285499573,0.05306169390678406
1761413724673497900,5.851497802734375,0.4920681416988373,-0.013478930108249187,0.18596461415290833
1761413724683511800,5.86151171875,0.5873962044715881,0.13631777465343475,0.3060031831264496
1761413724693524700,5.871524658203125,0.6686159372329712,0.2209077626466751,0.38256266713142395
1761413724703538000,5.881537841796875,0.7296645641326904,0.24369461834430695,0.4156656861305237
1761413724713550800,5.89155078125,0.7658795118331909,0.2367677390575409,0.41509926319122314
1761413724723564800,5.901564697265625,0.7696977257728577,0.21432742476463318,0.3944842517375946
1761413724733577700,5.91157763671875,0.7469503283500671,0.17432008683681488,0.362285315990448
1761413724743591000,5.9215908203125,0.7044264674186707,0.08791932463645935,0.3353746235370636
1761413724753603800,5.931603759765625,0.641856849193573,-0.016553016379475594,0.3124693036079407
1761413724763616800,5.94161669921875,0.5711917281150818,-0.1201922595500946,0.30343082547187805
1761413724773631000,5.951630859375,0.5006243586540222,-0.21716061234474182,0.29802969098091125
1761413724783643600,5.9616435546875,0.43619057536125183,-0.29544535279273987,0.29999232292175293
1761413724793656000,5.971656005859375,0.37959760427474976,-0.36091941595077515,0.31133419275283813
1761413724803669200,5.981669189453125,0.3280729651451111,-0.4007909893989563,0.3154028356075287
1761413724813683200,5.99168310546875,0.28713753819465637,-0.42165765166282654,0.30733397603034973
1761413724823696100,6.001696044921875,0.26526498794555664,-0.41312408447265625,0.2864540219306946
1761413724833709300,6.011709228515625,0.26042959094047546,-0.38468921184539795,0.2560877799987793
1761413724843722000,6.021721923828125,0.2640204429626465,-0.33584973216056824,0.23640641570091248
1761413724853736200,6.031736083984375,0.2766033411026001,-0.2700110673904419,0.23700882494449615
1761413724863749400,6.041749267578125,0.3053683638572693,-0.16442081332206726,0.24900415539741516
1761413724873762000,6.051761962890625,0.35082346200942993,-0.01946229115128517,0.2650507688522339
1761413724883775200,6.061775146484375,0.4156342148780823,0.1280355006456375,0.26499420404434204
1761413724893788200,6.0717880859375,0.47928324341773987,0.23204658925533295,0.23940922319889069
1761413724903802000,6.081802001953125,0.5428449511528015,0.32464852929115295,0.20235802233219147
1761413724913815300,6.091815185546875,0.6023178696632385,0.38141700625419617,0.14860717952251434
1761413724923828200,6.101828125,0.6502066254615784,0.39091649651527405,0.10335282981395721
1761413724933841200,6.111841064453125,0.6747356653213501,0.35723602771759033,0.057019416242837906
1761413724943855400,6.12185546875,0.6929152011871338,0.2954452335834503,0.006197144277393818
1761413724953868000,6.131867919921875,0.7060059309005737,0.2264845371246338,-0.037705596536397934
1761413724963881200,6.141881103515625,0.7227251529693604,0.16280563175678253,-0.0544019378721714
1761413724973894100,6.15189404296875,0.7309114336967468,0.11130063235759735,-0.05814501270651817
1761413724983908000,6.161908203125,0.7334600687026978,0.06590105593204498,-0.05228622257709503
1761413724993921300,6.17192138671875,0.7416833639144897,0.030227478593587875,-0.0562620535492897
1761413725003934200,6.181934326171875,0.7533400058746338,0.005778859835118055,-0.07157682627439499
1761413725013947100,6.191947021484375,0.7737448811531067,-0.006143313366919756,-0.10136321932077408
1761413725023960000,6.2019599609375,0.7994024157524109,-0.004171732813119888,-0.13379120826721191
1761413725033974300,6.211974365234375,0.8299238681793213,0.009335021488368511,-0.15779241919517517
1761413725043987200,6.2219873046875,0.8555585741996765,0.029062077403068542,-0.17618632316589355
1761413725054000000,6.232000244140625,0.8846203088760376,0.06046394258737564,-0.18281680345535278
1761413725064013300,6.242013427734375,0.9120622873306274,0.09181085228919983,-0.18069110810756683
1761413725074027300,6.25202734375,0.9398906826972961,0.1158437505364418,-0.17865832149982452
1761413725084040200,6.262040283203125,0.9607896208763123,0.1336773931980133,-0.1824631243944168
1761413725094053400,6.272053466796875,0.9702560901641846,0.14964811503887177,-0.2025473564863205
1761413725104066000,6.282066162109375,0.9741042256355286,0.1595422625541687,-0.23277096450328827
1761413725114080300,6.292080322265625,0.978854775428772,0.15947647392749786,-0.26407191157341003
1761413725124093200,6.30209326171875,0.9759835600852966,0.15256395936012268,-0.2869212329387665
1761413725134106000,6.312106201171875,0.9716873168945312,0.14255234599113464,-0.2966574728488922
1761413725144119300,6.322119384765625,0.9656739830970764,0.14288434386253357,-0.29215532541275024
1761413725154132200,6.33213232421875,0.9639389514923096,0.14466838538646698,-0.27712282538414
1761413725164146200,6.342146240234375,0.9724222421646118,0.1495811641216278,-0.2526358664035797
1761413725174159400,6.352159423828125,0.9753112196922302,0.16280855238437653,-0.22872067987918854
1761413725184172000,6.362172119140625,0.9850267767906189,0.18150824308395386,-0.21524029970169067
1761413725194185200,6.372185302734375,0.9897820949554443,0.20349103212356567,-0.20536716282367706
1761413725204199400,6.382199462890625,1.0014320611953735,0.23128174245357513,-0.1956654191017151
1761413725214212000,6.392212158203125,1.001977801322937,0.2538538873195648,-0.18630920350551605
1761413725224225300,6.402225341796875,0.9983130097389221,0.25744882225990295,-0.19013041257858276
1761413725234238200,6.41223828125,0.9922013282775879,0.24781376123428345,-0.19488362967967987
1761413725244251100,6.422251220703125,0.9817975759506226,0.23388567566871643,-0.19480979442596436
1761413725254265300,6.432265380859375,0.9697206616401672,0.21549096703529358,-0.1904027909040451
1761413725264278300,6.4422783203125,0.955594003200531,0.1975868046283722,-0.1799377053976059
1761413725274291200,6.452291259765625,0.9440260529518127,0.18348217010498047,-0.16721391677856445
1761413725284304100,6.46230419921875,0.938209593296051,0.17827561497688293,-0.14422069489955902
1761413725294318000,6.472318115234375,0.9332438707351685,0.18394123017787933,-0.11891639977693558
1761413725304331300,6.482331298828125,0.9229112267494202,0.18522001802921295,-0.09110359847545624
1761413725314344200,6.49234423828125,0.9077844619750977,0.18156562745571136,-0.06765659153461456
1761413725324357400,6.502357421875,0.8849553465843201,0.16957679390907288,-0.05029476806521416
1761413725334370000,6.5123701171875,0.8612135648727417,0.15293443202972412,-0.036086805164813995
1761413725344384300,6.52238427734375,0.8312512636184692,0.13077226281166077,-0.02569863200187683
1761413725354397200,6.532397216796875,0.8033679723739624,0.11653739213943481,-0.0049765752628445625
1761413725364410000,6.54241015625,0.7741049528121948,0.1132318377494812,0.023287424817681313
1761413725374423300,6.55242333984375,0.7546356320381165,0.113938108086586,0.05179629847407341
1761413725384437000,6.56243701171875,0.7403191924095154,0.11760014295578003,0.08395106345415115
1761413725394450200,6.5724501953125,0.7328194379806519,0.12436457723379135,0.11625547707080841
1761413725404463400,6.58246337890625,0.7295544147491455,0.12122246623039246,0.1430063396692276
1761413725414476000,6.59247607421875,0.7285298705101013,0.1171150803565979,0.15964338183403015
1761413725424490200,6.602490234375,0.7188791632652283,0.11073435842990875,0.16921067237854004
1761413725434503400,6.61250341796875,0.7086744904518127,0.09680283069610596,0.17421182990074158
1761413725444516000,6.62251611328125,0.6949635744094849,0.08043751865625381,0.16879671812057495
1761413725454529300,6.632529296875,0.6737592220306396,0.05519634112715721,0.16250313818454742
1761413725464542200,6.642542236328125,0.6471965909004211,0.02844138629734516,0.14540192484855652
1761413725474556200,6.65255615234375,0.6173452138900757,-0.0004094373434782028,0.130459725856781
1761413725484569300,6.6625693359375,0.5851610898971558,-0.025727298110723495,0.11183550953865051
1761413725494582300,6.672582275390625,0.5528113842010498,-0.038107000291347504,0.09928803145885468
1761413725504595200,6.68259521484375,0.5218898057937622,-0.04269261658191681,0.08766570687294006
1761413725514609200,6.692609130859375,0.5082418918609619,-0.0018378605600446463,0.08490560203790665
1761413725524622000,6.7026220703125,0.4929981529712677,0.03752577304840088,0.08131706714630127
1761413725534635300,6.71263525390625,0.4862483739852905,0.06903470307588577,0.07897588610649109
1761413725544648200,6.722648193359375,0.4865308701992035,0.06637974828481674,0.06889130175113678
1761413725554661400,6.732661376953125,0.48151081800460815,0.01859038881957531,0.03953288123011589
1761413725564675000,6.742675048828125,0.4586569368839264,-0.033616408705711365,0.005490965209901333
1761413725574688300,6.752688232421875,0.4250986874103546,-0.07119041681289673,-0.03975720703601837
1761413725584701200,6.762701171875,0.39450502395629883,-0.0851375013589859,-0.07934539765119553
1761413725594714000,6.772714111328125,0.369163453578949,-0.07135431468486786,-0.11914314329624176
1761413725604728300,6.782728271484375,0.3537568747997284,-0.02232975885272026,-0.14438173174858093
1761413725614741000,6.792740966796875,0.34914377331733704,0.05630353465676308,-0.15694811940193176
1761413725624754200,6.802754150390625,0.3584601879119873,0.14642375707626343,-0.14658120274543762
1761413725634767400,6.812767333984375,0.38289469480514526,0.24090632796287537,-0.125128373503685
1761413725644780000,6.822780029296875,0.4298612177371979,0.31720733642578125,-0.11065246164798737
1761413725654794200,6.832794189453125,0.4819057583808899,0.3685610592365265,-0.09908235818147659
1761413725664807200,6.84280712890625,0.5305373072624207,0.3971082866191864,-0.07608763128519058
1761413725674820000,6.852820068359375,0.5689499378204346,0.4099428653717041,-0.05461243540048599
1761413725684833300,6.862833251953125,0.5960754156112671,0.40425077080726624,-0.018785690888762474
1761413725694846200,6.87284619140625,0.6118991374969482,0.38527894020080566,0.009844090789556503
1761413725704860200,6.882860107421875,0.6186081171035767,0.36068809032440186,0.03357338160276413
1761413725714873300,6.892873291015625,0.6243551969528198,0.3335680663585663,0.0459139421582222
1761413725724886300,6.90288623046875,0.6229045391082764,0.30620506405830383,0.05265115946531296
1761413725734899200,6.912899169921875,0.6007832884788513,0.2676827311515808,0.04773842915892601
1761413725744913200,6.9229130859375,0.5679996013641357,0.213778555393219,0.017375171184539795
1761413725754926000,6.932926025390625,0.5317718386650085,0.1522563397884369,-0.027037566527724266
1761413725764939300,6.942939208984375,0.4890230894088745,0.09494701027870178,-0.07384902983903885
1761413725774952200,6.9529521484375,0.44444364309310913,0.046291057020425797,-0.1256813257932663
1761413725784965400,6.96296533203125,0.40297451615333557,-0.0056106336414813995,-0.1636722981929779
1761413725794979800,6.972979736328125,0.36305612325668335,-0.05735531821846962,-0.17279787361621857
1761413725804993000,6.982992919921875,0.3296930491924286,-0.11001981049776077,-0.15305893123149872
1761413725815005700,6.993005615234375,0.2959526777267456,-0.1364935040473938,-0.1065569519996643
1761413725825019000,7.003018798828125,0.2729068696498871,-0.13628098368644714,-0.04587429016828537
1761413725835032800,7.01303271484375,0.2505893111228943,-0.11775577068328857,0.026676608249545097
1761413725845045800,7.023045654296875,0.24635960161685944,-0.08290527760982513,0.08942990750074387
1761413725855059000,7.033058837890625,0.24872155487537384,-0.023232625797390938,0.13905471563339233
1761413725865071900,7.04307177734375,0.25814324617385864,0.03952564299106598,0.17039278149604797
1761413725875084800,7.053084716796875,0.27313604950904846,0.08048026263713837,0.1773260533809662
1761413725885099000,7.06309912109375,0.2835843563079834,0.08898050338029861,0.16330906748771667
1761413725895111700,7.073111572265625,0.2927706837654114,0.0843370109796524,0.14496707916259766
1761413725905124900,7.083124755859375,0.2918115556240082,0.07132123410701752,0.12581497430801392
1761413725915137800,7.0931376953125,0.27829015254974365,0.05962888523936272,0.11164747923612595
1761413725925151700,7.10315185546875,0.25950542092323303,0.05008329451084137,0.10934393107891083
1761413725935165000,7.1131650390625,0.2414638251066208,0.04496443271636963,0.11533231288194656
1761413725945177900,7.123177734375,0.23417115211486816,0.05081741139292717,0.12290637195110321
1761413725955190800,7.133190673828125,0.23626945912837982,0.07125850021839142,0.11806900054216385
1761413725965203700,7.14320361328125,0.25289422273635864,0.10434330254793167,0.09842484444379807
1761413725975218000,7.153218017578125,0.2776411175727844,0.1392544060945511,0.06871967762708664
1761413725985230800,7.16323095703125,0.30889585614204407,0.16592508554458618,0.02804124914109707
1761413725995243800,7.173243896484375,0.3361285328865051,0.1774595081806183,-0.021629901602864265
1761413726005257000,7.183257080078125,0.3537890911102295,0.17114078998565674,-0.06277298182249069
1761413726015270700,7.193270751953125,0.35827943682670593,0.15053591132164001,-0.09581135958433151
1761413726025283800,7.203283935546875,0.34661656618118286,0.1268504559993744,-0.10772818326950073
1761413726035297000,7.213297119140625,0.3341612219810486,0.11892169713973999,-0.09889474511146545
1761413726045309700,7.223309814453125,0.3355030119419098,0.11971674114465714,-0.0654665008187294
1761413726055323000,7.233322998046875,0.3472161293029785,0.13051053881645203,-0.019754944369196892
1761413726065336800,7.2433369140625,0.36981216073036194,0.1381324976682663,0.022439774125814438
1761413726075349800,7.253349853515625,0.3982512652873993,0.14013679325580597,0.04506652057170868
1761413726085363000,7.263363037109375,0.4269467294216156,0.14159424602985382,0.049406375735998154
1761413726095376000,7.2733759765625,0.44751912355422974,0.13877634704113007,0.02104957029223442
1761413726105388800,7.283388916015625,0.4556815028190613,0.13326892256736755,-0.01811867579817772
1761413726115403000,7.293403076171875,0.4479530155658722,0.12813274562358856,-0.06267496198415756
1761413726125415700,7.303415771484375,0.4369729459285736,0.12432529032230377,-0.103592649102211
1761413726135428900,7.313428955078125,0.41765597462654114,0.12242777645587921,-0.12529288232326508
1761413726145441800,7.32344189453125,0.40307480096817017,0.11306027323007584,-0.1366472989320755
1761413726155455700,7.333455810546875,0.39143386483192444,0.0977787896990776,-0.13091297447681427
1761413726165469000,7.343468994140625,0.38916218280792236,0.08777710795402527,-0.11703754216432571
1761413726175481900,7.35348193359375,0.3897925615310669,0.08342576771974564,-0.09265124052762985
1761413726185494800,7.363494873046875,0.3952401876449585,0.09127715229988098,-0.07626643031835556
1761413726195507700,7.3735078125,0.4082867205142975,0.10341637581586838,-0.06185820326209068
1761413726205522000,7.38352197265625,0.41539064049720764,0.1094994843006134,-0.055596817284822464
1761413726215534800,7.393534912109375,0.41745856404304504,0.12031404674053192,-0.059768129140138626
1761413726225547800,7.4035478515625,0.41666021943092346,0.1236211508512497,-0.07548058778047562
1761413726235561000,7.41356103515625,0.41129979491233826,0.12686780095100403,-0.09491473436355591
1761413726245574700,7.42357470703125,0.4032441973686218,0.12746119499206543,-0.1203768253326416
1761413726255587800,7.433587890625,0.38937151432037354,0.13280296325683594,-0.13614194095134735
1761413726265601000,7.44360107421875,0.37685853242874146,0.14247941970825195,-0.15116113424301147
1761413726275613700,7.45361376953125,0.3659440875053406,0.14895781874656677,-0.15976475179195404
1761413726285627000,7.463626953125,0.3598370850086212,0.15250015258789062,-0.15803669393062592
1761413726295640800,7.473640869140625,0.3577055037021637,0.15601418912410736,-0.15514476597309113
1761413726305653800,7.48365380859375,0.3624091148376465,0.1591957062482834,-0.14547041058540344
1761413726315667000,7.4936669921875,0.368352472782135,0.1674126237630844,-0.1343700885772705
1761413726325679900,7.503679931640625,0.37899601459503174,0.17286302149295807,-0.13223262131214142
1761413726335692800,7.51369287109375,0.39137572050094604,0.18169859051704407,-0.13521775603294373
1761413726345707000,7.52370703125,0.40629109740257263,0.18464401364326477,-0.13571561872959137
1761413726355719700,7.5337197265625,0.4137444794178009,0.176634281873703,-0.1331789642572403
1761413726365732900,7.54373291015625,0.41897261142730713,0.1632811427116394,-0.12718430161476135
1761413726375745800,7.553745849609375,0.42770352959632874,0.13225157558918,-0.11826431006193161
1761413726385759700,7.563759765625,0.4363645017147064,0.08333511650562286,-0.10711437463760376
1761413726395773000,7.57377294921875,0.439123272895813,0.03746829181909561,-0.08938517421483994
1761413726405785900,7.583785888671875,0.43896812200546265,-0.013288690708577633,-0.06980740278959274
1761413726415798800,7.593798828125,0.43503835797309875,-0.06059442088007927,-0.052660904824733734
1761413726425811700,7.603811767578125,0.43650874495506287,-0.10464359819889069,-0.03659886121749878
1761413726435826000,7.613825927734375,0.43993303179740906,-0.12476271390914917,-0.03701138496398926
1761413726445838800,7.6238388671875,0.4454898536205292,-0.11959555745124817,-0.0403725802898407
1761413726455851800,7.633851806640625,0.4505794048309326,-0.08104710280895233,-0.03321373835206032
1761413726465865000,7.643864990234375,0.4574374556541443,-0.02980157919228077,-0.02485591545701027
1761413726475878000,7.6538779296875,0.4755280613899231,0.03937935829162598,-0.009180551394820213
1761413726485891800,7.663891845703125,0.5101487636566162,0.12350749224424362,0.010563407093286514
1761413726495905000,7.673905029296875,0.5581346154212952,0.14596804976463318,0.0039057708345353603
1761413726505917700,7.683917724609375,0.5789197087287903,0.07516757398843765,-0.03203196823596954
1761413726515931000,7.693930908203125,0.5668206810951233,0.01815381832420826,-0.0809401199221611
1761413726525944800,7.70394482421875,0.5278884172439575,-0.01113845407962799,-0.11329149454832077
1761413726535957800,7.713957763671875,0.4884805381298065,-0.04940222203731537,-0.1293032169342041
1761413726545971000,7.723970947265625,0.4550902247428894,-0.10340193659067154,-0.11368400603532791
1761413726555984000,7.73398388671875,0.43830883502960205,-0.12916694581508636,-0.06141574680805206
1761413726565996800,7.743996826171875,0.4471646547317505,-0.11225274205207825,0.011137757450342178
1761413726576011000,7.754010986328125,0.47329291701316833,-0.08172625303268433,0.10616014152765274
1761413726586023700,7.764023681640625,0.5092161893844604,-0.06605736166238785,0.18295268714427948
1761413726596036900,7.774036865234375,0.5524776577949524,-0.0718659833073616,0.2381938397884369
1761413726606049800,7.7840498046875,0.587480902671814,-0.08080541342496872,0.26128000020980835
1761413726616063700,7.794063720703125,0.6106589436531067,-0.08775466680526733,0.2574154734611511
1761413726626077000,7.804076904296875,0.6132625937461853,-0.09840671718120575,0.2312314510345459
1761413726636089900,7.81408984375,0.6053295731544495,-0.10924525558948517,0.20854105055332184
1761413726646102800,7.824102783203125,0.5876124501228333,-0.11819246411323547,0.1852904111146927
1761413726656115700,7.83411572265625,0.5768242478370667,-0.12274620682001114,0.18557189404964447
1761413726666130000,7.8441298828125,0.5830998420715332,-0.112075574696064,0.21148768067359924
1761413726676142800,7.854142822265625,0.6033079624176025,-0.11288783699274063,0.2578764855861664
1761413726686155800,7.86415576171875,0.6290285587310791,-0.117955282330513,0.31504249572753906
1761413726696169000,7.8741689453125,0.6634496450424194,-0.10532497614622116,0.361712783575058
1761413726706182000,7.884181884765625,0.7066117525100708,-0.08554905652999878,0.37669825553894043
1761413726716195800,7.89419580078125,0.754047155380249,-0.05762128531932831,0.3476916551589966
1761413726726209000,7.904208984375,0.7885137796401978,-0.029544420540332794,0.29318711161613464
1761413726736221700,7.9142216796875,0.8028572797775269,0.006821843795478344,0.21933633089065552
1761413726746235000,7.92423486328125,0.7960566282272339,0.035453490912914276,0.14656439423561096
1761413726756248800,7.934248779296875,0.784766435623169,0.06313970685005188,0.10293649137020111
1761413726766261800,7.94426171875,0.7808343172073364,0.07453416287899017,0.1006031408905983
1761413726776275000,7.95427490234375,0.782295286655426,0.07206594944000244,0.15143994987010956
1761413726786287900,7.964287841796875,0.7913718819618225,0.04992922022938728,0.22533521056175232
1761413726796300800,7.97430078125,0.8182229399681091,0.040569007396698,0.3217501640319824
1761413726806315000,7.98431494140625,0.8686016201972961,0.031758397817611694,0.4202629029750824
1761413726816328000,7.994327880859375,0.9200549125671387,0.0065585048869252205,0.49698111414909363
1761413726826340900,8.0043408203125,0.9694215059280396,-0.027772843837738037,0.5517550110816956
1761413726836354000,8.01435400390625,1.0121818780899048,-0.0604437030851841,0.5672881603240967
1761413726846367000,8.024366943359375,1.045204997062683,-0.09429401159286499,0.5420910120010376
1761413726856381000,8.034380859375,1.0618691444396973,-0.1334105283021927,0.49176523089408875
1761413726866393900,8.044393798828125,1.0655986070632935,-0.1534421145915985,0.4363543391227722
1761413726876406800,8.05440673828125,1.0607250928878784,-0.16058070957660675,0.3885902762413025
1761413726886420000,8.064419921875,1.0551069974899292,-0.17800191044807434,0.3568187952041626
1761413726896433000,8.074432861328125,1.051885962486267,-0.2048063576221466,0.3392382264137268
1761413726906446800,8.08444677734375,1.042708396911621,-0.22149670124053955,0.33008912205696106
1761413726916459800,8.094459716796875,1.0346499681472778,-0.2248150110244751,0.3262546956539154
1761413726926473000,8.104472900390626,1.0334477424621582,-0.20266054570674896,0.3323626220226288
1761413726936486000,8.11448583984375,1.0407171249389648,-0.16010962426662445,0.33188751339912415
1761413726946499800,8.124499755859375,1.0467232465744019,-0.0873919427394867,0.31930211186408997
1761413726956513000,8.134512939453124,1.052826166152954,0.02721080556511879,0.3037865459918976
1761413726966525700,8.144525634765625,1.0582371950149536,0.15188491344451904,0.2808191776275635
1761413726976539000,8.154538818359375,1.0678070783615112,0.25646188855171204,0.24131332337856293
1761413726986552000,8.164552001953124,1.0784133672714233,0.33319175243377686,0.18761081993579865
1761413726996565800,8.174565673828125,1.0895462036132812,0.39433231949806213,0.1310735046863556
1761413727006579000,8.184578857421876,1.101925015449524,0.44687747955322266,0.08664847165346146
1761413727016592100,8.194592041015625,1.1058400869369507,0.48740413784980774,0.0431009940803051
1761413727026604800,8.204604736328125,1.102487325668335,0.5146641731262207,0.008964942768216133
1761413727036618000,8.214617919921874,1.0874556303024292,0.5337079167366028,-0.020218774676322937
1761413727046632000,8.2246318359375,1.0614211559295654,0.5520898699760437,-0.048260875046253204
1761413727056644900,8.234644775390626,1.0411518812179565,0.5604019165039062,-0.07470499724149704
1761413727066658000,8.244657958984375,1.0180314779281616,0.5594011545181274,-0.11160457879304886
1761413727076671000,8.2546708984375,1.002331018447876,0.5623191595077515,-0.15951937437057495
1761413727086685000,8.264684814453124,0.9910587668418884,0.5616576075553894,-0.20132745802402496
1761413727096697900,8.27469775390625,0.9827353358268738,0.5481692552566528,-0.24724754691123962
1761413727106710800,8.284710693359376,0.9703452587127686,0.5330181121826172,-0.2849239706993103
1761413727116724000,8.294723876953125,0.9556975960731506,0.509414792060852,-0.30844688415527344
1761413727126737000,8.30473681640625,0.9420549273490906,0.4722507894039154,-0.3284318149089813
1761413727136750800,8.314750732421874,0.9292877316474915,0.43271109461784363,-0.33891135454177856
1761413727146763800,8.324763671875,0.9161778688430786,0.3869907557964325,-0.34333494305610657
1761413727156777000,8.33477685546875,0.9078941345214844,0.35978788137435913,-0.34434106945991516
1761413727166790000,8.344789794921875,0.90411376953125,0.3506212830543518,-0.3416294455528259
1761413727176802800,8.354802734375,0.9030835628509521,0.3541300296783447,-0.3363080620765686
1761413727186817000,8.364817138671874,0.9095585346221924,0.37116268277168274,-0.33228448033332825
1761413727196829700,8.37482958984375,0.9227119088172913,0.3940376341342926,-0.32894113659858704
1761413727206843000,8.3848427734375,0.9373092651367188,0.4174933135509491,-0.3287966847419739
1761413727216856000,8.39485595703125,0.9408475756645203,0.43853759765625,-0.3349727988243103
1761413727226869000,8.404868896484375,0.9446653723716736,0.4499890208244324,-0.34838005900382996
1761413727236883000,8.414883056640624,0.9423644542694092,0.4519437849521637,-0.35698366165161133
1761413727246895900,8.424895751953125,0.9334701895713806,0.44420355558395386,-0.3602938950061798
1761413727256908800,8.43490869140625,0.927090048789978,0.43435734510421753,-0.35998550057411194
1761413727266922000,8.444921875,0.9203693270683289,0.4181791841983795,-0.35617348551750183
1761413727276935000,8.454934814453125,0.9171823263168335,0.4053187966346741,-0.35393378138542175
1761413727286948900,8.464948974609374,0.9174789190292358,0.39349231123924255,-0.34112513065338135
1761413727296962000,8.474962158203125,0.9183045029640198,0.3862011134624481,-0.32734566926956177
1761413727306975000,8.48497509765625,0.9299909472465515,0.3785950243473053,-0.3060963749885559
1761413727316988000,8.49498779296875,0.9338868856430054,0.3719794452190399,-0.28200435638427734
1761413727327001900,8.505001953125,0.9415058493614197,0.35702645778656006,-0.26486411690711975
1761413727337015000,8.51501513671875,0.9521473050117493,0.3440382182598114,-0.2449425756931305
1761413727347028000,8.525028076171875,0.9649820923805237,0.32794874906539917,-0.23274178802967072
1761413727357041000,8.535041015625,0.9710405468940735,0.30396750569343567,-0.22069551050662994
1761413727367054000,8.54505419921875,0.9794004559516907,0.27573662996292114,-0.21647198498249054
1761413727377067800,8.55506787109375,0.9852463603019714,0.2582426071166992,-0.20768621563911438
1761413727387081000,8.5650810546875,0.9976494908332825,0.2507473826408386,-0.20323075354099274
1761413727397094000,8.575093994140625,1.0078532695770264,0.24561339616775513,-0.19499580562114716
1761413727407106800,8.58510693359375,1.0201959609985352,0.23375040292739868,-0.18564119935035706
1761413727417120000,8.5951201171875,1.028205156326294,0.22916124761104584,-0.16605044901371002
1761413727427133700,8.6051337890625,1.0327436923980713,0.23292653262615204,-0.14349736273288727
1761413727437147000,8.61514697265625,1.033717393875122,0.23968830704689026,-0.1211736872792244
1761413727447160000,8.62516015625,1.0281764268875122,0.24180281162261963,-0.10034296661615372
1761413727457173000,8.635173095703125,1.020416498184204,0.23388390243053436,-0.08534856885671616
1761413727467187000,8.64518701171875,1.0085294246673584,0.20360441505908966,-0.08032174408435822
1761413727477200000,8.655199951171875,1.0025407075881958,0.16300693154335022,-0.06965498626232147
1761413727487212800,8.665212890625,1.0031676292419434,0.11787134408950806,-0.03286214545369148
1761413727497226000,8.67522607421875,1.0111395120620728,0.06269676983356476,0.004242081195116043
1761413727507239000,8.685239013671875,1.0109318494796753,0.005525362212210894,0.037284187972545624
1761413727517252900,8.6952529296875,1.0018097162246704,-0.048998065292835236,0.033138178288936615
1761413727527266000,8.70526611328125,0.97538822889328,-0.0923394039273262,0.0009073412511497736
1761413727537279000,8.715279052734376,0.9423048496246338,-0.10471910238265991,-0.03661926090717316
1761413727547292000,8.7252919921875,0.9044981002807617,-0.06361699849367142,-0.057631395757198334
1761413727557304800,8.735304931640625,0.871301531791687,-0.008063193410634995,-0.061724938452243805
1761413727567319000,8.745319091796874,0.8592743873596191,0.08666925132274628,-0.05671728029847145
1761413727577332000,8.75533203125,0.8676660060882568,0.14877177774906158,-0.03918755427002907
1761413727587345000,8.765344970703126,0.8833287954330444,0.15938878059387207,-0.02460397034883499
1761413727597358000,8.775358154296875,0.9092240333557129,0.135708749294281,-0.0060233622789382935
1761413727607370800,8.785370849609375,0.9348687529563904,0.1050667017698288,0.021283289417624474
1761413727617385000,8.795385009765624,0.9451930522918701,0.07972432672977448,0.051572754979133606
1761413727627398000,8.80539794921875,0.9445934891700745,0.07343576848506927,0.08991403132677078
1761413727637410800,8.815410888671876,0.9392764568328857,0.08508016914129257,0.1356777846813202
1761413727647424000,8.825424072265625,0.9319958090782166,0.1087406724691391,0.18236568570137024
1761413727657437700,8.835437744140625,0.9353687167167664,0.14480732381343842,0.23214176297187805
1761413727667451000,8.845450927734374,0.9470445513725281,0.18064409494400024,0.26558783650398254
1761413727677464000,8.855464111328125,0.9682454466819763,0.19061149656772614,0.27708709239959717
1761413727687477000,8.86547705078125,0.981118381023407,0.17824555933475494,0.2733926475048065
1761413727697490000,8.875489990234374,0.9805223941802979,0.13770772516727448,0.25190919637680054
1761413727707503900,8.88550390625,0.9658529162406921,0.0896301344037056,0.23003838956356049
1761413727717516800,8.895516845703124,0.9402775168418884,0.047501593828201294,0.21482029557228088
1761413727727530000,8.905530029296875,0.918378472328186,0.014873335137963295,0.21394051611423492
1761413727737543000,8.91554296875,0.9025981426239014,0.0015708464197814465,0.23236745595932007
1761413727747556000,8.92555615234375,0.9066224098205566,0.008300757966935635,0.26389122009277344
1761413727757569800,8.93556982421875,0.9227126836776733,0.036615218967199326,0.2928810715675354
1761413727767583000,8.9455830078125,0.9488335847854614,0.07419665157794952,0.31918495893478394
1761413727777596000,8.955595947265625,0.9745876789093018,0.10519903898239136,0.3302527964115143
1761413727787608800,8.96560888671875,0.9866788387298584,0.13106293976306915,0.3198355436325073
1761413727797621500,8.97562158203125,0.9863483309745789,0.1504552811384201,0.282198965549469
1761413727807635500,8.985635498046875,0.9776074290275574,0.16463297605514526,0.2380911409854889
1761413727817648600,8.995648681640626,0.955085039138794,0.1799277812242508,0.18766312301158905
1761413727827661600,9.00566162109375,0.9209055304527283,0.1927098035812378,0.12876586616039276
1761413727837674500,9.015674560546875,0.8953951597213745,0.2029390037059784,0.06988789886236191
1761413727847688400,9.0256884765625,0.8787407279014587,0.20641925930976868,0.02266750857234001
1761413727857701600,9.03570166015625,0.8706769347190857,0.20619794726371765,-0.01609666459262371
1761413727867714600,9.045714599609376,0.8692905902862549,0.20086629688739777,-0.03829929977655411
1761413727877727500,9.0557275390625,0.8667962551116943,0.19998718798160553,-0.052182357758283615
1761413727887740700,9.06574072265625,0.8597248196601868,0.21131791174411774,-0.06539031863212585
1761413727897754400,9.07575439453125,0.8502585887908936,0.22430242598056793,-0.08515283465385437
1761413727907767600,9.085767578125,0.8358862996101379,0.23750638961791992,-0.10968022793531418
1761413727917780700,9.09578076171875,0.8319773077964783,0.24914786219596863,-0.1434515118598938
1761413727927793400,9.10579345703125,0.8294366598129272,0.2543785572052002,-0.1686636507511139
1761413727937806600,9.115806640625,0.8333672285079956,0.25806862115859985,-0.19771046936511993
1761413727947820500,9.125820556640624,0.8316183686256409,0.24848368763923645,-0.210010826587677
1761413727957833500,9.13583349609375,0.8268555402755737,0.23081813752651215,-0.22784149646759033
1761413727967846700,9.1458466796875,0.8133090734481812,0.21419428288936615,-0.23659618198871613
1761413727977859600,9.155859619140625,0.8084530234336853,0.20386894047260284,-0.23790273070335388
1761413727987872500,9.16587255859375,0.809039294719696,0.1987714171409607,-0.2356782704591751
1761413727997886500,9.175886474609374,0.8132401704788208,0.19618548452854156,-0.22754843533039093
1761413728007899600,9.185899658203125,0.8207591772079468,0.17948046326637268,-0.21712042391300201
1761413728017912600,9.19591259765625,0.8274593949317932,0.1672815978527069,-0.205110102891922
1761413728027925500,9.205925537109374,0.8411107659339905,0.16627012193202972,-0.188184916973114
1761413728037938700,9.215938720703125,0.857583224773407,0.16381628811359406,-0.17275509238243103
1761413728047952600,9.22595263671875,0.8636394143104553,0.1528807282447815,-0.16534429788589478
1761413728057965600,9.235965576171875,0.8597354888916016,0.13146837055683136,-0.1648492068052292
1761413728067978500,9.245978515625,0.8560015559196472,0.11284489929676056,-0.16987952589988708
1761413728077991400,9.255991455078124,0.8480469584465027,0.1064932644367218,-0.1702054888010025
1761413728088004600,9.266004638671875,0.8487467169761658,0.1106497049331665,-0.1721653938293457
1761413728098018600,9.2760185546875,0.8537129759788513,0.11651904135942459,-0.16784946620464325
1761413728108031500,9.286031494140625,0.8565335869789124,0.12610095739364624,-0.15976561605930328
1761413728118044700,9.296044677734375,0.8700131773948669,0.13032075762748718,-0.15670137107372284
1761413728128057600,9.3060576171875,0.8782614469528198,0.12975037097930908,-0.15744934976100922
1761413728138071600,9.316071533203125,0.8822423815727234,0.11734963208436966,-0.15524931252002716
1761413728148084700,9.326084716796874,0.8802211284637451,0.10264246165752411,-0.15008647739887238
1761413728158097400,9.336097412109375,0.8777308464050293,0.089043028652668,-0.143799290060997
1761413728168110600,9.346110595703125,0.881248950958252,0.07698759436607361,-0.13565869629383087
1761413728178123500,9.35612353515625,0.8872857689857483,0.07379286736249924,-0.1265978217124939
1761413728188137500,9.366137451171875,0.890896201133728,0.08198421448469162,-0.1165984645485878
1761413728198150700,9.376150634765626,0.900002121925354,0.08493473380804062,-0.10740682482719421
1761413728208163600,9.38616357421875,0.9065117835998535,0.09543740749359131,-0.1042814701795578
1761413728218176500,9.396176513671875,0.9061282873153687,0.09723344445228577,-0.09682062268257141
1761413728228189400,9.406189453125,0.8973300457000732,0.09405192732810974,-0.0858946442604065
1761413728238203600,9.41620361328125,0.8788924217224121,0.0794583410024643,-0.05200884863734245
1761413728248216600,9.426216552734376,0.8648990392684937,0.007240395061671734,-0.02385186031460762
1761413728258229500,9.4362294921875,0.86277836561203,-0.07724519073963165,-0.008874507620930672
1761413728268242700,9.44624267578125,0.875842273235321,-0.14584259688854218,-0.01604587957262993
1761413728278255400,9.45625537109375,0.8883867859840393,-0.20753711462020874,-0.04461413994431496
1761413728288269600,9.46626953125,0.8665031790733337,-0.25660374760627747,-0.06590011715888977
1761413728298282500,9.476282470703126,0.8334320187568665,-0.2579568922519684,-0.08985978364944458
1761413728308295400,9.48629541015625,0.7915366291999817,-0.19775761663913727,-0.09729555249214172
1761413728318308600,9.49630859375,0.750868022441864,-0.10681332647800446,-0.09025522321462631
1761413728328322600,9.506322509765624,0.7392221689224243,-0.01095515675842762,-0.07397400587797165
1761413728338335500,9.51633544921875,0.763380765914917,0.06730715930461884,-0.0444486103951931
1761413728348348700,9.5263486328125,0.7892341017723083,0.08155769109725952,-0.029023034498095512
