time,seconds_elapsed,z,y,x
1761413803999291600,0.067291748046875,0.25323930382728577,0.0864325761795044,-0.12394777685403824
1761413804009304800,0.077304931640625,0.24970607459545135,0.03910580649971962,-0.11535216122865677
1761413804019317500,0.0873173828125,0.24435949325561523,-0.019696073606610298,-0.09267811477184296
1761413804029330700,0.09733056640625,0.2374989241361618,-0.06892700493335724,-0.07081489264965057
1761413804039343600,0.107343505859375,0.23057712614536285,-0.1047506108880043,-0.05058901011943817
1761413804049356800,0.117356689453125,0.21727116405963898,-0.1287025511264801,-0.032144755125045776
1761413804059369500,0.127369384765625,0.20060865581035614,-0.13552096486091614,-0.022066062316298485
1761413804069382700,0.137382568359375,0.1803385317325592,-0.13914872705936432,-0.01800713874399662
1761413804079395600,0.1473955078125,0.16056175529956818,-0.13325951993465424,-0.022603005170822144
1761413804089408500,0.157408447265625,0.14426001906394958,-0.1327764242887497,-0.030116846784949303
1761413804099421700,0.167421630859375,0.12813898921012878,-0.13490843772888184,-0.03960511088371277
1761413804109433600,0.17743359375,0.1032477468252182,-0.12735465168952942,-0.0395989865064621
1761413804119446800,0.18744677734375,0.08206415176391602,-0.1191968023777008,-0.03560210019350052
1761413804129459700,0.197459716796875,0.06750252097845078,-0.12548452615737915,-0.030114388093352318
1761413804139472600,0.20747265625,0.05042557418346405,-0.14046047627925873,-0.022490987554192543
1761413804149485600,0.217485595703125,0.03370412066578865,-0.15333418548107147,-0.005555146373808384
1761413804159498800,0.227498779296875,0.014597747474908829,-0.15880030393600464,0.029747750610113144
1761413804169511700,0.23751171875,-0.0022584644611924887,-0.14251667261123657,0.07321000099182129
1761413804179524600,0.247524658203125,-0.01457231491804123,-0.1080717220902443,0.12213636189699173
1761413804189537800,0.257537841796875,-0.020615028217434883,-0.060072243213653564,0.18065746128559113
1761413804199550700,0.26755078125,-0.02265074849128723,-0.00820025522261858,0.23987817764282227
1761413804209563600,0.277563720703125,-0.028011690825223923,0.04646565392613411,0.29425594210624695
1761413804219575600,0.287575439453125,-0.019898919388651848,0.09321034699678421,0.34083154797554016
1761413804229588700,0.297588623046875,-0.012981092557311058,0.10933472216129303,0.3597567677497864
1761413804239601700,0.3076015625,-0.013554511591792107,0.06665535271167755,0.3444581627845764
1761413804249614600,0.317614501953125,-0.03565448522567749,-0.0243816114962101,0.2971092760562897
1761413804259627500,0.32762744140625,-0.07831529527902603,-0.1227012351155281,0.23377686738967896
1761413804269640700,0.337640625,-0.13231702148914337,-0.19927537441253662,0.1716003119945526
1761413804279653600,0.347653564453125,-0.1812739074230194,-0.22310321033000946,0.11518549174070358
1761413804289666600,0.35766650390625,-0.22459456324577332,-0.19214998185634613,0.0716557651758194
1761413804299679700,0.3676796875,-0.259367972612381,-0.1448943167924881,0.030585825443267822
1761413804309692700,0.377692626953125,-0.2866443395614624,-0.0753658339381218,0.0000015529803931713104
1761413804319705600,0.38770556640625,-0.2943294644355774,0.006343853659927845,-0.015479129739105701
1761413804329717800,0.3977177734375,-0.2845301032066345,0.08448152989149094,-0.02662951871752739
1761413804339730700,0.407730712890625,-0.262350469827652,0.14959891140460968,-0.023918023332953453
1761413804349743600,0.41774365234375,-0.23006123304367065,0.19363455474376678,-0.020562708377838135
1761413804359756800,0.4277568359375,-0.19256487488746643,0.20421336591243744,-0.001462175277993083
1761413804369769500,0.43776953125,-0.16339313983917236,0.18648071587085724,0.03164571151137352
1761413804379782700,0.44778271484375,-0.13587038218975067,0.14899244904518127,0.08325773477554321
1761413804389795600,0.457795654296875,-0.12676796317100525,0.10873743146657944,0.1431836485862732
1761413804399808800,0.467808837890625,-0.12361197173595428,0.06875013560056686,0.192083477973938
1761413804409821700,0.47782177734375,-0.12822295725345612,0.034523990005254745,0.2361649125814438
1761413804419834600,0.487834716796875,-0.14027512073516846,-0.0029559582471847534,0.2582707703113556
1761413804429847800,0.497847900390625,-0.15152138471603394,-0.042014144361019135,0.26795536279678345
1761413804439859700,0.507859619140625,-0.1600954830646515,-0.0735749900341034,0.2688573896884918
1761413804449872600,0.51787255859375,-0.16433443129062653,-0.09134147316217422,0.2666621506214142
1761413804459885600,0.527885498046875,-0.16660046577453613,-0.09254389256238937,0.2657316029071808
1761413804469898800,0.537898681640625,-0.16281265020370483,-0.08310805261135101,0.28020110726356506
1761413804479911700,0.54791162109375,-0.15660421550273895,-0.059421464800834656,0.30204737186431885
1761413804489924600,0.557924560546875,-0.14937905967235565,-0.046432964503765106,0.31888332962989807
1761413804499937500,0.5679375,-0.14804401993751526,-0.050509996712207794,0.3364847004413605
1761413804509950700,0.57795068359375,-0.15360097587108612,-0.05359313637018204,0.3507291376590729
1761413804519963600,0.587963623046875,-0.1671450138092041,-0.06017909198999405,0.34910038113594055
1761413804529976600,0.5979765625,-0.18856854736804962,-0.07336626201868057,0.33979636430740356
1761413804539989800,0.60798974609375,-0.21447139978408813,-0.09325965493917465,0.312587171792984
1761413804550001700,0.618001708984375,-0.23950430750846863,-0.11540810018777847,0.26080307364463806
1761413804560014800,0.628014892578125,-0.26271793246269226,-0.1266220659017563,0.19333024322986603
1761413804570027500,0.638027587890625,-0.28942278027534485,-0.13039043545722961,0.10908593982458115
1761413804580040700,0.648040771484375,-0.3024173378944397,-0.11906398087739944,0.022120129317045212
1761413804590053600,0.6580537109375,-0.30682089924812317,-0.08815746009349823,-0.053678229451179504
1761413804600066600,0.668066650390625,-0.3031671643257141,-0.04697658121585846,-0.11990193277597427
1761413804610079500,0.67807958984375,-0.29639315605163574,-0.003055193228647113,-0.1614845246076584
1761413804620092700,0.6880927734375,-0.2785559892654419,0.04261316359043121,-0.17505565285682678
1761413804630105900,0.69810595703125,-0.25651219487190247,0.09951958805322647,-0.16331642866134644
1761413804640118500,0.708118408203125,-0.22305643558502197,0.1659376472234726,-0.13307587802410126
1761413804650131700,0.718131591796875,-0.18188290297985077,0.2377615123987198,-0.09552158415317535
1761413804660144600,0.72814453125,-0.13156449794769287,0.2858673334121704,-0.06167338043451309
1761413804670156800,0.73815673828125,-0.08226646482944489,0.3122267723083496,-0.034382373094558716
1761413804680169500,0.74816943359375,-0.03459658846259117,0.3234073221683502,-0.010988673195242882
1761413804690182700,0.7581826171875,0.01273550558835268,0.3225897252559662,0.006618550047278404
1761413804700195600,0.768195556640625,0.05089926719665527,0.30173519253730774,0.015003310516476631
1761413804710208800,0.778208740234375,0.0808318629860878,0.26279205083847046,0.009977924637496471
1761413804720221700,0.7882216796875,0.10014065355062485,0.21396984159946442,-0.007827341556549072
1761413804730234600,0.798234619140625,0.12186326086521149,0.15426495671272278,-0.03597136214375496
1761413804740247800,0.808247802734375,0.13590620458126068,0.11349549889564514,-0.06556498259305954
1761413804750260500,0.818260498046875,0.14319421350955963,0.07619047164916992,-0.09201256930828094
1761413804760273700,0.828273681640625,0.13949914276599884,0.05051909387111664,-0.1124061569571495
1761413804770286600,0.83828662109375,0.1352444887161255,0.031363241374492645,-0.13448350131511688
1761413804780298800,0.848298828125,0.13072144985198975,0.029596401378512383,-0.15572024881839752
1761413804790311700,0.858311767578125,0.1311398297548294,0.04708484560251236,-0.1667955368757248
1761413804800324600,0.86832470703125,0.12950125336647034,0.08013168722391129,-0.16967712342739105
1761413804810337500,0.878337646484375,0.13063842058181763,0.1130390390753746,-0.16832610964775085
1761413804820350700,0.888350830078125,0.13351309299468994,0.12424184381961823,-0.1762470304965973
1761413804830363600,0.89836376953125,0.13197006285190582,0.12334010004997253,-0.19201134145259857
1761413804840376600,0.90837646484375,0.13044646382331848,0.11853121966123581,-0.20243602991104126
1761413804850389800,0.9183896484375,0.1254809945821762,0.11323180049657822,-0.21023136377334595
1761413804860402700,0.928402587890625,0.1226668581366539,0.10243605077266693,-0.20809511840343475
1761413804870415600,0.93841552734375,0.11861592531204224,0.08069906383752823,-0.20778273046016693
1761413804880427800,0.948427734375,0.11619986593723297,0.0520835816860199,-0.2031518518924713
1761413804890440700,0.958440673828125,0.1094847023487091,0.016573525965213776,-0.20377343893051147
1761413804900454000,0.968453857421875,0.10062643885612488,-0.006907823029905558,-0.2021421194076538
1761413804910466600,0.978466552734375,0.09448891878128052,-0.004722965881228447,-0.1932159960269928
1761413804920479700,0.988479736328125,0.0938207283616066,0.01631711795926094,-0.18299610912799835
1761413804930492700,0.99849267578125,0.08735750615596771,0.049560029059648514,-0.168156698346138
1761413804940505900,1.008505859375,0.08834640681743622,0.08265534043312073,-0.1518123894929886
1761413804950518800,1.018518798828125,0.08672613650560379,0.1119554340839386,-0.12791557610034943
1761413804960531700,1.02853173828125,0.0818326398730278,0.11406593769788742,-0.10301252454519272
1761413804970545000,1.038544921875,0.07159970700740814,0.10600561648607254,-0.07944168150424957
1761413804980557600,1.0485576171875,0.05652071535587311,0.08284790068864822,-0.053323037922382355
1761413804990569700,1.05856982421875,0.037059396505355835,0.055900976061820984,-0.02110784314572811
1761413805000582700,1.068582763671875,0.019112281501293182,0.0361313670873642,0.01753372885286808
1761413805010595800,1.078595947265625,-0.001012162072584033,0.026800984516739845,0.046500932425260544
1761413805020608800,1.08860888671875,-0.020568231120705605,0.0232485830783844,0.07398179173469543
1761413805030621700,1.09862158203125,-0.04064100608229637,0.023160165175795555,0.08853782713413239
1761413805040634600,1.108634521484375,-0.06073259934782982,0.029056210070848465,0.09455014020204544
1761413805050647800,1.118647705078125,-0.08593116700649261,0.03545179218053818,0.093526691198349
1761413805060660700,1.12866064453125,-0.10517751425504684,0.044015757739543915,0.0879092589020729
1761413805070673700,1.138673583984375,-0.12507879734039307,0.06221180409193039,0.08557739108800888
1761413805080686800,1.148686767578125,-0.1362205296754837,0.1021900475025177,0.08564325422048569
1761413805090699800,1.15869970703125,-0.13368520140647888,0.14847952127456665,0.09587831050157547
1761413805100712000,1.1687119140625,-0.12486498802900314,0.19118651747703552,0.1114359125494957
1761413805110724600,1.178724609375,-0.10749717801809311,0.2432880699634552,0.13578572869300842
1761413805120737800,1.18873779296875,-0.07257163524627686,0.3014182448387146,0.14497734606266022
1761413805130750700,1.198750732421875,-0.04383853077888489,0.28715968132019043,0.1275261789560318
1761413805140763600,1.208763671875,-0.04147069528698921,0.2128446251153946,0.08796292543411255
1761413805150776600,1.218776611328125,-0.06360050290822983,0.11077312380075455,0.057649221271276474
1761413805160789800,1.228789794921875,-0.10022147744894028,-0.012535430490970612,0.037134286016225815
1761413805170803000,1.238802978515625,-0.15632230043411255,-0.1543993502855301,0.032674290239810944
1761413805180815600,1.248815673828125,-0.21762096881866455,-0.2704189121723175,0.03613926097750664
1761413805190828800,1.258828857421875,-0.2728559970855713,-0.3522733151912689,0.05482187122106552
1761413805200840700,1.2688408203125,-0.32010704278945923,-0.3918677866458893,0.07943130284547806
1761413805210854000,1.27885400390625,-0.3527853488922119,-0.3834383487701416,0.12120085209608078
1761413805220866600,1.288866455078125,-0.3732770085334778,-0.34631916880607605,0.1597069501876831
1761413805230879700,1.298879638671875,-0.37914979457855225,-0.3055797219276428,0.18883287906646729
1761413805240892700,1.308892578125,-0.37438198924064636,-0.2764838635921478,0.20584464073181152
1761413805250905900,1.31890576171875,-0.3636140525341034,-0.23038111627101898,0.2210470288991928
1761413805260918500,1.32891845703125,-0.35209694504737854,-0.16627909243106842,0.23448294401168823
1761413805270931700,1.338931640625,-0.33985066413879395,-0.09394203871488571,0.24926801025867462
1761413805280945000,1.34894482421875,-0.3267647325992584,-0.015035184100270271,0.261620432138443
1761413805290957600,1.35895751953125,-0.31041771173477173,0.06897769123315811,0.2695294916629791
1761413805300970800,1.368970703125,-0.29049792885780334,0.15730394423007965,0.28062283992767334
1761413805310982700,1.378982666015625,-0.2709159851074219,0.2378251552581787,0.2900967597961426
1761413805320995800,1.388995849609375,-0.24916547536849976,0.2942042946815491,0.3072921633720398
1761413805331008800,1.3990087890625,-0.23717965185642242,0.32935431599617004,0.3156973719596863
1761413805341021700,1.409021728515625,-0.22474469244480133,0.3255940079689026,0.3195340931415558
1761413805351034600,1.41903466796875,-0.2172958254814148,0.27084049582481384,0.30365419387817383
1761413805361047800,1.4290478515625,-0.21740341186523438,0.17321458458900452,0.2622508406639099
1761413805371060700,1.439060791015625,-0.21825642883777618,0.05216831713914871,0.21342632174491882
1761413805381073700,1.44907373046875,-0.2186594307422638,-0.0648341029882431,0.15445877611637115
1761413805391086800,1.4590869140625,-0.21888074278831482,-0.14319521188735962,0.10381210595369339
1761413805401099800,1.469099853515625,-0.216287299990654,-0.1684853583574295,0.06587295979261398
1761413805411112000,1.47911181640625,-0.21324677765369415,-0.15477301180362701,0.027770845219492912
1761413805421124600,1.48912451171875,-0.20674142241477966,-0.13450635969638824,-0.009275623597204685
1761413805431137800,1.4991376953125,-0.19387169182300568,-0.12258791923522949,-0.04761422425508499
1761413805441150700,1.509150634765625,-0.18356309831142426,-0.10870255529880524,-0.07430855184793472
1761413805451163600,1.51916357421875,-0.16932238638401031,-0.08908145129680634,-0.08600275963544846
1761413805461176600,1.529176513671875,-0.14878566563129425,-0.06407445669174194,-0.0814180001616478
1761413805471189800,1.539189697265625,-0.11867383867502213,-0.032266728579998016,-0.06432024389505386
1761413805481203000,1.549202880859375,-0.07798009365797043,-0.016463547945022583,-0.03865782544016838
1761413805491215600,1.559215576171875,-0.03684837371110916,-0.012842182070016861,-0.00666340347379446
1761413805501228800,1.569228759765625,0.003470261348411441,-0.012315270490944386,0.03117094561457634
1761413805511241700,1.57924169921875,0.03402843698859215,-0.013224206864833832,0.06452304124832153
1761413805521254000,1.58925390625,0.0535304881632328,-0.021427229046821594,0.08985104411840439
1761413805531266800,1.599266845703125,0.05876519903540611,-0.038937248289585114,0.09698192775249481
1761413805541279700,1.60927978515625,0.05141424760222435,-0.049835510551929474,0.09026627987623215
1761413805551292700,1.619292724609375,0.037236377596855164,-0.06476812064647675,0.07291658222675323
1761413805561305900,1.629305908203125,0.014343193732202053,-0.0752561166882515,0.04037294164299965
1761413805571318500,1.639318603515625,-0.009663072414696217,-0.07463746517896652,-0.004673626273870468
1761413805581331700,1.649331787109375,-0.031497083604335785,-0.06471651047468185,-0.050532542169094086
1761413805591345000,1.659344970703125,-0.05036451667547226,-0.04711567983031273,-0.09160647541284561
1761413805601357800,1.66935791015625,-0.05848464369773865,-0.022830862551927567,-0.12573787569999695
1761413805611370800,1.679370849609375,-0.06903503090143204,0.012771871872246265,-0.1466652750968933
1761413805621383700,1.6893837890625,-0.06711824238300323,0.04986409470438957,-0.15725524723529816
1761413805631395800,1.699395751953125,-0.06809801608324051,0.08620478957891464,-0.16113387048244476
1761413805641408800,1.70940869140625,-0.06330621242523193,0.1305007040500641,-0.16101229190826416
1761413805651421700,1.719421630859375,-0.05976606905460358,0.17498400807380676,-0.15350936353206635
1761413805661434600,1.7294345703125,-0.054334934800863266,0.20922434329986572,-0.142006978392601
1761413805671447800,1.73944775390625,-0.04550575837492943,0.23922298848628998,-0.13093435764312744
1761413805681460700,1.749460693359375,-0.034718625247478485,0.26078739762306213,-0.1194542720913887
1761413805691473700,1.7594736328125,-0.02584204077720642,0.27180731296539307,-0.10518931597471237
1761413805701486800,1.76948681640625,-0.020218493416905403,0.2840052843093872,-0.09088588505983353
1761413805711499800,1.779499755859375,-0.01129850186407566,0.29500919580459595,-0.07743185758590698
1761413805721512700,1.7895126953125,-0.006363104097545147,0.28203174471855164,-0.07427322864532471
1761413805731524600,1.799524658203125,0.0073833344504237175,0.26793748140335083,-0.10114852339029312
1761413805741537800,1.809537841796875,0.0384034663438797,0.25710639357566833,-0.1482083797454834
1761413805751550700,1.81955078125,0.07156141847372055,0.2554381787776947,-0.1837938129901886
1761413805761564000,1.82956396484375,0.09714575856924057,0.2422255128622055,-0.20067273080348969
1761413805771576600,1.83957666015625,0.10786844789981842,0.22087043523788452,-0.19452641904354095
1761413805781589800,1.84958984375,0.10711798816919327,0.1863487958908081,-0.16430608928203583
1761413805791602700,1.859602783203125,0.10392805933952332,0.13839060068130493,-0.12290725111961365
1761413805801615600,1.86961572265625,0.10095080733299255,0.0879087969660759,-0.07653238624334335
1761413805811628800,1.87962890625,0.09367558360099792,0.04354824870824814,-0.02529529482126236
1761413805821641700,1.889641845703125,0.08568314462900162,-0.007491136901080608,0.023848574608564377
1761413805831655000,1.899655029296875,0.0811629593372345,-0.04972407966852188,0.07312317937612534
1761413805841666800,1.909666748046875,0.07109063118696213,-0.08947420120239258,0.1052403599023819
1761413805851679700,1.9196796875,0.055554281920194626,-0.12316717952489853,0.12100333720445633
1761413805861692700,1.929692626953125,0.02838577702641487,-0.16600173711776733,0.11820196360349655
1761413805871705900,1.939705810546875,-0.009986380115151405,-0.21370667219161987,0.10063868016004562
1761413805881718800,1.94971875,-0.05436454340815544,-0.2363896369934082,0.09313444048166275
1761413805891731700,1.959731689453125,-0.10229557752609253,-0.22881481051445007,0.10293088108301163
1761413805901745000,1.969744873046875,-0.13636822998523712,-0.17314988374710083,0.13194650411605835
1761413805911757800,1.9797578125,-0.14413881301879883,-0.0614880695939064,0.17240898311138153
1761413805921770800,1.989770751953125,-0.12592515349388123,0.059175584465265274,0.20895341038703918
1761413805931783700,1.99978369140625,-0.10389521718025208,0.0851999893784523,0.19618915021419525
1761413805941795800,2.0097958984375,-0.12006812542676926,0.0018457677215337753,0.1295924335718155
1761413805951808800,2.019808837890625,-0.1786630004644394,-0.09602939337491989,0.04137282446026802
1761413805961821700,2.02982177734375,-0.26725706458091736,-0.16284827888011932,-0.0337340421974659
1761413805971834600,2.039834716796875,-0.34165245294570923,-0.17189131677150726,-0.08246482908725739
1761413805981847800,2.049847900390625,-0.38756319880485535,-0.12413404881954193,-0.1000162810087204
1761413805991861000,2.059861083984375,-0.41090765595436096,-0.04221201688051224,-0.09804793447256088
1761413806001873700,2.069873779296875,-0.4143911302089691,0.03103344328701496,-0.07844303548336029
1761413806011886800,2.079886962890625,-0.40869757533073425,0.07758549600839615,-0.055665820837020874
1761413806021899800,2.089899658203125,-0.391869455575943,0.08790256083011627,-0.034235045313835144
1761413806031912700,2.09991259765625,-0.3679598569869995,0.05387348309159279,0.0000843144953250885
1761413806041924600,2.109924560546875,-0.35558265447616577,0.011090444400906563,0.05083238333463669
1761413806051937800,2.119937744140625,-0.35790812969207764,-0.008518144488334656,0.123276486992836
1761413806061950700,2.12995068359375,-0.3733762800693512,-0.004492335952818394,0.20895861089229584
1761413806071964000,2.1399638671875,-0.3868611752986908,0.018062774091959,0.2920324504375458
1761413806081976600,2.1499765625,-0.40437445044517517,0.03325004130601883,0.3588528037071228
1761413806091989800,2.15998974609375,-0.42260754108428955,0.03684637323021889,0.4009038507938385
1761413806102003000,2.1700029296875,-0.4436075985431671,0.012623939663171768,0.40236151218414307
1761413806112015600,2.180015625,-0.46375226974487305,-0.02329065278172493,0.37565532326698303
1761413806122028800,2.19002880859375,-0.48502907156944275,-0.049176670610904694,0.33824658393859863
1761413806132041700,2.200041748046875,-0.5036157965660095,-0.054535213857889175,0.3055959641933441
1761413806142054000,2.210053955078125,-0.5269908308982849,-0.04626660794019699,0.27859675884246826
1761413806152066800,2.22006689453125,-0.5514713525772095,-0.03478838503360748,0.2694927453994751
1761413806162079700,2.230079833984375,-0.5772867798805237,-0.02430492267012596,0.2643640637397766
1761413806172092700,2.2400927734375,-0.6017119884490967,-0.024668976664543152,0.25681400299072266
1761413806182105900,2.25010595703125,-0.6299120187759399,-0.03370533138513565,0.2306559830904007
1761413806192118800,2.260118896484375,-0.6614526510238647,-0.04439472779631615,0.19619333744049072
1761413806202131700,2.270131591796875,-0.7018132209777832,-0.05397148057818413,0.15162087976932526
1761413806212145000,2.280144775390625,-0.7497687339782715,-0.06638713926076889,0.10511036217212677
1761413806222157800,2.29015771484375,-0.7965583801269531,-0.08044508099555969,0.05600660666823387
1761413806232170800,2.300170654296875,-0.8359276056289673,-0.0964922159910202,-0.004188290797173977
1761413806242182700,2.3101826171875,-0.863038957118988,-0.10529714077711105,-0.04843839630484581
1761413806252195800,2.32019580078125,-0.8775462508201599,-0.08968036621809006,-0.08049619942903519
1761413806262208800,2.330208740234375,-0.886249303817749,-0.054545365273952484,-0.09521026909351349
1761413806272221700,2.3402216796875,-0.8782776594161987,-0.009239135310053825,-0.09492850303649902
1761413806282234600,2.350234619140625,-0.8680809736251831,0.03278964012861252,-0.07897839695215225
1761413806292247800,2.360247802734375,-0.8550227284431458,0.046254053711891174,-0.03797503933310509
1761413806302261000,2.370260986328125,-0.8508347272872925,0.025791801512241364,0.006138124503195286
1761413806312273700,2.380273681640625,-0.8589970469474792,-0.03168880194425583,0.04560830071568489
1761413806322286800,2.390286865234375,-0.8756623268127441,-0.11118059605360031,0.07943780720233917
1761413806332299800,2.4002998046875,-0.8954722881317139,-0.1884990781545639,0.10139450430870056
1761413806342312000,2.41031201171875,-0.9194149971008301,-0.22718574106693268,0.11358226835727692
1761413806352324600,2.42032470703125,-0.9395825862884521,-0.22947287559509277,0.11404325813055038
1761413806362337800,2.430337890625,-0.9552561640739441,-0.21003107726573944,0.09124501049518585
1761413806372350700,2.440350830078125,-0.9631513953208923,-0.1721324324607849,0.05287977680563927
1761413806382364000,2.450364013671875,-0.9742781519889832,-0.1306338757276535,0.010264343582093716
1761413806392376600,2.46037646484375,-0.9895186424255371,-0.09482262283563614,-0.030222896486520767
1761413806402389800,2.4703896484375,-1.0050886869430542,-0.06776124238967896,-0.05952238664031029
1761413806412403000,2.48040283203125,-1.0243281126022339,-0.055177535861730576,-0.07924708724021912
1761413806422415600,2.49041552734375,-1.0453485250473022,-0.044706784188747406,-0.08316539973020554
1761413806432428800,2.5004287109375,-1.0639567375183105,-0.04165133833885193,-0.08243116736412048
1761413806442440700,2.510440673828125,-1.07673978805542,-0.04127376899123192,-0.07920440286397934
1761413806452454000,2.520453857421875,-1.0783514976501465,-0.042931586503982544,-0.07280775904655457
1761413806462466800,2.530466796875,-1.0743783712387085,-0.037705324590206146,-0.062132254242897034
1761413806472479700,2.540479736328125,-1.0662975311279297,-0.029028479009866714,-0.04509228095412254
1761413806482492700,2.55049267578125,-1.0585126876831055,-0.0234332587569952,-0.03598266467452049
1761413806492505900,2.560505859375,-1.0495500564575195,-0.028977960348129272,-0.037690550088882446
1761413806502518500,2.5705185546875,-1.044257402420044,-0.037840455770492554,-0.049653682857751846
1761413806512531700,2.58053173828125,-1.0354119539260864,-0.04053877294063568,-0.06846252083778381
1761413806522545000,2.590544921875,-1.0276331901550293,-0.04277703911066055,-0.08906039595603943
1761413806532557800,2.600557861328125,-1.0202467441558838,-0.039358872920274734,-0.10125793516635895
1761413806542570800,2.61057080078125,-1.0060356855392456,-0.030397353693842888,-0.10340408980846405
1761413806552582700,2.620582763671875,-0.9750562310218811,-0.0051063778810203075,-0.09030000865459442
1761413806562595800,2.630595947265625,-0.9347472786903381,0.030559364706277847,-0.05996866896748543
1761413806572608800,2.64060888671875,-0.8900458216667175,0.04933358356356621,-0.029867226257920265
1761413806582621700,2.65062158203125,-0.8427205681800842,0.04137919098138809,0.009108743630349636
1761413806592634600,2.660634521484375,-0.8055796027183533,-0.0013898448087275028,0.032899826765060425
1761413806602647800,2.670647705078125,-0.7775852680206299,-0.06872831284999847,0.04235844686627388
1761413806612661000,2.680660888671875,-0.7496724128723145,-0.1517920345067978,0.03069033846259117
1761413806622673700,2.690673583984375,-0.7194105982780457,-0.23803363740444183,0.012662061490118504
1761413806632686800,2.700686767578125,-0.6938426494598389,-0.31789225339889526,0.0006948814261704683
1761413806642699800,2.71069970703125,-0.68718421459198,-0.3805343210697174,-0.018777620047330856
1761413806652712000,2.7207119140625,-0.671488881111145,-0.4118238091468811,-0.039231762290000916
1761413806662724600,2.730724609375,-0.6597983241081238,-0.40573933720588684,-0.056785911321640015
1761413806672737800,2.74073779296875,-0.6381044387817383,-0.34904196858406067,-0.07380910217761993
1761413806682750700,2.750750732421875,-0.612722635269165,-0.2595348358154297,-0.08122032135725021
1761413806692764000,2.760763916015625,-0.5867218971252441,-0.15668168663978577,-0.08712854236364365
1761413806702776600,2.770776611328125,-0.5498157739639282,-0.03355417400598526,-0.08582868427038193
1761413806712789800,2.780789794921875,-0.49020302295684814,0.11510401219129562,-0.06564458459615707
1761413806722803000,2.790802978515625,-0.4171687364578247,0.20760478079319,-0.05691037327051163
1761413806732815600,2.800815673828125,-0.35889795422554016,0.19803443551063538,-0.08504240959882736
1761413806742828800,2.810828857421875,-0.3230535387992859,0.13613398373126984,-0.12808792293071747
1761413806752840700,2.8208408203125,-0.30351153016090393,0.0634928047657013,-0.1706436425447464
1761413806762854000,2.83085400390625,-0.3003089129924774,-0.030201977118849754,-0.19966821372509003
1761413806772866800,2.84086669921875,-0.30999988317489624,-0.1498173177242279,-0.20693545043468475
1761413806782879700,2.850879638671875,-0.34331873059272766,-0.28168824315071106,-0.18291422724723816
1761413806792892700,2.860892578125,-0.3829553425312042,-0.41739973425865173,-0.13422471284866333
1761413806802905900,2.87090576171875,-0.4172642230987549,-0.536880373954773,-0.06255246698856354
1761413806812918800,2.880918701171875,-0.4386693835258484,-0.6087992787361145,0.01553833857178688
1761413806822931700,2.890931640625,-0.4487697184085846,-0.6317247152328491,0.09006412327289581
1761413806832945000,2.90094482421875,-0.4406806230545044,-0.5912779569625854,0.1531544029712677
1761413806842957800,2.910957763671875,-0.4195849299430847,-0.4864359498023987,0.21465851366519928
1761413806852970000,2.920969970703125,-0.3895457088947296,-0.3454892635345459,0.25622791051864624
1761413806862982700,2.930982666015625,-0.3549240231513977,-0.20523299276828766,0.2901156544685364
1761413806872995800,2.940995849609375,-0.32608944177627563,-0.07961860299110413,0.31150108575820923
1761413806883008800,2.9510087890625,-0.30209413170814514,0.0011115344241261482,0.3281278908252716
1761413806893021700,2.961021728515625,-0.29226601123809814,0.017411943525075912,0.3454115390777588
1761413806903034600,2.97103466796875,-0.2923065423965454,0.005144945811480284,0.3740563988685608
1761413806913047800,2.9810478515625,-0.29657185077667236,-0.011339488439261913,0.41310951113700867
1761413806923060700,2.991060791015625,-0.29696446657180786,-0.018174435943365097,0.45220211148262024
1761413806933073700,3.00107373046875,-0.295120507478714,-0.019132908433675766,0.47737857699394226
1761413806943086800,3.0110869140625,-0.28671297430992126,-0.03450501337647438,0.47859352827072144
1761413806953098800,3.0210986328125,-0.27904149889945984,-0.06744911521673203,0.44539856910705566
1761413806963112000,3.03111181640625,-0.28279441595077515,-0.11523798853158951,0.38451629877090454
1761413806973124900,3.041124755859375,-0.295847088098526,-0.18201835453510284,0.2990480065345764
1761413806983137800,3.0511376953125,-0.3214384615421295,-0.2572094798088074,0.2001054584980011
1761413806993150700,3.061150634765625,-0.34850338101387024,-0.31403815746307373,0.11950433999300003
1761413807003164000,3.071163818359375,-0.36881735920906067,-0.3567543923854828,0.06059784069657326
1761413807013176600,3.081176513671875,-0.3737303614616394,-0.3792503774166107,0.026927495375275612
1761413807023189800,3.091189697265625,-0.3705224394798279,-0.3890898823738098,0.01096551213413477
1761413807033203000,3.101202880859375,-0.3595336973667145,-0.40029406547546387,0.014202584512531757
1761413807043216000,3.1112158203125,-0.34628015756607056,-0.4042927920818329,0.02644723281264305
1761413807053227800,3.121227783203125,-0.3256286680698395,-0.39532461762428284,0.03872706741094589
1761413807063240700,3.13124072265625,-0.29798856377601624,-0.3551947772502899,0.05550740286707878
1761413807073254000,3.14125390625,-0.272341787815094,-0.2809320092201233,0.059325575828552246
1761413807083266800,3.151266845703125,-0.24446053802967072,-0.20153377950191498,0.06311121582984924
1761413807093279700,3.16127978515625,-0.2231786847114563,-0.13837026059627533,0.05274432897567749
1761413807103292700,3.171292724609375,-0.21083097159862518,-0.10347969084978104,0.044949810951948166
1761413807113305900,3.181305908203125,-0.20917156338691711,-0.0939658135175705,0.0318760871887207
1761413807123318800,3.19131884765625,-0.21505317091941833,-0.08865383267402649,0.012317043729126453
1761413807133331700,3.201331787109375,-0.22530581057071686,-0.06393356621265411,-0.010682281106710434
1761413807143345000,3.211344970703125,-0.22864219546318054,-0.01251463033258915,-0.045286875218153
1761413807153356800,3.221356689453125,-0.22802114486694336,0.04150652885437012,-0.09063971042633057
1761413807163369700,3.23136962890625,-0.2185971736907959,0.07649511843919754,-0.14367248117923737
1761413807173382700,3.241382568359375,-0.21767358481884003,0.08473361283540726,-0.19454365968704224
1761413807183395800,3.251395751953125,-0.2143450528383255,0.07923150062561035,-0.2345436066389084
1761413807193408800,3.26140869140625,-0.2186489999294281,0.07315683364868164,-0.2615877389907837
1761413807203422000,3.271421875,-0.2223588079214096,0.07382088899612427,-0.26058223843574524
1761413807213434600,3.2814345703125,-0.23011712729930878,0.07912511378526688,-0.24359606206417084
1761413807223447800,3.29144775390625,-0.2290753871202469,0.08697785437107086,-0.21999335289001465
1761413807233460700,3.301460693359375,-0.2264721393585205,0.09651277214288712,-0.19504806399345398
1761413807243473700,3.3114736328125,-0.21513581275939941,0.0994267463684082,-0.17239898443222046
1761413807253485600,3.321485595703125,-0.20436757802963257,0.1027812659740448,-0.1536838859319687
1761413807263498800,3.331498779296875,-0.19630536437034607,0.10588392615318298,-0.13632062077522278
1761413807273512000,3.341511962890625,-0.1932738870382309,0.09768139570951462,-0.12400082498788834
1761413807283524900,3.35152490234375,-0.20015890896320343,0.07876312732696533,-0.11742151528596878
1761413807293537800,3.361537841796875,-0.20361728966236115,0.07184130698442459,-0.11413277685642242
1761413807303550700,3.37155078125,-0.20189765095710754,0.06593187898397446,-0.10446431487798691
1761413807313564000,3.38156396484375,-0.19151026010513306,0.05264990031719208,-0.09441753476858139
1761413807323576600,3.39157666015625,-0.18548916280269623,0.021725235506892204,-0.0891023799777031
1761413807333589800,3.40158984375,-0.19164346158504486,-0.027181586250662804,-0.08957322686910629
1761413807343602700,3.411602783203125,-0.19204290211200714,-0.0888981744647026,-0.08331428468227386
1761413807353614800,3.42161474609375,-0.2020883411169052,-0.14073927700519562,-0.06485938280820847
1761413807363627800,3.431627685546875,-0.2077263593673706,-0.17260003089904785,-0.03472805768251419
1761413807373640700,3.441640625,-0.21235093474388123,-0.19229276478290558,-0.0004640942206606269
1761413807383654000,3.45165380859375,-0.21802355349063873,-0.19816778600215912,0.032512009143829346
1761413807393666800,3.461666748046875,-0.22991670668125153,-0.19731956720352173,0.06094364821910858
1761413807403679700,3.4716796875,-0.23835314810276031,-0.21395346522331238,0.07389730215072632
1761413807413692700,3.481692626953125,-0.2548399865627289,-0.24875591695308685,0.07828859239816666
1761413807423705900,3.491705810546875,-0.2843114733695984,-0.27693602442741394,0.0864572525024414
1761413807433718800,3.50171875,-0.3180031180381775,-0.2968117296695709,0.1035052090883255
1761413807443731700,3.511731689453125,-0.35174092650413513,-0.2957196831703186,0.1307070404291153
1761413807453743600,3.52174365234375,-0.3875519335269928,-0.2534092366695404,0.1609855741262436
1761413807463756800,3.5317568359375,-0.40727588534355164,-0.18279966711997986,0.1861848533153534
1761413807473769700,3.541769775390625,-0.4129401743412018,-0.0724521279335022,0.21511024236679077
1761413807483782700,3.55178271484375,-0.40221142768859863,0.08527155220508575,0.24684517085552216
1761413807493795800,3.5617958984375,-0.37220025062561035,0.24869750440120697,0.258793443441391
1761413807503808800,3.571808837890625,-0.33134621381759644,0.3358372747898102,0.21776048839092255
1761413807513822000,3.581822021484375,-0.3085402250289917,0.3012492060661316,0.10201071202754974
1761413807523834600,3.591834716796875,-0.33882299065589905,0.20910018682479858,-0.05221576988697052
1761413807533847800,3.601847900390625,-0.43095770478248596,0.07684201002120972,-0.2062162607908249
1761413807543860700,3.61186083984375,-0.5656794905662537,-0.08957388997077942,-0.3300182521343231
1761413807553873000,3.621872802734375,-0.7153688669204712,-0.23739130795001984,-0.37652719020843506
1761413807563885600,3.631885498046875,-0.8612565994262695,-0.33058658242225647,-0.3484499454498291
1761413807573898800,3.641898681640625,-0.9676352739334106,-0.35313183069229126,-0.25352025032043457
1761413807583911700,3.65191162109375,-1.0256872177124023,-0.31853994727134705,-0.12807954847812653
1761413807593924900,3.6619248046875,-1.0460641384124756,-0.2481621950864792,-0.010632287710905075
1761413807603937800,3.671937744140625,-1.0227266550064087,-0.1445380598306656,0.08893880248069763
1761413807613950700,3.68195068359375,-0.9640130996704102,-0.02497357688844204,0.1532118022441864
1761413807623964000,3.6919638671875,-0.8913726806640625,0.10699982196092606,0.19560667872428894
1761413807633976600,3.7019765625,-0.8262288570404053,0.23434019088745117,0.2148623913526535
1761413807643988700,3.71198876953125,-0.7752352952957153,0.34080880880355835,0.21984627842903137
1761413807654001700,3.722001708984375,-0.7338364124298096,0.4040977656841278,0.21455511450767517
1761413807664014800,3.732014892578125,-0.7082033753395081,0.4150364100933075,0.21335993707180023
1761413807674027800,3.74202783203125,-0.7057040333747864,0.37814897298812866,0.23320049047470093
1761413807684040700,3.752040771484375,-0.7211381196975708,0.3039863109588623,0.2651938498020172
1761413807694054000,3.762053955078125,-0.7440996170043945,0.20423497259616852,0.31074750423431396
1761413807704066800,3.77206689453125,-0.763824999332428,0.1171928197145462,0.3629392683506012
1761413807714079700,3.782079833984375,-0.7597373127937317,0.06200360506772995,0.4197341203689575
1761413807724092700,3.7920927734375,-0.7400168776512146,0.02825971506536007,0.4621982276439667
1761413807734105900,3.80210595703125,-0.7187185287475586,-0.003117648418992758,0.4890117347240448
1761413807744117800,3.81211767578125,-0.705024242401123,-0.04384458065032959,0.48193755745887756
1761413807754131000,3.822130859375,-0.7059198617935181,-0.08092749863862991,0.4514574110507965
1761413807764143600,3.8321435546875,-0.7177631258964539,-0.10967162996530533,0.41020700335502625
1761413807774156800,3.84215673828125,-0.7428461313247681,-0.12320874631404877,0.364762544631958
1761413807784169700,3.852169677734375,-0.7687674760818481,-0.12549400329589844,0.3261416554450989
1761413807794182700,3.8621826171875,-0.7944339513778687,-0.11682088673114777,0.30197906494140625
1761413807804195800,3.87219580078125,-0.8146083950996399,-0.09861352294683456,0.27685946226119995
1761413807814208800,3.882208740234375,-0.8248663544654846,-0.0863315612077713,0.2500326335430145
1761413807824222000,3.892221923828125,-0.83638596534729,-0.08677901327610016,0.20548516511917114
1761413807834234600,3.902234619140625,-0.8448066115379333,-0.08945468813180923,0.1541207730770111
1761413807844247800,3.912247802734375,-0.8660092353820801,-0.10213734954595566,0.09007088094949722
1761413807854259700,3.922259765625,-0.8821956515312195,-0.1059746965765953,0.017303206026554108
1761413807864273000,3.93227294921875,-0.899708092212677,-0.09726350009441376,-0.060459233820438385
1761413807874285800,3.942285888671875,-0.9160345792770386,-0.07634543627500534,-0.13255925476551056
1761413807884298800,3.952298828125,-0.9308710694313049,-0.05482419952750206,-0.18218405544757843
1761413807894311700,3.962311767578125,-0.9485281109809875,-0.04144128039479256,-0.2080974131822586
1761413807904324900,3.972324951171875,-0.9631420373916626,-0.03636275231838226,-0.20805077254772186
1761413807914337800,3.982337890625,-0.972540020942688,-0.0272693894803524,-0.17626087367534637
1761413807924350700,3.992350830078125,-0.964235782623291,-0.008481988683342934,-0.12386664748191833
1761413807934364000,4.002364013671875,-0.9420324563980103,0.014625727199018002,-0.05150323361158371
1761413807944375800,4.012375732421875,-0.9033402800559998,0.02292495220899582,0.01694151759147644
1761413807954388700,4.022388671875,-0.8596593737602234,0.002197305206209421,0.07330651581287384
1761413807964401700,4.032401611328125,-0.8225279450416565,-0.02015918865799904,0.11556992679834366
1761413807974414800,4.042414794921875,-0.7835419178009033,-0.026288986206054688,0.1311129480600357
1761413807984427800,4.052427734375,-0.7532399296760559,-0.014009857550263405,0.12086789309978485
1761413807994440700,4.062440673828125,-0.7344552874565125,0.009446199983358383,0.09296994656324387
1761413808004453600,4.07245361328125,-0.7226162552833557,0.014288358390331268,0.057114481925964355
1761413808014466800,4.082466796875,-0.7219129204750061,0.0009797443635761738,0.01597077213227749
1761413808024479700,4.092479736328125,-0.7306793332099915,-0.03570191189646721,-0.011038164608180523
1761413808034492700,4.10249267578125,-0.7408092021942139,-0.09068287163972855,-0.03066672757267952
1761413808044504800,4.1125048828125,-0.7618189454078674,-0.14547261595726013,-0.03112449310719967
1761413808054517800,4.122517822265625,-0.783815860748291,-0.19988924264907837,-0.02091286890208721
1761413808064531000,4.132531005859375,-0.8072222471237183,-0.25773701071739197,-0.007149959914386272
1761413808074543600,4.142543701171875,-0.8301196098327637,-0.30868783593177795,0.007693967316299677
1761413808084556800,4.152556884765625,-0.846572995185852,-0.3484918773174286,0.02256123535335064
1761413808094569700,4.16256982421875,-0.852335512638092,-0.37074124813079834,0.025113075971603394
1761413808104583000,4.1725830078125,-0.8502987027168274,-0.37830156087875366,0.023739533498883247
1761413808114595600,4.182595703125,-0.8464669585227966,-0.37185242772102356,0.022111278027296066
1761413808124608800,4.19260888671875,-0.8434916138648987,-0.34490200877189636,0.017903193831443787
1761413808134620700,4.20262060546875,-0.8389508724212646,-0.2991845905780792,0.008515285328030586
1761413808144633900,4.2126337890625,-0.8305315375328064,-0.2609011232852936,-0.008874655701220036
1761413808154646800,4.222646728515625,-0.822644054889679,-0.2222144603729248,-0.02951069176197052
1761413808164659700,4.23265966796875,-0.8070365190505981,-0.18601873517036438,-0.047608375549316406
1761413808174673000,4.2426728515625,-0.7912455797195435,-0.15144585072994232,-0.057816002517938614
1761413808184685800,4.252685791015625,-0.7689469456672668,-0.12018202245235443,-0.055748194456100464
1761413808194698800,4.26269873046875,-0.7494019865989685,-0.1056736558675766,-0.0579058900475502
1761413808204711700,4.272711669921875,-0.729073703289032,-0.09789391607046127,-0.07156942039728165
1761413808214724900,4.282724853515625,-0.7153435349464417,-0.09245014935731888,-0.1219732016324997
1761413808224737800,4.29273779296875,-0.7046416997909546,-0.10257133841514587,-0.19748030602931976
1761413808234750700,4.302750732421875,-0.7079397439956665,-0.11479125171899796,-0.2813890278339386
1761413808244762600,4.3127626953125,-0.7141150236129761,-0.12145649641752243,-0.3557785153388977
1761413808254775800,4.32277587890625,-0.7387359142303467,-0.1416613608598709,-0.3812828063964844
1761413808264789000,4.3327890625,-0.7706428170204163,-0.14936570823192596,-0.34722453355789185
1761413808274801700,4.3428017578125,-0.7913816571235657,-0.09160280972719193,-0.24958214163780212
1761413808284814800,4.35281494140625,-0.7705304622650146,0.018903028219938278,-0.12241921573877335
1761413808294827800,4.362827880859375,-0.7173681855201721,0.06261109560728073,-0.028031732887029648
1761413808304840700,4.3728408203125,-0.6810731887817383,-0.009278247132897377,-0.009054897353053093
1761413808314853600,4.382853515625,-0.6798851490020752,-0.10630546510219574,-0.05580642446875572
1761413808324866800,4.39286669921875,-0.6883576512336731,-0.17858028411865234,-0.13877764344215393
1761413808334878700,4.402878662109375,-0.7032686471939087,-0.23120088875293732,-0.2135847806930542
1761413808344892000,4.412891845703125,-0.7473088502883911,-0.2687264382839203,-0.24753369390964508
1761413808354904600,4.422904541015625,-0.8131610751152039,-0.2917659878730774,-0.23395928740501404
1761413808364917800,4.432917724609375,-0.8754420876502991,-0.28930872678756714,-0.17787803709506989
1761413808374931000,4.442930908203125,-0.9053533673286438,-0.2674630880355835,-0.10140004009008408
1761413808384943600,4.452943603515625,-0.9029444456100464,-0.2337063103914261,-0.013553989119827747
1761413808394956800,4.462956787109375,-0.8832769989967346,-0.1958521455526352,0.07599826902151108
1761413808404969700,4.4729697265625,-0.859880805015564,-0.15914008021354675,0.1523975431919098
1761413808414983000,4.48298291015625,-0.8330255150794983,-0.13729630410671234,0.20367512106895447
1761413808424995600,4.49299560546875,-0.8009982705116272,-0.12323033809661865,0.2441086620092392
1761413808435007700,4.5030078125,-0.7710848450660706,-0.12063562124967575,0.27270835638046265
1761413808445020700,4.513020751953125,-0.7495507001876831,-0.11795102804899216,0.3022381067276001
1761413808455033900,4.523033935546875,-0.7373451590538025,-0.11132987588644028,0.33354222774505615
1761413808465046800,4.533046875,-0.7297886610031128,-0.09608116745948792,0.36583060026168823
1761413808475059700,4.543059814453125,-0.7131404876708984,-0.06774752587080002,0.3976553976535797
1761413808485073000,4.553072998046875,-0.7004715204238892,-0.03885360807180405,0.4141804575920105
1761413808495085800,4.5630859375,-0.6927861571311951,-0.02598521113395691,0.41203394532203674
1761413808505098800,4.5730986328125,-0.6825345754623413,-0.03244604170322418,0.37384021282196045
1761413808515111700,4.583111572265625,-0.6649553179740906,-0.06750468909740448,0.3212782144546509
1761413808525124900,4.593124755859375,-0.6510992050170898,-0.11678092926740646,0.258163183927536
1761413808535136800,4.60313671875,-0.6409501433372498,-0.1589912474155426,0.20932026207447052
1761413808545149700,4.613149658203125,-0.6348053812980652,-0.1900395303964615,0.18999381363391876
1761413808555162600,4.62316259765625,-0.6319616436958313,-0.20538999140262604,0.2027687281370163
1761413808565175800,4.63317578125,-0.6373444199562073,-0.21392711997032166,0.23066170513629913
1761413808575189000,4.64318896484375,-0.6437405347824097,-0.22668233513832092,0.25599637627601624
1761413808585201700,4.65320166015625,-0.6414138674736023,-0.2403944879770279,0.27048513293266296
1761413808595214800,4.66321484375,-0.64046311378479,-0.2484489381313324,0.2582274079322815
1761413808605227800,4.673227783203125,-0.6424424648284912,-0.24682177603244781,0.23374591767787933
1761413808615240700,4.68324072265625,-0.6427894830703735,-0.21746495366096497,0.18885141611099243
1761413808625252600,4.693252685546875,-0.6451026797294617,-0.16538049280643463,0.1377582550048828
1761413808635265800,4.703265869140625,-0.6408671736717224,-0.10161963105201721,0.0879528746008873
1761413808645278700,4.71327880859375,-0.6355487108230591,-0.0422900915145874,0.04468219354748726
1761413808655292000,4.7232919921875,-0.6327822208404541,0.003070996142923832,0.006591802462935448
1761413808665304600,4.7333046875,-0.6208611726760864,0.03171467036008835,-0.023785801604390144
1761413808675317800,4.74331787109375,-0.6100053191184998,0.050474777817726135,-0.04427962377667427
1761413808685331000,4.7533310546875,-0.5998634099960327,0.040055014193058014,-0.05303281918168068
1761413808695343600,4.763343505859375,-0.5879225730895996,0.001600830815732479,-0.05699906498193741
1761413808705356800,4.773356689453125,-0.5745130181312561,-0.0443715937435627,-0.06411571055650711
1761413808715369700,4.78336962890625,-0.5607074499130249,-0.0922246053814888,-0.072333425283432
1761413808725382000,4.7933818359375,-0.5391857624053955,-0.12800365686416626,-0.07112292945384979
1761413808735394800,4.803394775390625,-0.5262387990951538,-0.14434534311294556,-0.05891260877251625
1761413808745407700,4.81340771484375,-0.5181106925010681,-0.1364353895187378,-0.03605878725647926
1761413808755420700,4.823420654296875,-0.5129055380821228,-0.11716236174106598,-0.02207479625940323
1761413808765433900,4.833433837890625,-0.5025949478149414,-0.08710656315088272,-0.016820846125483513
1761413808775446500,4.843446533203125,-0.48679977655410767,-0.0582197904586792,-0.013060195371508598
1761413808785459700,4.853459716796875,-0.4750939607620239,-0.03872108459472656,-0.015011826530098915
1761413808795473000,4.863472900390625,-0.47299033403396606,-0.026334187015891075,-0.021636173129081726
1761413808805485800,4.87348583984375,-0.47272181510925293,-0.01866527646780014,-0.02213103137910366
1761413808815498800,4.883498779296875,-0.4711388349533081,-0.015059089288115501,-0.02333717606961727
1761413808825510700,4.8935107421875,-0.468505322933197,-0.02401483990252018,-0.0217879731208086
1761413808835523800,4.90352392578125,-0.46642938256263733,-0.04574623703956604,-0.009963803924620152
1761413808845536800,4.913536865234375,-0.4706326425075531,-0.06345119327306747,-0.0024417054373770952
1761413808855549700,4.9235498046875,-0.47594618797302246,-0.08044269680976868,0.011031759902834892
1761413808865562600,4.933562744140625,-0.482046514749527,-0.09070508927106857,0.01300000585615635
1761413808875576300,4.943576416015625,-0.4832337498664856,-0.08978230506181717,0.02263186126947403
1761413808885589200,4.95358935546875,-0.48854732513427734,-0.09386167675256729,0.022986486554145813
1761413808895602400,4.9636025390625,-0.4957354664802551,-0.11471901834011078,0.015896886587142944
1761413808905615400,4.973615478515625,-0.5014430284500122,-0.13787275552749634,0.0004307704512029886
1761413808915627300,4.983627197265625,-0.5052087306976318,-0.16420422494411469,-0.014466686174273491
1761413808925640400,4.993640380859375,-0.518120288848877,-0.19335691630840302,-0.033079370856285095
1761413808935653400,5.0036533203125,-0.5325649976730347,-0.22445890307426453,-0.049865804612636566
1761413808945666300,5.013666259765625,-0.5503832101821899,-0.2678738832473755,-0.05947168171405792
1761413808955679500,5.023679443359375,-0.574367880821228,-0.34336382150650024,-0.07695852965116501
1761413808965692200,5.033692138671875,-0.6190189719200134,-0.4138467013835907,-0.07893764972686768
1761413808975705300,5.043705322265625,-0.6765408515930176,-0.4751928746700287,-0.06790417432785034
1761413808985718300,5.05371826171875,-0.740199089050293,-0.5211507678031921,-0.05258798226714134
1761413808995731500,5.0637314453125,-0.7919432520866394,-0.5367952585220337,-0.03338446468114853
1761413809005744400,5.073744384765625,-0.8330912590026855,-0.5298924446105957,-0.010835711844265461
1761413809015756300,5.08375634765625,-0.866529107093811,-0.5067040920257568,0.005153641104698181
1761413809025769500,5.09376953125,-0.893025279045105,-0.46331748366355896,0.03771243616938591
1761413809035782400,5.103782470703125,-0.9129811525344849,-0.3862224519252777,0.07869289815425873
1761413809045795300,5.11379541015625,-0.9107313752174377,-0.28214892745018005,0.12106338888406754
1761413809055808300,5.123808349609375,-0.8816270232200623,-0.12022767215967178,0.1708860695362091
1761413809065821400,5.133821533203125,-0.8178345561027527,0.028392571955919266,0.21074658632278442
1761413809075834400,5.14383447265625,-0.7477062940597534,0.07349666953086853,0.20299038290977478
1761413809085847300,5.153847412109375,-0.7113768458366394,0.006930824834853411,0.1477467268705368
1761413809095860200,5.163860107421875,-0.7030073404312134,-0.04982699826359749,0.06776907294988632
1761413809105873400,5.173873291015625,-0.7083433866500854,-0.06196064129471779,0.0014645559713244438
1761413809115885300,5.18388525390625,-0.7361592650413513,-0.043044742196798325,-0.05281359329819679
1761413809125898200,5.193898193359375,-0.7862796187400818,-0.03594353422522545,-0.09480743855237961
1761413809135911400,5.203911376953125,-0.8477892875671387,-0.045066457241773605,-0.11960679292678833
1761413809145924400,5.21392431640625,-0.9050224423408508,-0.0620100311934948,-0.1518142968416214
1761413809155937500,5.2239375,-0.942068874835968,-0.072078637778759,-0.19736607372760773
1761413809165950200,5.2339501953125,-0.9573820233345032,-0.0657549649477005,-0.2610646188259125
1761413809175963400,5.24396337890625,-0.9513433575630188,-0.03982323408126831,-0.32370561361312866
1761413809185976300,5.253976318359375,-0.9223482608795166,0.0008117808029055595,-0.3870914876461029
1761413809195989200,5.2639892578125,-0.8919168710708618,0.050038717687129974,-0.42932257056236267
1761413809206001400,5.27400146484375,-0.8575769066810608,0.10429581999778748,-0.4370023310184479
1761413809216014300,5.284014404296875,-0.8235060572624207,0.16300760209560394,-0.40567609667778015
1761413809226027300,5.29402734375,-0.7884321808815002,0.2183617502450943,-0.33877724409103394
1761413809236040400,5.30404052734375,-0.7574830055236816,0.23718151450157166,-0.26005178689956665
1761413809246053400,5.314053466796875,-0.7256143689155579,0.21058949828147888,-0.17236162722110748
1761413809256066300,5.32406640625,-0.698931097984314,0.15201805531978607,-0.09265028685331345
1761413809266079500,5.33407958984375,-0.6824868321418762,0.08686559647321701,-0.019433768466114998
1761413809276092400,5.344092529296875,-0.6683118939399719,0.00803443044424057,0.02923976257443428
1761413809286105300,5.354105224609375,-0.6559435129165649,-0.07264360040426254,0.06107170134782791
1761413809296118300,5.3641181640625,-0.6401821374893188,-0.14606349170207977,0.07140237092971802
1761413809306130400,5.37413037109375,-0.6148011684417725,-0.1939544528722763,0.07165418565273285
1761413809316143400,5.384143310546875,-0.579866886138916,-0.2102881520986557,0.061236437410116196
1761413809326156300,5.39415625,-0.541896402835846,-0.19620095193386078,0.05102682486176491
1761413809336169200,5.404169189453125,-0.5059894919395447,-0.1724705845117569,0.04142399877309799
1761413809346182400,5.414182373046875,-0.480118066072464,-0.15504124760627747,0.03187141939997673
1761413809356195300,5.4241953125,-0.4691349267959595,-0.14857882261276245,0.02520180121064186
1761413809366208300,5.434208251953125,-0.4794720709323883,-0.1630115509033203,0.020476318895816803
1761413809376221400,5.444221435546875,-0.5119996666908264,-0.19806993007659912,0.005763419903814793
1761413809386234400,5.454234375,-0.5549548268318176,-0.2501663267612457,-0.014593644067645073
1761413809396246500,5.46424658203125,-0.6067037582397461,-0.31102117896080017,-0.049148425459861755
1761413809406259200,5.47425927734375,-0.6592493057250977,-0.3532432019710541,-0.08195456862449646
1761413809416272400,5.4842724609375,-0.7023043632507324,-0.3777275085449219,-0.09730103611946106
1761413809426285300,5.494285400390625,-0.739778995513916,-0.37199750542640686,-0.1043633446097374
1761413809436298500,5.504298583984375,-0.7609407305717468,-0.3360099494457245,-0.0899931937456131
1761413809446311200,5.514311279296875,-0.7681431174278259,-0.2663733959197998,-0.06951530277729034
1761413809456324400,5.524324462890625,-0.7597408294677734,-0.17408393323421478,-0.05821977183222771
1761413809466337500,5.534337646484375,-0.7427383065223694,-0.0747707262635231,-0.04675212502479553
1761413809476350200,5.54435009765625,-0.7317597270011902,0.013424916192889214,-0.04356538876891136
1761413809486363400,5.55436328125,-0.7249289751052856,0.0795573890209198,-0.04050658643245697
1761413809496375300,5.564375244140625,-0.7301067113876343,0.11350762844085693,-0.03369555249810219
1761413809506388500,5.574388427734375,-0.7407059669494629,0.12370093911886215,-0.023937003687024117
1761413809516401400,5.5844013671875,-0.7487793564796448,0.10316530615091324,-0.005753472913056612
1761413809526414300,5.594414306640625,-0.7568886876106262,0.06861696392297745,0.019305016845464706
1761413809536427300,5.60442724609375,-0.7611428499221802,0.04310707747936249,0.05139051377773285
1761413809546440400,5.6144404296875,-0.7628726363182068,0.01879691332578659,0.08630620688199997
1761413809556453400,5.624453369140625,-0.7624515891075134,-0.010368959978222847,0.11088532209396362
1761413809566466300,5.63446630859375,-0.7550727128982544,-0.031471818685531616,0.12580695748329163
1761413809576479500,5.6444794921875,-0.7369924783706665,-0.04264937341213226,0.11982337385416031
1761413809586491400,5.654491455078125,-0.7180420160293579,-0.04813764989376068,0.10044516623020172
1761413809596504600,5.664504638671875,-0.7053166031837463,-0.052682600915431976,0.0695386454463005
1761413809606517200,5.674517333984375,-0.6935768127441406,-0.05736364796757698,0.033118292689323425
1761413809616530400,5.684530517578125,-0.6923253536224365,-0.0668325200676918,-0.0023792479187250137
1761413809626543400,5.69454345703125,-0.6928269267082214,-0.07437071949243546,-0.027223166078329086
1761413809636556300,5.704556396484375,-0.706082820892334,-0.08252851665019989,-0.05052262917160988
1761413809646569200,5.7145693359375,-0.7253638505935669,-0.09949638694524765,-0.07305534929037094
1761413809656582400,5.72458251953125,-0.7460134625434875,-0.12337429076433182,-0.09295102953910828
1761413809666595600,5.734595703125,-0.759565532207489,-0.14464056491851807,-0.10845234990119934
1761413809676608300,5.744608154296875,-0.7712125778198242,-0.16026052832603455,-0.1183803454041481
1761413809686620200,5.7546201171875,-0.7608737349510193,-0.1854172796010971,-0.12078594416379929
1761413809696633300,5.76463330078125,-0.7476117014884949,-0.21227125823497772,-0.1264028251171112
1761413809706646500,5.774646484375,-0.7225980758666992,-0.24391710758209229,-0.12139842659235
1761413809716659200,5.7846591796875,-0.6938199400901794,-0.27901169657707214,-0.11066135764122009
1761413809726672400,5.79467236328125,-0.6654563546180725,-0.3148292899131775,-0.08808927983045578
1761413809736685300,5.804685302734375,-0.6361171007156372,-0.34302178025245667,-0.06322520971298218
1761413809746698500,5.814698486328125,-0.6055253744125366,-0.38117560744285583,-0.026748696342110634
1761413809756711200,5.824711181640625,-0.5724228024482727,-0.414563924074173,0.01629837416112423
1761413809766724400,5.834724365234375,-0.5469198822975159,-0.4501616656780243,0.06501493602991104
1761413809776736300,5.844736328125,-0.5116015672683716,-0.47230958938598633,0.09536858648061752
1761413809786749400,5.85474951171875,-0.46605294942855835,-0.45858845114707947,0.11897214502096176
1761413809796762400,5.864762451171875,-0.4055209159851074,-0.4140947461128235,0.13549546897411346
1761413809806775300,5.874775390625,-0.35053762793540955,-0.3594629466533661,0.14552657306194305
1761413809816788500,5.88478857421875,-0.29791730642318726,-0.3000313341617584,0.16049008071422577
1761413809826801400,5.894801513671875,-0.24777346849441528,-0.22561480104923248,0.1786537766456604
1761413809836814300,5.904814453125,-0.1996314972639084,-0.14724968373775482,0.18884862959384918
1761413809846827300,5.9148271484375,-0.15541914105415344,-0.08101770281791687,0.1882942020893097
1761413809856840400,5.92484033203125,-0.11067244410514832,-0.02251390926539898,0.17862214148044586
1761413809866853000,5.93485302734375,-0.06740881502628326,0.03449481725692749,0.16676439344882965
1761413809876865000,5.944864990234375,-0.03373553603887558,0.10098409652709961,0.16227830946445465
1761413809886878000,5.9548779296875,0.010094482451677322,0.2014322429895401,0.18092350661754608
1761413809896891000,5.964890869140625,0.07718510925769806,0.34832873940467834,0.2184101641178131
1761413809906904000,5.974904052734375,0.1650281697511673,0.42032796144485474,0.23303794860839844
1761413809916917000,5.9849169921875,0.2501579523086548,0.3883031904697418,0.21306051313877106
1761413809926930000,5.994929931640625,0.30563873052597046,0.29667454957962036,0.17666485905647278
1761413809936943000,6.004943115234375,0.3360307514667511,0.18913237750530243,0.1293783038854599
1761413809946956000,6.0149560546875,0.34804773330688477,0.04972073435783386,0.06598199903964996
1761413809956969000,6.024968994140625,0.32199591398239136,-0.10293325781822205,-0.01473255641758442
1761413809966980900,6.03498095703125,0.2575327754020691,-0.24283495545387268,-0.08198323100805283
1761413809976994000,6.044994140625,0.16584652662277222,-0.38511383533477783,-0.10614875704050064
1761413809987007000,6.055007080078125,0.06991130113601685,-0.4966900646686554,-0.060908082872629166
1761413809997020000,6.06502001953125,-0.006596256513148546,-0.5519248247146606,0.053053904324769974
1761413810007032800,6.07503271484375,-0.04089616239070892,-0.5638070702552795,0.2247830331325531
1761413810017046000,6.0850458984375,-0.03920532017946243,-0.5182952284812927,0.4448302090167999
1761413810027059200,6.09505908203125,-0.013291828334331512,-0.44262251257896423,0.6690134406089783
1761413810037072000,6.10507177734375,0.03250575438141823,-0.36361610889434814,0.8546538949012756
1761413810047085000,6.1150849609375,0.09298501163721085,-0.3004051148891449,0.9681915044784546
1761413810057098000,6.125097900390625,0.15690620243549347,-0.25278380513191223,1.0060714483261108
1761413810067110100,6.135110107421875,0.21764536201953888,-0.213388592004776,0.9803681969642639
1761413810077122800,6.145122802734375,0.27379971742630005,-0.16977399587631226,0.9046376943588257
1761413810087136000,6.155135986328125,0.3269106149673462,-0.10193853080272675,0.8109282851219177
1761413810097149000,6.16514892578125,0.36120787262916565,-0.024140678346157074,0.7196841239929199
1761413810107162000,6.175162109375,0.3697187304496765,0.05095221847295761,0.6279915571212769
1761413810117174800,6.1851748046875,0.3591310679912567,0.08553123474121094,0.5326639413833618
1761413810127188000,6.19518798828125,0.32632002234458923,0.07383336126804352,0.4355221390724182
1761413810137201200,6.205201171875,0.2729574739933014,0.03889615088701248,0.3461557626724243
1761413810147213800,6.2152138671875,0.19305014610290527,-0.0038940603844821453,0.25738951563835144
1761413810157226000,6.22522607421875,0.10443372279405594,-0.047304652631282806,0.1802409440279007
1761413810167239000,6.235239013671875,0.014973053708672523,-0.08509396761655807,0.11710686981678009
1761413810177252000,6.245252197265625,-0.07041428238153458,-0.1101314127445221,0.06400636583566666
1761413810187265000,6.25526513671875,-0.13912618160247803,-0.11928626149892807,0.026649652048945427
1761413810197278000,6.26527783203125,-0.18049199879169464,-0.10698272287845612,-0.0034038531593978405
1761413810207291000,6.275290771484375,-0.2018613964319229,-0.08761364966630936,-0.03187987208366394
1761413810217304000,6.285303955078125,-0.19912873208522797,-0.03881681710481644,-0.057128507643938065
1761413810227317000,6.29531689453125,-0.18034124374389648,0.03233055770397186,-0.07863777130842209
1761413810237330000,6.305329833984375,-0.1552707701921463,0.10578879714012146,-0.100639209151268
1761413810247343000,6.315343017578125,-0.12558050453662872,0.16365653276443481,-0.117477186024189
1761413810257355000,6.32535498046875,-0.10041762888431549,0.2028159201145172,-0.1412232518196106
1761413810267368200,6.3353681640625,-0.07195454090833664,0.22185716032981873,-0.1614862084388733
1761413810277380900,6.345380859375,-0.045621469616889954,0.2066260129213333,-0.1874387115240097
1761413810287394000,6.35539404296875,-0.017725758254528046,0.1724483072757721,-0.2025020271539688
1761413810297407000,6.365406982421875,0.005507391877472401,0.1361832469701767,-0.20919136703014374
1761413810307420000,6.375419921875,0.02363569289445877,0.11062619090080261,-0.2088187336921692
1761413810317432800,6.385432861328125,0.041052233427762985,0.10106650739908218,-0.20173844695091248
1761413810327446000,6.395446044921875,0.05416649207472801,0.11381185054779053,-0.2012893259525299
1761413810337459200,6.405459228515625,0.06821199506521225,0.14012761414051056,-0.21012011170387268
1761413810347471000,6.41547119140625,0.07847115397453308,0.17437948286533356,-0.23920413851737976
1761413810357483800,6.42548388671875,0.09555773437023163,0.21489042043685913,-0.27816540002822876
1761413810367497000,6.4354970703125,0.10664375871419907,0.2488735467195511,-0.3244214951992035
1761413810377510100,6.44551025390625,0.11300898343324661,0.2662637233734131,-0.3666709363460541
1761413810387522800,6.455522705078125,0.1185503676533699,0.28779706358909607,-0.39840126037597656
1761413810397536000,6.465535888671875,0.12877477705478668,0.3048548698425293,-0.4234219193458557
1761413810407549000,6.475548828125,0.14247964322566986,0.3139459490776062,-0.43409013748168945
1761413810417562000,6.48556201171875,0.15448437631130219,0.3127800226211548,-0.4206182658672333
1761413810427574800,6.49557470703125,0.15801070630550385,0.2953198254108429,-0.4020235538482666
1761413810437588000,6.505587890625,0.16578873991966248,0.26929542422294617,-0.36600643396377563
1761413810447599900,6.515599853515625,0.17658710479736328,0.23720704019069672,-0.3229183852672577
1761413810457613000,6.525613037109375,0.17891204357147217,0.1882656067609787,-0.2958742380142212
1761413810467626000,6.5356259765625,0.1890442669391632,0.13025756180286407,-0.274258017539978
1761413810477639000,6.545638916015625,0.20023061335086823,0.07600338011980057,-0.246018648147583
1761413810487652000,6.555652099609375,0.19916994869709015,0.023013921454548836,-0.2118692249059677
1761413810497665000,6.5656650390625,0.18964114785194397,-0.018339909613132477,-0.17164112627506256
1761413810507678000,6.575677978515625,0.1809823215007782,-0.05614009127020836,-0.13029469549655914
1761413810517691000,6.58569091796875,0.16852937638759613,-0.12088793516159058,-0.11318016052246094
1761413810527704000,6.5957041015625,0.15582586824893951,-0.18532805144786835,-0.09834170341491699
1761413810537716000,6.605716064453125,0.13420738279819489,-0.22191348671913147,-0.09302976727485657
1761413810547729000,6.61572900390625,0.11329645663499832,-0.2332335114479065,-0.10183361172676086
1761413810557741800,6.625741943359375,0.08760307729244232,-0.23949167132377625,-0.13190150260925293
1761413810567755000,6.635755126953125,0.06314601749181747,-0.24616330862045288,-0.16632503271102905
1761413810577768200,6.645768310546875,0.034086134284734726,-0.24459338188171387,-0.19513164460659027
1761413810587780900,6.65578076171875,-0.000006694754119962454,-0.24023376405239105,-0.20620541274547577
1761413810597794000,6.6657939453125,-0.0388433076441288,-0.23055796325206757,-0.19249120354652405
1761413810607807000,6.675806884765625,-0.07576300203800201,-0.22269777953624725,-0.151780366897583
1761413810617820000,6.68581982421875,-0.1079568937420845,-0.20570334792137146,-0.0950356051325798
1761413810627831800,6.695831787109375,-0.13777025043964386,-0.1971837878227234,-0.02784174494445324
1761413810637845000,6.705844970703125,-0.16290117800235748,-0.17507688701152802,0.038736484944820404
1761413810647858000,6.71585791015625,-0.18868142366409302,-0.11744607239961624,0.10736537724733353
1761413810657871000,6.72587109375,-0.20228245854377747,-0.018797526136040688,0.1732676923274994
1761413810667883800,6.7358837890625,-0.20688310265541077,0.1173168197274208,0.23486076295375824
1761413810677897000,6.74589697265625,-0.19186633825302124,0.2786657512187958,0.26693373918533325
1761413810687910100,6.75591015625,-0.14845125377178192,0.36608684062957764,0.233643040060997
1761413810697923000,6.765923095703125,-0.11070094257593155,0.30645865201950073,0.13333721458911896
1761413810707936000,6.77593603515625,-0.11375858634710312,0.17141996324062347,0.0026430245488882065
1761413810717948000,6.785947998046875,-0.1697787195444107,0.069089874625206,-0.12321370840072632
1761413810727961000,6.795961181640625,-0.23833806812763214,0.024232657626271248,-0.22571717202663422
1761413810737974000,6.80597412109375,-0.31510502099990845,0.015422387048602104,-0.29460301995277405
1761413810747987000,6.815987060546875,-0.41789698600769043,0.02365254797041416,-0.3369999825954437
1761413810757999900,6.825999755859375,-0.5372061133384705,0.0510663278400898,-0.34542593359947205
1761413810768013000,6.836012939453125,-0.628631055355072,0.13457803428173065,-0.3300616443157196
1761413810778026000,6.84602587890625,-0.6687390804290771,0.2390112429857254,-0.3035978078842163
1761413810788039000,6.856038818359375,-0.6678733229637146,0.315431147813797,-0.28443795442581177
1761413810798052000,6.866052001953125,-0.6406709551811218,0.35625821352005005,-0.27211230993270874
1761413810808064000,6.87606396484375,-0.5943076610565186,0.363911509513855,-0.2545611560344696
1761413810818077200,6.8860771484375,-0.5417371392250061,0.3377922773361206,-0.2156073898077011
1761413810828089900,6.89608984375,-0.4952894151210785,0.2940509617328644,-0.15499842166900635
1761413810838103000,6.90610302734375,-0.44249969720840454,0.259598970413208,-0.06801372021436691
1761413810848116000,6.916115966796875,-0.38683468103408813,0.24408532679080963,0.05229238048195839
1761413810858129200,6.926129150390625,-0.33135491609573364,0.24298250675201416,0.1940460503101349
1761413810868141800,6.936141845703125,-0.2890048623085022,0.22933994233608246,0.3214016258716583
1761413810878155000,6.946155029296875,-0.2565861940383911,0.1996701955795288,0.4354701340198517
1761413810888168200,6.956168212890625,-0.2294892519712448,0.15672607719898224,0.5194370150566101
1761413810898180900,6.966180908203125,-0.1978897899389267,0.10379388928413391,0.5609669089317322
1761413810908193000,6.976193115234375,-0.17642870545387268,0.03166217729449272,0.5679222941398621
1761413810918206000,6.9862060546875,-0.16339652240276337,-0.050083551555871964,0.5394986271858215
1761413810928219100,6.99621923828125,-0.16723348200321198,-0.13563287258148193,0.48864778876304626
1761413810938232000,7.006232177734375,-0.17337606847286224,-0.2143455296754837,0.42519426345825195
1761413810948245000,7.016244873046875,-0.18656839430332184,-0.27720677852630615,0.37907567620277405
1761413810958258000,7.0262578125,-0.2076699584722519,-0.32631492614746094,0.3440258204936981
1761413810968271000,7.03627099609375,-0.24243634939193726,-0.36372920870780945,0.3263033330440521
1761413810978284000,7.046283935546875,-0.27990490198135376,-0.3757019639015198,0.31871360540390015
1761413810988297000,7.056296875,-0.3043791651725769,-0.3689102232456207,0.3154447674751282
1761413810998309000,7.06630908203125,-0.3043972849845886,-0.3488371968269348,0.30558228492736816
1761413811008322000,7.076322021484375,-0.2854844331741333,-0.33589524030685425,0.28458449244499207
1761413811018335000,7.0863349609375,-0.2698069214820862,-0.34307006001472473,0.2548702657222748
1761413811028348000,7.096347900390625,-0.28733915090560913,-0.34718838334083557,0.19888563454151154
1761413811038361000,7.106361083984375,-0.32486921548843384,-0.34101197123527527,0.13326667249202728
1761413811048374000,7.1163740234375,-0.3755335509777069,-0.34610313177108765,0.059496231377124786
1761413811058387000,7.126386962890625,-0.444153368473053,-0.36043065786361694,-0.029154010117053986
1761413811068399900,7.13639990234375,-0.5102742910385132,-0.33597689867019653,-0.10628025233745575
1761413811078413000,7.1464130859375,-0.5693570375442505,-0.2612192928791046,-0.15366801619529724
1761413811088425000,7.156425048828125,-0.6178855299949646,-0.16558687388896942,-0.17122510075569153
1761413811098438100,7.166438232421875,-0.6505377292633057,-0.06870081275701523,-0.16696909070014954
1761413811108451000,7.176451171875,-0.6662178039550781,0.0107790008187294,-0.14615321159362793
1761413811118464000,7.186464111328125,-0.6604350209236145,0.06067864969372749,-0.1338491439819336
1761413811128477200,7.196477294921875,-0.6362788677215576,0.073638916015625,-0.1355394423007965
1761413811138489900,7.20648974609375,-0.6148156523704529,0.07258297502994537,-0.16538549959659576
1761413811148503000,7.2165029296875,-0.6011184453964233,0.05711857229471207,-0.21084009110927582
1761413811158516000,7.226515869140625,-0.5916985869407654,0.030571117997169495,-0.2655635178089142
1761413811168529200,7.236529052734375,-0.5990720987319946,0.003760642372071743,-0.31753599643707275
1761413811178542000,7.2465419921875,-0.6156052947044373,-0.017197635024785995,-0.3495922088623047
1761413811188554000,7.256553955078125,-0.6361351609230042,-0.043831318616867065,-0.3550579249858856
1761413811198567000,7.26656689453125,-0.6598333120346069,-0.0731830894947052,-0.339717835187912
1761413811208580000,7.276580078125,-0.674013614654541,-0.09598582237958908,-0.31376340985298157
1761413811218593000,7.286593017578125,-0.6717219352722168,-0.12195669859647751,-0.29748430848121643
1761413811228606000,7.29660595703125,-0.6546481847763062,-0.14741162955760956,-0.3080390989780426
1761413811238619100,7.306619140625,-0.6231083869934082,-0.16593152284622192,-0.33298757672309875
1761413811248632000,7.316632080078125,-0.5841456055641174,-0.17678605020046234,-0.36571434140205383
1761413811258645000,7.32664501953125,-0.5431982278823853,-0.1853071004152298,-0.39098745584487915
1761413811268658000,7.336657958984375,-0.5018265843391418,-0.1992775946855545,-0.3940058648586273
1761413811278670000,7.346670166015625,-0.4639694392681122,-0.21469543874263763,-0.3740130066871643
1761413811288683000,7.35668310546875,-0.4251388609409332,-0.22488923370838165,-0.3152411878108978
1761413811298696000,7.366696044921875,-0.3855530917644501,-0.22095760703086853,-0.23942314088344574
1761413811308708900,7.376708984375,-0.3435339629650116,-0.19439135491847992,-0.1573270708322525
1761413811318722000,7.38672216796875,-0.2942178249359131,-0.14586961269378662,-0.08699831366539001
1761413811328735200,7.3967353515625,-0.23782943189144135,-0.08764100819826126,-0.04427666217088699
1761413811338748000,7.406747802734375,-0.17794959247112274,-0.03876028582453728,-0.029244719073176384
1761413811348761000,7.416760986328125,-0.12617036700248718,-0.005802898667752743,-0.03685731440782547
1761413811358774000,7.42677392578125,-0.07419027388095856,-0.003975437488406897,-0.04527077078819275
1761413811368786200,7.4367861328125,-0.037563256919384,-0.01307373121380806,-0.030862953513860703
1761413811378798800,7.446798828125,-0.02676679939031601,-0.015109451487660408,-0.010040228255093098
1761413811388812000,7.45681201171875,-0.0022457449231296778,0.027630552649497986,0.0141966687515378
1761413811398825000,7.466824951171875,0.035602834075689316,0.0819326788187027,0.02799743413925171
1761413811408838100,7.476838134765625,0.07952319085597992,0.10768739879131317,0.020009659230709076
1761413811418851000,7.48685107421875,0.12440358102321625,0.13218900561332703,-0.0033667697571218014
1761413811428864000,7.496864013671875,0.1800878793001175,0.19328613579273224,-0.032727986574172974
1761413811438877200,7.506877197265625,0.26118406653404236,0.29789987206459045,-0.05448654666543007
1761413811448889900,7.516889892578125,0.36127543449401855,0.2956606447696686,-0.11448059231042862
1761413811458902000,7.526902099609375,0.41440549492836,0.10222246497869492,-0.2517146170139313
1761413811468915000,7.5369150390625,0.38031646609306335,-0.12137267738580704,-0.4255776107311249
1761413811478928100,7.54692822265625,0.30798473954200745,-0.31253916025161743,-0.5993145108222961
1761413811488941000,7.556941162109375,0.23073971271514893,-0.47752097249031067,-0.7102591395378113
1761413811498954000,7.5669541015625,0.15435360372066498,-0.6374621391296387,-0.7296692728996277
1761413811508967000,7.576966796875,0.0782187208533287,-0.7585172057151794,-0.646088182926178
1761413811518980000,7.58697998046875,0.02234613336622715,-0.7561213970184326,-0.4711078405380249
1761413811528993000,7.596992919921875,0.003593235742300749,-0.6529413461685181,-0.22900186479091644
1761413811539006000,7.607005859375,0.026011724025011063,-0.4815826117992401,0.02234434150159359
1761413811549017900,7.617017822265625,0.07562748342752457,-0.29536986351013184,0.22954173386096954
1761413811559031000,7.627031005859375,0.15788905322551727,-0.11940096318721771,0.369547039270401
1761413811569044200,7.637044189453125,0.2587380111217499,-0.002574722981080413,0.42095106840133667
1761413811579057000,7.647056884765625,0.35353508591651917,0.07999445497989655,0.41222813725471497
1761413811589070000,7.657070068359375,0.4410163462162018,0.1376865804195404,0.3807676136493683
1761413811599083000,7.6670830078125,0.5042904019355774,0.18748342990875244,0.3600250482559204
1761413811609096000,7.677095947265625,0.5330661535263062,0.25275230407714844,0.3646533191204071
1761413811619108900,7.68710888671875,0.5425211787223816,0.3280731439590454,0.3956429064273834
1761413811629122000,7.6971220703125,0.5421843528747559,0.3942631781101227,0.4388781189918518
1761413811639134000,7.707134033203125,0.5338973999023438,0.4323996305465698,0.476436972618103
1761413811649147100,7.717147216796875,0.5230798125267029,0.4395935535430908,0.5035138726234436
1761413811659160000,7.72716015625,0.5072630047798157,0.4229176640510559,0.4988217055797577
1761413811669173000,7.737173095703125,0.4823018014431,0.3935868442058563,0.46540340781211853
1761413811679186200,7.747186279296875,0.45755597949028015,0.3540428876876831,0.39353081583976746
1761413811689198800,7.75719873046875,0.43212491273880005,0.3152479827404022,0.29696497321128845
1761413811699212000,7.7672119140625,0.39778053760528564,0.27530375123023987,0.17993634939193726
1761413811709225000,7.777224853515625,0.36147186160087585,0.2364165484905243,0.06877197325229645
1761413811719238100,7.787238037109375,0.327915757894516,0.20824110507965088,-0.009301785379648209
1761413811729250800,7.797250732421875,0.2956703305244446,0.1884649395942688,-0.05668707191944122
1761413811739263000,7.807262939453125,0.27030664682388306,0.17693984508514404,-0.08253491669893265
1761413811749276000,7.81727587890625,0.2557373642921448,0.16935545206069946,-0.08660134673118591
1761413811759289000,7.8272890625,0.2573850750923157,0.168008953332901,-0.07530927658081055
1761413811769302000,7.837302001953125,0.26024216413497925,0.15896175801753998,-0.06630327552556992
1761413811779315000,7.84731494140625,0.27562591433525085,0.14830085635185242,-0.05683973804116249
1761413811789328100,7.857328125,0.295263409614563,0.14438526332378387,-0.04266753047704697
1761413811799341000,7.867341064453125,0.325634628534317,0.15138378739356995,-0.032845526933670044
1761413811809354000,7.87735400390625,0.3561721742153168,0.153355211019516,-0.036180801689624786
1761413811819367000,7.887366943359375,0.3842757046222687,0.15677765011787415,-0.057608865201473236
1761413811829379000,7.897379150390625,0.40754035115242004,0.15769091248512268,-0.0820908173918724
1761413811839392000,7.90739208984375,0.43091678619384766,0.15521152317523956,-0.0987989604473114
1761413811849405000,7.917405029296875,0.451335608959198,0.1461353600025177,-0.10429854691028595
1761413811859417900,7.92741796875,0.4651302397251129,0.1371578425168991,-0.10162314027547836
1761413811869431000,7.93743115234375,0.4758616089820862,0.11520042270421982,-0.09841649979352951
1761413811879444200,7.9474443359375,0.47927284240722656,0.08736266195774078,-0.10025062412023544
1761413811889457200,7.95745703125,0.47405752539634705,0.061796318739652634,-0.09804575890302658
1761413811899470300,7.96747021484375,0.46319952607154846,0.042841002345085144,-0.10184688866138458
1761413811909482200,7.977482177734375,0.44833847880363464,0.03932839632034302,-0.1048494428396225
1761413811919495400,7.987495361328125,0.4359484016895294,0.05265458673238754,-0.09919847548007965
1761413811929508000,7.997508056640625,0.4236179292201996,0.072047159075737,-0.09965172410011292
1761413811939521300,8.007521240234375,0.42132121324539185,0.08891482651233673,-0.09456241875886917
1761413811949534200,8.0175341796875,0.42344096302986145,0.11168038845062256,-0.08825426548719406
1761413811959547400,8.02754736328125,0.4292876720428467,0.13949497044086456,-0.08137398958206177
1761413811969560000,8.03756005859375,0.432550847530365,0.15529097616672516,-0.07302897423505783
1761413811979573200,8.0475732421875,0.42609208822250366,0.16392011940479279,-0.05334392935037613
1761413811989586200,8.057586181640625,0.4205581247806549,0.17105568945407867,-0.02032489702105522
1761413811999599000,8.06759912109375,0.4162757694721222,0.174259215593338,0.025609305128455162
1761413812009611000,8.077611083984374,0.4104567766189575,0.16341854631900787,0.06798259168863297
1761413812019624200,8.087624267578125,0.4091472923755646,0.1465655267238617,0.10128648579120636
1761413812029637400,8.097637451171876,0.4110637605190277,0.12222440540790558,0.1321273297071457
1761413812039650300,8.107650390625,0.4080149829387665,0.07844895869493484,0.15485607087612152
1761413812049663200,8.117663330078125,0.3990064263343811,0.024539589881896973,0.17625969648361206
1761413812059676200,8.12767626953125,0.3830935060977936,-0.029921788722276688,0.19228260219097137
1761413812069689300,8.137689453125,0.3686748743057251,-0.07483520358800888,0.2000129669904709
1761413812079702000,8.147701904296875,0.3471525311470032,-0.11526251584291458,0.2067028284072876
1761413812089715200,8.157715087890624,0.32607951760292053,-0.1544465571641922,0.21464397013187408
1761413812099727000,8.16772705078125,0.296791672706604,-0.1931004673242569,0.22682499885559082
1761413812109740300,8.177740234375,0.2522182762622833,-0.21939490735530853,0.2404942363500595
1761413812119753200,8.187753173828124,0.2006474882364273,-0.22798413038253784,0.2417544424533844
1761413812129766100,8.19776611328125,0.13665761053562164,-0.2267594337463379,0.22436785697937012
1761413812139779300,8.207779296875,0.06533868610858917,-0.22129303216934204,0.20791910588741302
1761413812149792300,8.217792236328124,-0.024771248921751976,-0.21298493444919586,0.17786040902137756
1761413812159805200,8.22780517578125,-0.11388887465000153,-0.20815689861774445,0.13756118714809418
1761413812169818000,8.237818115234376,-0.1921192854642868,-0.1953761726617813,0.09293462336063385
1761413812179831300,8.247831298828125,-0.25573739409446716,-0.15638695657253265,0.05671536549925804
1761413812189843200,8.25784326171875,-0.2934199273586273,-0.08480226993560791,0.04007148742675781
1761413812199856400,8.2678564453125,-0.2893780767917633,0.047978684306144714,0.048626359552145004
1761413812209869000,8.277869140625,-0.23781895637512207,0.17697873711585999,0.06498027592897415
1761413812219882200,8.28788232421875,-0.19011268019676208,0.18240971863269806,0.04876960813999176
1761413812229895200,8.297895263671874,-0.20005086064338684,0.10372179746627808,0.004075131379067898
1761413812239908000,8.307908203125,-0.24386225640773773,0.0039456672966480255,-0.05384116619825363
1761413812249921300,8.31792138671875,-0.2908027470111847,-0.05292264744639397,-0.11085256934165955
1761413812259934200,8.327934326171874,-0.3341526389122009,-0.061882585287094116,-0.1521746963262558
1761413812269946400,8.3379462890625,-0.38129210472106934,-0.04317407310009003,-0.1725545972585678
1761413812279959300,8.347959228515625,-0.42142245173454285,-0.0047340067103505135,-0.16389159858226776
1761413812289972200,8.35797216796875,-0.4498041868209839,0.05209401622414589,-0.1394338607788086
1761413812299985200,8.367985107421875,-0.44983187317848206,0.13057737052440643,-0.12820304930210114
1761413812309998300,8.377998291015626,-0.4079391062259674,0.21692529320716858,-0.13165338337421417
1761413812320011300,8.38801123046875,-0.34382590651512146,0.2903321385383606,-0.1574258655309677
1761413812330024200,8.398024169921875,-0.28364747762680054,0.3466953933238983,-0.18472632765769958
1761413812340037400,8.408037353515626,-0.23624029755592346,0.3813537657260895,-0.20053406059741974
1761413812350050300,8.41805029296875,-0.2106868326663971,0.40160948038101196,-0.2015814334154129
1761413812360063200,8.428063232421875,-0.19392277300357819,0.4319780170917511,-0.17276042699813843
1761413812370075100,8.4380751953125,-0.17864058911800385,0.4680899679660797,-0.12323769927024841
1761413812380088300,8.44808837890625,-0.17351213097572327,0.49115481972694397,-0.06174318864941597
1761413812390101200,8.458101318359375,-0.17503401637077332,0.4898689389228821,-0.004030947107821703
1761413812400114200,8.4681142578125,-0.17160332202911377,0.4734034240245819,0.05419640615582466
1761413812410127000,8.478127197265625,-0.16886794567108154,0.4397170841693878,0.09999556094408035
1761413812420140300,8.488140380859376,-0.16854676604270935,0.36375945806503296,0.1344267576932907
1761413812430153200,8.4981533203125,-0.16884180903434753,0.25684377551078796,0.16526949405670166
1761413812440166100,8.508166259765625,-0.16600129008293152,0.12736542522907257,0.19640716910362244
1761413812450179300,8.518179443359376,-0.16088591516017914,-0.008731547743082047,0.2404775619506836
1761413812460191200,8.528191162109374,-0.16293922066688538,-0.14213353395462036,0.3044818639755249
1761413812470204200,8.5382041015625,-0.17724457383155823,-0.28083938360214233,0.3706669807434082
1761413812480217300,8.54821728515625,-0.20589005947113037,-0.4104567766189575,0.4199889898300171
1761413812490230300,8.558230224609375,-0.2319607138633728,-0.5108008980751038,0.4453139901161194
1761413812500243200,8.5682431640625,-0.2452983558177948,-0.5767666101455688,0.46216273307800293
1761413812510256400,8.57825634765625,-0.26761531829833984,-0.6073402762413025,0.484870970249176
1761413812520269000,8.58826904296875,-0.2999061644077301,-0.6082707643508911,0.4923192858695984
1761413812530282200,8.5982822265625,-0.3213943839073181,-0.5701250433921814,0.48691344261169434
1761413812540295200,8.608295166015624,-0.320099800825119,-0.4643770456314087,0.47374090552330017
1761413812550307300,8.618307373046875,-0.3055966794490814,-0.3324354588985443,0.44824352860450745
1761413812560320300,8.6283203125,-0.27958133816719055,-0.2199438214302063,0.39203137159347534
1761413812570333200,8.638333251953124,-0.2528688311576843,-0.11752200126647949,0.324018657207489
1761413812580346400,8.648346435546875,-0.2234044224023819,-0.03615017607808113,0.26032754778862
1761413812590359300,8.658359375,-0.20465107262134552,0.04453590512275696,0.21921706199645996
1761413812600372200,8.668372314453125,-0.18757487833499908,0.12618176639080048,0.21247687935829163
1761413812610385200,8.67838525390625,-0.1745682954788208,0.19894181191921234,0.2338630110025406
1761413812620398300,8.6883984375,-0.17034904658794403,0.23979923129081726,0.2754831314086914
1761413812630410200,8.69841015625,-0.16739827394485474,0.2612316310405731,0.30884575843811035
1761413812640423400,8.70842333984375,-0.16015660762786865,0.2896784543991089,0.33058568835258484
1761413812650436000,8.71843603515625,-0.15280209481716156,0.2883182466030121,0.32988572120666504
1761413812660449300,8.72844921875,-0.13861782848834991,0.27901768684387207,0.3216775953769684
1761413812670462200,8.738462158203125,-0.12756596505641937,0.26569586992263794,0.29626569151878357
1761413812680475100,8.74847509765625,-0.12014932930469513,0.25247910618782043,0.26128295063972473
1761413812690488300,8.75848828125,-0.11090308427810669,0.26441243290901184,0.220431387424469
1761413812700501200,8.768501220703126,-0.10071250051259995,0.2845134437084198,0.17001374065876007
1761413812710514400,8.778514404296875,-0.08860139548778534,0.2857357859611511,0.11614792048931122
1761413812720526300,8.7885263671875,-0.07886567711830139,0.28538742661476135,0.05523797124624252
1761413812730539300,8.798539306640626,-0.0825747549533844,0.29124823212623596,-0.009012605994939804
1761413812740552200,8.80855224609375,-0.09045878052711487,0.28287631273269653,-0.07398787885904312
1761413812750565400,8.8185654296875,-0.09667637199163437,0.24913445115089417,-0.12805581092834473
1761413812760578000,8.828578125,-0.10957539081573486,0.1995205581188202,-0.1788172572851181
1761413812770591200,8.83859130859375,-0.12919487059116364,0.1296989917755127,-0.2171594798564911
1761413812780604200,8.848604248046875,-0.16612093150615692,0.051659323275089264,-0.24499696493148804
1761413812790617300,8.858617431640624,-0.2125222533941269,-0.023914624005556107,-0.2703080475330353
1761413812800630300,8.86863037109375,-0.26103970408439636,-0.09339996427297592,-0.3008475601673126
1761413812810642200,8.87864208984375,-0.30466753244400024,-0.15798886120319366,-0.3386087119579315
1761413812820655400,8.8886552734375,-0.32871827483177185,-0.19070953130722046,-0.3804570734500885
1761413812830668300,8.898668212890625,-0.33590200543403625,-0.20758382976055145,-0.4101133346557617
1761413812840681200,8.90868115234375,-0.32175183296203613,-0.23065346479415894,-0.42618870735168457
1761413812850694100,8.918694091796874,-0.2997674345970154,-0.2634897828102112,-0.4209139347076416
1761413812860707300,8.928707275390625,-0.27881553769111633,-0.3058079481124878,-0.3921304941177368
1761413812870720300,8.93872021484375,-0.2589530348777771,-0.3398931920528412,-0.3460589051246643
1761413812880732700,8.948732666015625,-0.2477904111146927,-0.359147846698761,-0.28213903307914734
1761413812890745900,8.958745849609375,-0.22436966001987457,-0.3661716878414154,-0.21934056282043457
1761413812900757800,8.9687578125,-0.19431616365909576,-0.3714261054992676,-0.16004501283168793
1761413812910771000,8.97877099609375,-0.15923815965652466,-0.37035346031188965,-0.09898241609334946
1761413812920784000,8.988783935546875,-0.13337646424770355,-0.334351509809494,-0.038748372346162796
1761413812930796800,8.998796875,-0.11286810040473938,-0.27598458528518677,0.0013710025232285261
1761413812940810000,9.00881005859375,-0.0852348804473877,-0.20594878494739532,0.012345356866717339
1761413812950823000,9.018822998046875,-0.05380311980843544,-0.13667336106300354,0.005707796663045883
1761413812960835800,9.0288359375,-0.026388008147478104,-0.04094523936510086,-0.013053640723228455
1761413812970848800,9.038848876953125,0.00349827972240746,0.09146752953529358,-0.038577791303396225
1761413812980862000,9.048862060546876,0.04309549182653427,0.21589814126491547,-0.06978365033864975
1761413812990873900,9.058873779296874,0.09463337063789368,0.23055636882781982,-0.11464531719684601
1761413813000887000,9.068886962890625,0.11531734466552734,0.14621779322624207,-0.1716657280921936
1761413813010899700,9.078899658203126,0.09608016163110733,0.06504753977060318,-0.2072732150554657
1761413813020913000,9.088912841796875,0.062284912914037704,-0.002345079556107521,-0.2049354910850525
1761413813030925800,9.09892578125,0.0322958268225193,-0.0934748575091362,-0.17223916947841644
1761413813040938800,9.108938720703126,-0.009635111317038536,-0.2084251493215561,-0.11480917036533356
1761413813050952000,9.118951904296875,-0.05022825300693512,-0.3085666000843048,-0.028666077181696892
1761413813060964900,9.12896484375,-0.08525041490793228,-0.3499246835708618,0.06160575896501541
1761413813070978000,9.13897802734375,-0.08524641394615173,-0.3159435987472534,0.14616245031356812
1761413813080990000,9.148989990234375,-0.061010316014289856,-0.22499769926071167,0.21611277759075165
1761413813091003000,9.1590029296875,-0.031005175784230232,-0.12705911695957184,0.261991024017334
1761413813101015800,9.169015869140624,0.004838575143367052,-0.044788215309381485,0.27835002541542053
1761413813111029000,9.179029052734375,0.05096869543194771,0.02553514391183853,0.2736721932888031
1761413813121041700,9.189041748046876,0.09474626928567886,0.09807033091783524,0.2713398039340973
1761413813131054800,9.199054931640624,0.12256734073162079,0.15606527030467987,0.27579471468925476
1761413813141067800,9.20906787109375,0.13928505778312683,0.1914951652288437,0.2879334092140198
1761413813151081000,9.2190810546875,0.1553676277399063,0.2193148136138916,0.31048399209976196
1761413813161092900,9.2290927734375,0.16936945915222168,0.23967334628105164,0.3360404670238495
1761413813171105800,9.239105712890625,0.18236848711967468,0.24253366887569427,0.3652656674385071
1761413813181119000,9.249118896484376,0.19432182610034943,0.23550079762935638,0.3890801668167114
1761413813191132000,9.2591318359375,0.21184863150119781,0.22253325581550598,0.3990780711174011
1761413813201144800,9.269144775390625,0.22342166304588318,0.21574005484580994,0.3937261998653412
1761413813211157800,9.27915771484375,0.23911547660827637,0.19857774674892426,0.36986595392227173
1761413813221171000,9.2891708984375,0.25587767362594604,0.1675681620836258,0.32739678025245667
1761413813231184000,9.299183837890626,0.2685868740081787,0.1272372156381607,0.2646825313568115
1761413813241196800,9.30919677734375,0.2750956416130066,0.0662715882062912,0.18658609688282013
1761413813251208700,9.319208740234375,0.2722873389720917,-0.01628130115568638,0.10699381679296494
1761413813261222000,9.329221923828126,0.25880375504493713,-0.11381638050079346,0.039838217198848724
1761413813271234800,9.33923486328125,0.2366686314344406,-0.20624297857284546,-0.010844134725630283
1761413813281247700,9.349247802734375,0.2196638137102127,-0.28053000569343567,-0.036886923015117645
1761413813291261000,9.359260986328126,0.20032815635204315,-0.3231866657733917,-0.051623232662677765
1761413813301273900,9.36927392578125,0.18569275736808777,-0.3427198827266693,-0.06157120317220688
1761413813311287000,9.379287109375,0.18965348601341248,-0.37188082933425903,-0.06846150010824203
1761413813321299700,9.3892998046875,0.20457305014133453,-0.3644876182079315,-0.06655734032392502
1761413813331313000,9.39931298828125,0.23009419441223145,-0.3214322030544281,-0.0631093978881836
1761413813341324800,9.40932470703125,0.2630140781402588,-0.2643899619579315,-0.0616220198571682
1761413813351338000,9.419337890625,0.300136923789978,-0.20132862031459808,-0.07205800712108612
1761413813361350700,9.4293505859375,0.3330320119857788,-0.1473977416753769,-0.09003221243619919
1761413813371363800,9.43936376953125,0.35598573088645935,-0.08680486679077148,-0.11288782209157944
1761413813381376800,9.449376708984374,0.37183767557144165,-0.028856083750724792,-0.13859346508979797
1761413813391390000,9.459389892578125,0.3798353374004364,0.021513085812330246,-0.16447962820529938
1761413813401403000,9.46940283203125,0.38421863317489624,0.06743317097425461,-0.17830462753772736
1761413813411415800,9.479415771484375,0.3841060400009155,0.11097541451454163,-0.18522366881370544
1761413813421429000,9.489428955078125,0.38524267077445984,0.14726337790489197,-0.18237489461898804
1761413813431441000,9.49944091796875,0.3882904350757599,0.17386536300182343,-0.18341395258903503
1761413813441453800,9.509453857421875,0.39273178577423096,0.18943020701408386,-0.1839495152235031
1761413813451466800,9.519466796875,0.40147164463996887,0.19623979926109314,-0.20263656973838806
1761413813461480000,9.52947998046875,0.4005528390407562,0.2013421505689621,-0.2328794300556183
1761413813471492900,9.539492919921875,0.39635714888572693,0.20007047057151794,-0.2667864263057709
1761413813481505800,9.549505859375,0.38624513149261475,0.20548655092716217,-0.3059934973716736
1761413813491518700,9.559518798828124,0.37140747904777527,0.20043793320655823,-0.33849310874938965
1761413813501532000,9.569531982421875,0.36101609468460083,0.19772017002105713,-0.3614974915981293
1761413813511544800,9.579544921875,0.34840455651283264,0.19151856005191803,-0.36266905069351196
1761413813521556700,9.589556640625,0.3348783850669861,0.18034394085407257,-0.34867334365844727
1761413813531570000,9.59956982421875,0.3300504684448242,0.16566067934036255,-0.3090711534023285
1761413813541582800,9.609582763671876,0.3342055380344391,0.14864973723888397,-0.26381102204322815
1761413813551596000,9.619595947265625,0.3449913561344147,0.1349208652973175,-0.22133971750736237
1761413813561608700,9.629608642578125,0.3611505925655365,0.11908065527677536,-0.18515267968177795
1761413813571622000,9.639621826171876,0.3801423907279968,0.1063268706202507,-0.16254201531410217
1761413813581634800,9.649634765625,0.3965069651603699,0.08873508870601654,-0.1463278979063034
1761413813591647700,9.659647705078125,0.40252241492271423,0.06279926002025604,-0.12515011429786682
1761413813601659600,9.66965966796875,0.3981287181377411,0.03118593990802765,-0.09884260594844818
1761413813611672800,9.6796728515625,0.3799288868904114,-0.007471434306353331,-0.07496680319309235
1761413813621685800,9.689685791015625,0.36647912859916687,-0.0454728789627552,-0.052719827741384506
1761413813631699000,9.699698974609374,0.34584566950798035,-0.07234211266040802,-0.0333801731467247
1761413813641711900,9.7097119140625,0.3249955177307129,-0.09935801476240158,-0.022993844002485275
1761413813651724800,9.719724853515626,0.29803648591041565,-0.12992803752422333,-0.012487498112022877
1761413813661738000,9.729738037109374,0.26755982637405396,-0.15892161428928375,-0.00844188965857029
1761413813671750700,9.739750732421875,0.23059393465518951,-0.1871940940618515,-0.0014451650204136968
1761413813681763800,9.749763916015626,0.1978551596403122,-0.21104615926742554,-0.001035570865496993
1761413813691775700,9.759775634765624,0.16635966300964355,-0.23314696550369263,0.0016990413423627615
1761413813701789000,9.769788818359375,0.1385733038187027,-0.25017282366752625,0.0006798494141548872
1761413813711801900,9.7798017578125,0.11047687381505966,-0.2650336027145386,-0.010256108827888966
1761413813721814800,9.789814697265625,0.08572918176651001,-0.2771286070346832,-0.031270578503608704
1761413813731827700,9.79982763671875,0.0642535611987114,-0.2887280285358429,-0.06069697067141533
1761413813741841000,9.8098408203125,0.04046221449971199,-0.2999473810195923,-0.09228072315454483
1761413813751853800,9.819853759765625,0.01811709627509117,-0.28762856125831604,-0.11830227822065353
1761413813761866800,9.82986669921875,0.0005695278523489833,-0.2599998712539673,-0.14515812695026398
1761413813771880000,9.8398798828125,-0.01747899316251278,-0.22054268419742584,-0.15589092671871185
1761413813781891800,9.849891845703125,-0.027684226632118225,-0.12961411476135254,-0.14332880079746246
1761413813791905000,9.859905029296876,-0.02611527219414711,-0.04154432192444801,-0.10679838806390762
1761413813801917700,9.869917724609374,-0.008962384425103664,0.07764572650194168,-0.06446398049592972
1761413813811931000,9.879930908203125,0.03134062513709068,0.17596742510795593,-0.04202275350689888
1761413813821943800,9.88994384765625,0.0614713653922081,0.16173629462718964,-0.06373923271894455
1761413813831956700,9.899956787109375,0.061886563897132874,0.08187626302242279,-0.12371136993169785
1761413813841970000,9.909969970703125,0.03455614298582077,0.01942061260342598,-0.18063031136989594
1761413813851982800,9.91998291015625,0.021294308826327324,-0.01697475276887417,-0.2276632934808731
1761413813861994800,9.929994873046875,0.024143358692526817,-0.08746782690286636,-0.2646343410015106
1761413813872008000,9.940008056640625,0.039180632680654526,-0.20546983182430267,-0.29967647790908813
1761413813882020600,9.9500205078125,0.05298938602209091,-0.2958572506904602,-0.3129619359970093
1761413813892033800,9.96003369140625,0.05514107272028923,-0.3564221262931824,-0.29956376552581787
1761413813902046700,9.970046630859375,0.053354356437921524,-0.3521650433540344,-0.255208820104599
1761413813912060000,9.980059814453124,0.05055386573076248,-0.2736760079860687,-0.18957646191120148
1761413813922072800,9.99007275390625,0.04626990482211113,-0.15927749872207642,-0.13717743754386902
1761413813932085800,10.000085693359376,0.04828125983476639,-0.03740182891488075,-0.11805760115385056
1761413813942099000,10.010098876953125,0.0615541897714138,0.0915399044752121,-0.13280297815799713
1761413813952110800,10.02011083984375,0.09646590799093246,0.2192831188440323,-0.15670636296272278
1761413813962123800,10.030123779296876,0.14020220935344696,0.3244396150112152,-0.17714905738830566
1761413813972136700,10.04013671875,0.19814109802246094,0.41483181715011597,-0.16902506351470947
1761413813982150000,10.05014990234375,0.27992889285087585,0.4575691521167755,-0.13681438565254211
1761413813992162800,10.060162841796876,0.3566587567329407,0.4219142496585846,-0.08065761625766754
