time,seconds_elapsed,z,y,x
1761413840526328000,0.079328125,0.08831975609064102,0.09966091811656952,-0.10909786820411682
1761413840536341000,0.089341064453125,0.08856823295354843,0.09587389975786209,-0.11884371191263199
1761413840546354200,0.099354248046875,0.09911749511957169,0.08017800003290176,-0.12407279759645462
1761413840556366800,0.109366943359375,0.11238083243370056,0.05588890612125397,-0.1257774829864502
1761413840566380000,0.119380126953125,0.12505148351192474,0.030996162444353104,-0.11160556972026825
1761413840576392000,0.129391845703125,0.13054506480693817,-0.0017162442672997713,-0.1017923578619957
1761413840586405000,0.139405029296875,0.1295592337846756,-0.017969882115721703,-0.09775117039680481
1761413840596417800,0.149417724609375,0.1325387805700302,-0.03240927308797836,-0.08616535365581512
1761413840606431000,0.159430908203125,0.12856312096118927,-0.028014589101076126,-0.060140352696180344
1761413840616444000,0.16944384765625,0.1137908324599266,-0.01984800398349762,-0.034810230135917664
1761413840626457000,0.17945703125,0.0929427370429039,-0.023381918668746948,-0.01204349659383297
1761413840636469000,0.189468994140625,0.08515965193510056,-0.02707386016845703,0.004490471910685301
1761413840646482000,0.19948193359375,0.08780106902122498,-0.019489914178848267,0.009191153571009636
1761413840656495000,0.2094951171875,0.09658151119947433,-0.01186528429389,0.005114386323839426
1761413840666508000,0.219508056640625,0.10992360860109329,-0.008768485859036446,-0.003922056406736374
1761413840676521000,0.22952099609375,0.12267908453941345,-0.005868303123861551,-0.012785855680704117
1761413840686532900,0.239532958984375,0.14079168438911438,-0.007346952334046364,-0.01625988632440567
1761413840696546000,0.249546142578125,0.15818478167057037,-0.015041623264551163,-0.009991870261728764
1761413840706559000,0.25955908203125,0.16551117599010468,-0.024222977459430695,0.002998600946739316
1761413840716572200,0.269572265625,0.16959379613399506,-0.03447028622031212,0.012098888866603374
1761413840726584800,0.279584716796875,0.16554957628250122,-0.03519953787326813,0.02991550602018833
1761413840736597000,0.289596923828125,0.15691746771335602,-0.030735813081264496,0.051005613058805466
1761413840746610000,0.29960986328125,0.1464269608259201,-0.03341807425022125,0.06557542830705643
1761413840756623000,0.309623046875,0.13328346610069275,-0.030910708010196686,0.07775858789682388
1761413840766635800,0.3196357421875,0.1268240064382553,-0.013237431645393372,0.08705488592386246
1761413840776649000,0.32964892578125,0.12463222444057465,0.01526664849370718,0.10630287975072861
1761413840786660900,0.339660888671875,0.13504913449287415,0.04923686012625694,0.11292296648025513
1761413840796674000,0.349674072265625,0.15126459300518036,0.0683373212814331,0.1178910955786705
1761413840806687000,0.35968701171875,0.17571671307086945,0.06237160041928291,0.11268991231918335
1761413840816700000,0.369699951171875,0.19523368775844574,0.028927357867360115,0.0966062843799591
1761413840826713000,0.379713134765625,0.19897322356700897,-0.015908991917967796,0.07010773569345474
1761413840836726000,0.38972607421875,0.1930583417415619,-0.06028923764824867,0.042182356119155884
1761413840846738000,0.399738037109375,0.17985579371452332,-0.08470359444618225,0.017225440591573715
1761413840856750800,0.409750732421875,0.1742652952671051,-0.0710783302783966,-0.0005998942069709301
1761413840866764000,0.419763916015625,0.17887301743030548,-0.033223532140254974,-0.015618357807397842
1761413840876777000,0.42977685546875,0.18670697510242462,-0.0058228010311722755,-0.02692560665309429
1761413840886790100,0.4397900390625,0.18760555982589722,0.00542109552770853,-0.0465073324739933
1761413840896801800,0.4498017578125,0.18582098186016083,0.017459381371736526,-0.07597840577363968
1761413840906814700,0.459814697265625,0.18368810415267944,0.03126230835914612,-0.11233804374933243
1761413840916827600,0.46982763671875,0.17773619294166565,0.03988588973879814,-0.15054401755332947
1761413840926840800,0.4798408203125,0.1664782464504242,0.025504160672426224,-0.18885105848312378
1761413840936853800,0.489853759765625,0.14117635786533356,0.03227205201983452,-0.2049296349287033
1761413840946866000,0.499865966796875,0.11585812270641327,0.028491368517279625,-0.2088361531496048
1761413840956878600,0.509878662109375,0.0977608785033226,-0.00104149105027318,-0.19237196445465088
1761413840966891800,0.519891845703125,0.08414382487535477,0.007439581211656332,-0.16745005548000336
1761413840976905000,0.529905029296875,0.07348212599754333,0.03933493047952652,-0.13242922723293304
1761413840986917600,0.539917724609375,0.06417318433523178,0.06796853244304657,-0.09976965188980103
1761413840996929800,0.5499296875,0.06833117455244064,0.10157735645771027,-0.07656286656856537
1761413841006942700,0.559942626953125,0.0751432329416275,0.1383688896894455,-0.06660953164100647
1761413841016956000,0.569955810546875,0.08485711365938187,0.15495239198207855,-0.06322865188121796
1761413841026968800,0.57996875,0.09774063527584076,0.1575564295053482,-0.07494150102138519
1761413841036981800,0.589981689453125,0.10739246010780334,0.14872591197490692,-0.08598615974187851
1761413841046994700,0.59999462890625,0.11556418240070343,0.15821011364459991,-0.09497952461242676
1761413841057006800,0.6100068359375,0.12088997662067413,0.1255485862493515,-0.10839653015136719
1761413841067019800,0.620019775390625,0.12352408468723297,0.08562330156564713,-0.11700180172920227
1761413841077032700,0.63003271484375,0.12056051939725876,0.0672735944390297,-0.11091674864292145
1761413841087045600,0.640045654296875,0.10311131179332733,0.051462024450302124,-0.10491757839918137
1761413841097058800,0.650058837890625,0.08254744857549667,0.02363172173500061,-0.09820374846458435
1761413841107070700,0.66007080078125,0.06010834500193596,0.0027176132425665855,-0.0936526358127594
1761413841117084000,0.670083984375,0.033495642244815826,-0.011083154007792473,-0.08288227766752243
1761413841127096600,0.6800966796875,0.009945100173354149,-0.024308936670422554,-0.07309623062610626
1761413841137109800,0.69010986328125,-0.01035857293754816,-0.03367473930120468,-0.059018492698669434
1761413841147123000,0.700123046875,-0.02378951758146286,-0.024873854592442513,-0.047082673758268356
1761413841157134800,0.710134765625,-0.027494240552186966,-0.019788546487689018,-0.03163740783929825
1761413841167147800,0.720147705078125,-0.022892648354172707,-0.02021826058626175,-0.014895573258399963
1761413841177160700,0.73016064453125,-0.016159379854798317,-0.01877296343445778,0.00298781949095428
1761413841187174000,0.740173828125,-0.01586790941655636,-0.023254863917827606,0.01778174564242363
1761413841197186800,0.750186767578125,-0.01991884410381317,-0.04054756835103035,0.03374660015106201
1761413841207199000,0.760198974609375,-0.029325589537620544,-0.06539549678564072,0.047306980937719345
1761413841217211600,0.770211669921875,-0.04642681032419205,-0.09259063005447388,0.05397500470280647
1761413841227224800,0.780224853515625,-0.06336039304733276,-0.10549134016036987,0.0632583498954773
1761413841237237800,0.79023779296875,-0.07217705249786377,-0.08860503137111664,0.07568865269422531
1761413841247250700,0.800250732421875,-0.08129404485225677,-0.05307403579354286,0.0963524878025055
1761413841257262600,0.8102626953125,-0.08370473980903625,-0.022410398349165916,0.11174821853637695
1761413841267275800,0.82027587890625,-0.07966336607933044,0.009830765426158905,0.13328640162944794
1761413841277288700,0.830288818359375,-0.0720219537615776,0.05227569490671158,0.1584402173757553
1761413841287302000,0.840302001953125,-0.0505317784845829,0.11673982441425323,0.189522847533226
1761413841297314800,0.850314697265625,-0.017150120809674263,0.18584352731704712,0.23146896064281464
1761413841307327700,0.86032763671875,0.029774291440844536,0.21368664503097534,0.2650223672389984
1761413841317339600,0.870339599609375,0.059196360409259796,0.19932368397712708,0.2787208557128906
1761413841327352800,0.880352783203125,0.0545908659696579,0.19879578053951263,0.27953505516052246
1761413841337365800,0.89036572265625,0.03243416175246239,0.16030378639698029,0.24153919517993927
1761413841347378700,0.900378662109375,-0.01210560742765665,0.07885660231113434,0.17639002203941345
1761413841357392000,0.910391845703125,-0.08929919451475143,0.0014467611908912659,0.0920834094285965
1761413841367403800,0.92040380859375,-0.191180020570755,-0.04936928302049637,0.0007281925063580275
1761413841377417000,0.9304169921875,-0.30148470401763916,-0.08214826881885529,-0.08573213219642639
1761413841387429600,0.9404296875,-0.39447522163391113,-0.07579589635133743,-0.13659177720546722
1761413841397442800,0.95044287109375,-0.4501906931400299,-0.019775237888097763,-0.1455775499343872
1761413841407455700,0.960455810546875,-0.4692904055118561,0.032976727932691574,-0.12481508404016495
1761413841417468000,0.970468017578125,-0.46513426303863525,0.053495585918426514,-0.0883561447262764
1761413841427480600,0.98048046875,-0.43812575936317444,0.04699071869254112,-0.048571616411209106
1761413841437493800,0.99049365234375,-0.409536749124527,0.02650568261742592,-0.0067368196323513985
1761413841447506700,1.000506591796875,-0.3940487802028656,0.03921631723642349,0.034052252769470215
1761413841457519900,1.010519775390625,-0.38043415546417236,0.06801547855138779,0.0552118681371212
1761413841467531800,1.02053173828125,-0.35130584239959717,0.10698127746582031,0.07066909223794937
1761413841477544700,1.030544677734375,-0.3119296729564667,0.16518253087997437,0.0816919133067131
1761413841487558000,1.040557861328125,-0.27733707427978516,0.24547897279262543,0.10075295716524124
1761413841497570800,1.05057080078125,-0.2419268935918808,0.30665308237075806,0.10727930068969727
1761413841507583700,1.060583740234375,-0.19777831435203552,0.3287545442581177,0.11851637810468674
1761413841517595600,1.070595703125,-0.1518840491771698,0.35011202096939087,0.13393661379814148
1761413841527608800,1.08060888671875,-0.12261196225881577,0.33128416538238525,0.14678886532783508
1761413841537621800,1.090621826171875,-0.0985787957906723,0.26293495297431946,0.13965240120887756
1761413841547635000,1.100635009765625,-0.07545656710863113,0.16074669361114502,0.13113729655742645
1761413841557647600,1.110647705078125,-0.06060172617435455,0.06270002573728561,0.12979400157928467
1761413841567660800,1.120660888671875,-0.05768110975623131,-0.014958181418478489,0.13566803932189941
1761413841577672700,1.130672607421875,-0.07140064984560013,-0.07613764703273773,0.13533461093902588
1761413841587686000,1.140685791015625,-0.09391728788614273,-0.12890665233135223,0.1214529499411583
1761413841597698800,1.15069873046875,-0.12884704768657684,-0.16932038962841034,0.08788353204727173
1761413841607711700,1.160711669921875,-0.17316050827503204,-0.19957725703716278,0.034623146057128906
1761413841617724700,1.170724609375,-0.22978277504444122,-0.2243870049715042,-0.03370371460914612
1761413841627736800,1.18073681640625,-0.29491305351257324,-0.23865541815757751,-0.11758396774530411
1761413841637749800,1.190749755859375,-0.350972056388855,-0.22150227427482605,-0.1925002783536911
1761413841647762700,1.2007626953125,-0.38958948850631714,-0.18159988522529602,-0.2591085731983185
1761413841657775900,1.21077587890625,-0.3968164920806885,-0.1195298582315445,-0.30730515718460083
1761413841667788800,1.220788818359375,-0.37683531641960144,-0.04613202065229416,-0.3323785960674286
1761413841677800700,1.23080078125,-0.33802640438079834,0.03551889955997467,-0.33559727668762207
1761413841687813600,1.240813720703125,-0.28349757194519043,0.11678934842348099,-0.3167661428451538
1761413841697826800,1.250826904296875,-0.22236205637454987,0.16952818632125854,-0.28189393877983093
1761413841707839700,1.26083984375,-0.1650230586528778,0.18212929368019104,-0.24540604650974274
1761413841717853000,1.27085302734375,-0.11649040877819061,0.16924890875816345,-0.20578059554100037
1761413841727864800,1.28086474609375,-0.08248981833457947,0.1435042917728424,-0.1651284098625183
1761413841737877800,1.290877685546875,-0.0570576936006546,0.11565002799034119,-0.14319674670696259
1761413841747890700,1.300890625,-0.04322018846869469,0.0733703225851059,-0.12784531712532043
1761413841757904000,1.31090380859375,-0.036352429538965225,0.027338912710547447,-0.11719774454832077
1761413841767916800,1.320916748046875,-0.03810771927237511,-0.004900517873466015,-0.11431620270013809
1761413841777928700,1.3309287109375,-0.04931802675127983,-0.03325971961021423,-0.11254839599132538
1761413841787941600,1.340941650390625,-0.04991545155644417,-0.056956697255373,-0.12235425412654877
1761413841797954800,1.350954833984375,-0.04864246025681496,-0.07731176912784576,-0.1354048103094101
1761413841807967700,1.3609677734375,-0.049483899027109146,-0.09616674482822418,-0.14718922972679138
1761413841817980700,1.370980712890625,-0.054598502814769745,-0.10977230221033096,-0.16008585691452026
1761413841827992600,1.38099267578125,-0.06564294546842575,-0.12553159892559052,-0.1618829220533371
1761413841838005800,1.391005859375,-0.07124996185302734,-0.13951824605464935,-0.16113616526126862
1761413841848019000,1.40101904296875,-0.07657487690448761,-0.1455986201763153,-0.1481901854276657
1761413841858031900,1.411031982421875,-0.08278137445449829,-0.13882513344287872,-0.12642470002174377
1761413841868044800,1.421044921875,-0.09161021560430527,-0.12482445687055588,-0.09872239828109741
1761413841878056700,1.431056640625,-0.09917332231998444,-0.11127270013093948,-0.07512492686510086
1761413841888070000,1.44106982421875,-0.10362400114536285,-0.1004490777850151,-0.047474391758441925
1761413841898083300,1.451083251953125,-0.10512468963861465,-0.08490287512540817,-0.01627412810921669
1761413841908096300,1.46109619140625,-0.10785079747438431,-0.06922993808984756,0.005313757807016373
1761413841918109400,1.471109375,-0.11146284639835358,-0.046441804617643356,0.02093372866511345
1761413841928121300,1.481121337890625,-0.10978716611862183,-0.016005443409085274,0.03635433316230774
1761413841938134500,1.491134521484375,-0.09448917210102081,0.016727469861507416,0.05327765643596649
1761413841948147200,1.501147216796875,-0.08183177560567856,0.03203514963388443,0.07085228711366653
1761413841958160400,1.511160400390625,-0.06730689108371735,0.022142840549349785,0.08610767126083374
1761413841968173300,1.52117333984375,-0.059522658586502075,0.009447695687413216,0.10107050836086273
1761413841978185500,1.531185546875,-0.054413650184869766,-0.011742809787392616,0.11448618769645691
1761413841988198400,1.541198486328125,-0.04914998263120651,-0.047125205397605896,0.1252516508102417
1761413841998211300,1.55121142578125,-0.051208607852458954,-0.08890034258365631,0.13187439739704132
1761413842008224300,1.561224365234375,-0.05558580532670021,-0.1334008425474167,0.12835222482681274
1761413842018237400,1.571237548828125,-0.06328074634075165,-0.17182360589504242,0.1174311414361
1761413842028249300,1.581249267578125,-0.07355938106775284,-0.18837563693523407,0.10563889890909195
1761413842038262300,1.59126220703125,-0.08263996243476868,-0.17361879348754883,0.09433324635028839
1761413842048275500,1.601275390625,-0.08814540505409241,-0.1396477371454239,0.08733788132667542
1761413842058288400,1.611288330078125,-0.07451401650905609,-0.04749384522438049,0.09287086874246597
1761413842068301300,1.62130126953125,-0.02818376198410988,0.09982027113437653,0.10894966870546341
1761413842078314200,1.631314208984375,0.04487420246005058,0.18541187047958374,0.09843737632036209
1761413842088326400,1.641326416015625,0.11051879078149796,0.1500529944896698,0.036950383335351944
1761413842098339300,1.65133935546875,0.1475500464439392,0.07576199620962143,-0.04326828941702843
1761413842108352500,1.6613525390625,0.15956342220306396,-0.02833251655101776,-0.13041645288467407
1761413842118365200,1.671365234375,0.1498498022556305,-0.1495494842529297,-0.20414499938488007
1761413842128378400,1.68137841796875,0.130161851644516,-0.26214689016342163,-0.23399263620376587
1761413842138390300,1.691390380859375,0.10017278790473938,-0.3259442448616028,-0.21947787702083588
1761413842148403500,1.701403564453125,0.06348462402820587,-0.3338783383369446,-0.17355962097644806
1761413842158416400,1.71141650390625,0.036109454929828644,-0.3066011667251587,-0.1003759577870369
1761413842168429300,1.72142919921875,0.027923183515667915,-0.26723843812942505,-0.016255652531981468
1761413842178442200,1.731442138671875,0.0347568541765213,-0.2389221042394638,0.07318714261054993
1761413842188454400,1.741454345703125,0.06003691256046295,-0.22628752887248993,0.15197277069091797
1761413842198467300,1.75146728515625,0.09107339382171631,-0.22338254749774933,0.21814219653606415
1761413842208480300,1.761480224609375,0.11627691984176636,-0.22669696807861328,0.2646520137786865
1761413842218493400,1.771493408203125,0.13755370676517487,-0.231123149394989,0.291549950838089
1761413842228506400,1.78150634765625,0.1571149080991745,-0.2523634731769562,0.2982286512851715
1761413842238518300,1.791518310546875,0.17831286787986755,-0.2836604416370392,0.2969636619091034
1761413842248531500,1.801531494140625,0.19264045357704163,-0.30997827649116516,0.2833985388278961
1761413842258544400,1.81154443359375,0.20491497218608856,-0.3074086010456085,0.27724742889404297
1761413842268557300,1.821557373046875,0.2141076922416687,-0.27548009157180786,0.26599010825157166
1761413842278570500,1.831570556640625,0.22348469495773315,-0.21656005084514618,0.25597184896469116
1761413842288582400,1.84158251953125,0.2201620489358902,-0.17612436413764954,0.23338520526885986
1761413842298595300,1.85159521484375,0.21653668582439423,-0.1544073522090912,0.18988806009292603
1761413842308608300,1.861608154296875,0.2164580225944519,-0.15407772362232208,0.14288519322872162
1761413842318621400,1.871621337890625,0.22918394207954407,-0.19734050333499908,0.08667412400245667
1761413842328634400,1.88163427734375,0.23767848312854767,-0.25621429085731506,0.03367489203810692
1761413842338646500,1.891646484375,0.24916602671146393,-0.30566251277923584,-0.0010077209444716573
1761413842348659200,1.9016591796875,0.26814231276512146,-0.3510051369667053,-0.013310026377439499
1761413842358672400,1.91167236328125,0.2933209240436554,-0.3982224464416504,-0.006948533933609724
1761413842368685300,1.921685302734375,0.3165261745452881,-0.4248625338077545,0.025241825729608536
1761413842378698200,1.9316982421875,0.33307933807373047,-0.41632550954818726,0.06606702506542206
1761413842388710100,1.941710205078125,0.3437650203704834,-0.37545302510261536,0.10720127075910568
1761413842398723300,1.951723388671875,0.3492330312728882,-0.31772688031196594,0.1276029497385025
1761413842408736500,1.961736572265625,0.34970033168792725,-0.2531284987926483,0.12139812111854553
1761413842418749400,1.97174951171875,0.35487937927246094,-0.21527619659900665,0.07740722596645355
1761413842428762400,1.981762451171875,0.36409613490104675,-0.19241052865982056,0.009408698417246342
1761413842438774300,1.991774169921875,0.37926843762397766,-0.15862485766410828,-0.0688922330737114
1761413842448787500,2.001787353515625,0.40023109316825867,-0.1020527109503746,-0.15540792047977448
1761413842458800400,2.01180029296875,0.4254360496997833,-0.05064331367611885,-0.2358391135931015
1761413842468813300,2.021813232421875,0.45728471875190735,-0.003824068233370781,-0.30702123045921326
1761413842478826200,2.031826171875,0.49341022968292236,0.03605277091264725,-0.36974504590034485
1761413842488838400,2.04183837890625,0.5267630815505981,0.06827260553836823,-0.41110217571258545
1761413842498851300,2.051851318359375,0.5464262366294861,0.10382740199565887,-0.44829827547073364
1761413842508864500,2.061864501953125,0.5588390827178955,0.13808712363243103,-0.4747682511806488
1761413842518877200,2.071877197265625,0.5653284192085266,0.16694913804531097,-0.49853670597076416
1761413842528890400,2.081890380859375,0.5736491680145264,0.18845602869987488,-0.5180265307426453
1761413842538902300,2.09190234375,0.5767490863800049,0.20808139443397522,-0.5483589172363281
1761413842548915500,2.10191552734375,0.5831475853919983,0.21197590231895447,-0.571422278881073
1761413842558928100,2.11192822265625,0.5901221632957458,0.20797289907932281,-0.5865077376365662
1761413842568941300,2.12194140625,0.6016966700553894,0.2026377022266388,-0.5903308987617493
1761413842578954500,2.13195458984375,0.615030825138092,0.19893936812877655,-0.57593834400177
1761413842588966400,2.14196630859375,0.6378320455551147,0.19039799273014069,-0.5490598082542419
1761413842598979300,2.151979248046875,0.664948582649231,0.18566101789474487,-0.5139029026031494
1761413842608992300,2.1619921875,0.6966528296470642,0.20044304430484772,-0.4700929522514343
1761413842619005400,2.17200537109375,0.7238906025886536,0.20453259348869324,-0.4328100383281708
1761413842629018400,2.182018310546875,0.7379520535469055,0.21057264506816864,-0.3995077311992645
1761413842639030500,2.192030517578125,0.7422711849212646,0.21519748866558075,-0.3571251332759857
1761413842649043200,2.202043212890625,0.7417007088661194,0.2038312703371048,-0.3120174705982208
1761413842659056400,2.212056396484375,0.7284861207008362,0.16985653340816498,-0.2606978416442871
1761413842669069300,2.2220693359375,0.6980162858963013,0.10585528612136841,-0.20872020721435547
1761413842679082500,2.23208251953125,0.6548728346824646,0.038610734045505524,-0.14319898188114166
1761413842689094400,2.242094482421875,0.5935724973678589,-0.0270773284137249,-0.0777849555015564
1761413842699107300,2.252107421875,0.5170832872390747,-0.08735425025224686,-0.012249089777469635
1761413842709120300,2.262120361328125,0.43889495730400085,-0.11779392510652542,0.06281903386116028
1761413842719133400,2.272133544921875,0.3677845895290375,-0.1326698213815689,0.13226841390132904
1761413842729146400,2.282146484375,0.3018883764743805,-0.14657817780971527,0.18422402441501617
1761413842739158300,2.292158203125,0.24237753450870514,-0.1741412878036499,0.2177422195672989
1761413842749171200,2.302171142578125,0.1856369823217392,-0.19441303610801697,0.22984500229358673
1761413842759184400,2.312184326171875,0.13556529581546783,-0.2015492469072342,0.22428591549396515
1761413842769197600,2.322197509765625,0.09022315591573715,-0.20801323652267456,0.21170777082443237
1761413842779210200,2.332210205078125,0.03917142003774643,-0.2069985717535019,0.18555712699890137
1761413842789222100,2.34222216796875,-0.011122644878923893,-0.20268398523330688,0.16584281623363495
1761413842799235300,2.3522353515625,-0.0663163885474205,-0.18401148915290833,0.14889951050281525
1761413842809248500,2.36224853515625,-0.11959954351186752,-0.15923954546451569,0.1537317931652069
1761413842819261400,2.372261474609375,-0.15575860440731049,-0.11352105438709259,0.18407371640205383
1761413842829274400,2.3822744140625,-0.18560343980789185,-0.04611395671963692,0.22952258586883545
1761413842839286300,2.392286376953125,-0.19730085134506226,0.023879241198301315,0.2902032434940338
1761413842849299500,2.402299560546875,-0.17980995774269104,0.11926781386137009,0.34768813848495483
1761413842859312400,2.4123125,-0.1355748474597931,0.21625909209251404,0.3977089524269104
1761413842869325300,2.4223251953125,-0.09209312498569489,0.2330656200647354,0.39955970644950867
1761413842879338200,2.432338134765625,-0.07441825419664383,0.18441154062747955,0.3591400980949402
1761413842889350400,2.442350341796875,-0.07784577459096909,0.1081930622458458,0.29662787914276123
1761413842899363600,2.452363525390625,-0.10807052254676819,0.01959449052810669,0.22412942349910736
1761413842909376300,2.462376220703125,-0.140001118183136,-0.05517248436808586,0.16010735929012299
1761413842919389400,2.472389404296875,-0.16893689334392548,-0.09929600358009338,0.12541596591472626
1761413842929402600,2.482402587890625,-0.19886982440948486,-0.11646876484155655,0.12195828557014465
1761413842939414500,2.49241455078125,-0.22891028225421906,-0.08557050675153732,0.15131297707557678
1761413842949427500,2.502427490234375,-0.24617795646190643,-0.02536921575665474,0.19651560485363007
1761413842959440400,2.5124404296875,-0.23317161202430725,0.04508790373802185,0.24252118170261383
1761413842969453600,2.52245361328125,-0.18588346242904663,0.11606540530920029,0.27822592854499817
1761413842979466500,2.532466552734375,-0.10690449178218842,0.1805378794670105,0.2999245524406433
1761413842989478700,2.542478759765625,0.0005739767220802605,0.23119838535785675,0.31238093972206116
1761413842999491300,2.5524912109375,0.1300792396068573,0.26183751225471497,0.3215517997741699
1761413843009504500,2.56250439453125,0.26503023505210876,0.2725687623023987,0.3379552364349365
1761413843019517400,2.572517333984375,0.3952191174030304,0.2698134481906891,0.3627103865146637
1761413843029530600,2.582530517578125,0.50575852394104,0.27018263936042786,0.4012225866317749
1761413843039542500,2.59254248046875,0.6018171906471252,0.27813059091567993,0.44803082942962646
1761413843049555500,2.602555419921875,0.6871084570884705,0.2734370529651642,0.4921620488166809
1761413843059568400,2.612568359375,0.7639190554618835,0.24574683606624603,0.5235801339149475
1761413843069581600,2.62258154296875,0.8296305537223816,0.1962699592113495,0.5419403314590454
1761413843079594500,2.632594482421875,0.882351815700531,0.13853025436401367,0.5479716062545776
1761413843089606400,2.6426064453125,0.921931266784668,0.07794155180454254,0.5444769859313965
1761413843099619300,2.652619384765625,0.9633625745773315,0.03999950364232063,0.5302309393882751
1761413843109632500,2.662632568359375,1.0031017065048218,0.02773166447877884,0.5038877129554749
1761413843119645700,2.672645751953125,1.0439186096191406,0.014551946893334389,0.4631996750831604
1761413843129658400,2.682658447265625,1.0811333656311035,0.0006827381439507008,0.4070730209350586
1761413843139670300,2.692670166015625,1.1075454950332642,-0.005781286396086216,0.3539749085903168
1761413843149683500,2.702683349609375,1.1154667139053345,-0.01913885772228241,0.2921106815338135
1761413843159696600,2.712696533203125,1.1100791692733765,-0.04401038587093353,0.2411007434129715
1761413843169709600,2.72270947265625,1.0840563774108887,-0.0681956484913826,0.19565127789974213
1761413843179722500,2.732722412109375,1.0476938486099243,-0.09564538300037384,0.16454343497753143
1761413843189734400,2.742734375,1.015454888343811,-0.11840582638978958,0.14424242079257965
1761413843199747600,2.75274755859375,0.995727002620697,-0.12643498182296753,0.13152556121349335
1761413843209760500,2.762760498046875,0.9902783036231995,-0.11984547972679138,0.12471794337034225
1761413843219773400,2.7727734375,0.9920480251312256,-0.0997583195567131,0.10844283550977707
1761413843229786400,2.782786376953125,1.0024352073669434,-0.05420159548521042,0.09779269248247147
1761413843239798500,2.792798583984375,1.0145297050476074,0.016778837889432907,0.0761028453707695
1761413843249811500,2.8028115234375,1.029720425605774,0.1014484167098999,0.05495791137218475
1761413843259824600,2.81282470703125,1.0511356592178345,0.18832524120807648,0.030360154807567596
1761413843269837300,2.82283740234375,1.0680019855499268,0.27629777789115906,0.012170732021331787
1761413843279850500,2.8328505859375,1.0869580507278442,0.3360031843185425,-0.008609114214777946
1761413843289862400,2.8428623046875,1.1008650064468384,0.3844512104988098,-0.02897733822464943
1761413843299875600,2.85287548828125,1.1119853258132935,0.4090026319026947,-0.047487374395132065
1761413843309888300,2.86288818359375,1.1266671419143677,0.4276900887489319,-0.07316723465919495
1761413843319901400,2.8729013671875,1.1421209573745728,0.43650728464126587,-0.09133239090442657
1761413843329914600,2.88291455078125,1.1549031734466553,0.43307334184646606,-0.10657066851854324
1761413843339926500,2.892926513671875,1.1606886386871338,0.42525750398635864,-0.12399599701166153
1761413843349939700,2.902939697265625,1.1574780941009521,0.41217178106307983,-0.13903380930423737
1761413843359952400,2.912952392578125,1.1459051370620728,0.40639883279800415,-0.1490323841571808
1761413843369965600,2.922965576171875,1.1353726387023926,0.3960563540458679,-0.15740735828876495
1761413843379978500,2.932978515625,1.1309949159622192,0.3890887200832367,-0.16051580011844635
1761413843389990700,2.94299072265625,1.1265872716903687,0.38546767830848694,-0.16252917051315308
1761413843400003300,2.95300341796875,1.126212477684021,0.34981727600097656,-0.1627856343984604
1761413843410016500,2.9630166015625,1.1242934465408325,0.2924320101737976,-0.1645585000514984
1761413843420029400,2.973029541015625,1.1162736415863037,0.2287350296974182,-0.1665998101234436
1761413843430042600,2.983042724609375,1.1074377298355103,0.15520185232162476,-0.16140468418598175
1761413843440054500,2.993054443359375,1.0867183208465576,0.08671599626541138,-0.1423734724521637
1761413843450067500,3.0030673828125,1.0677993297576904,0.025627844035625458,-0.11863242089748383
1761413843460080400,3.013080322265625,1.0542601346969604,-0.02815442904829979,-0.08560656011104584
1761413843470093600,3.023093505859375,1.0437449216842651,-0.06786550581455231,-0.04969526827335358
1761413843480106500,3.0331064453125,1.039627194404602,-0.07764596492052078,-0.00848684273660183
1761413843490118400,3.043118408203125,1.058362603187561,-0.061702460050582886,0.038742490112781525
1761413843500131300,3.05313134765625,1.0793942213058472,-0.019155530259013176,0.08710496127605438
1761413843510144500,3.06314453125,1.0996344089508057,0.03999486565589905,0.12934856116771698
1761413843520157700,3.07315771484375,1.1184993982315063,0.10711664706468582,0.16212035715579987
1761413843530170400,3.08317041015625,1.141352653503418,0.21609564125537872,0.18564720451831818
1761413843540182500,3.0931826171875,1.1799105405807495,0.25860610604286194,0.1830785870552063
1761413843550195500,3.103195556640625,1.2170690298080444,0.2719433009624481,0.1645066738128662
1761413843560208600,3.113208740234375,1.2495185136795044,0.26603373885154724,0.13986657559871674
1761413843570221300,3.12322119140625,1.2803367376327515,0.26040711998939514,0.11941073834896088
1761413843580234500,3.133234375,1.3130500316619873,0.26026594638824463,0.11787409335374832
1761413843590246400,3.143246337890625,1.3427374362945557,0.25089648365974426,0.1288451850414276
1761413843600259600,3.153259521484375,1.3592032194137573,0.2454250156879425,0.1438765972852707
1761413843610272500,3.1632724609375,1.3646469116210938,0.24143962562084198,0.1624521017074585
1761413843620285400,3.173285400390625,1.369362473487854,0.2361825555562973,0.17995892465114594
1761413843630298400,3.18329833984375,1.3687732219696045,0.22350750863552094,0.1844375729560852
1761413843640310500,3.193310546875,1.367300271987915,0.20016197860240936,0.18107347190380096
1761413843650323500,3.203323486328125,1.3642051219940186,0.17198750376701355,0.17728416621685028
1761413843660336400,3.21333642578125,1.3576997518539429,0.1423949897289276,0.1654978096485138
1761413843670349300,3.223349365234375,1.352472186088562,0.1368160992860794,0.17115873098373413
1761413843680362500,3.233362548828125,1.3478890657424927,0.15773709118366241,0.1803322434425354
1761413843690374400,3.24337451171875,1.3552072048187256,0.21234937012195587,0.19575896859169006
1761413843700387600,3.2533876953125,1.37864351272583,0.28403741121292114,0.20837382972240448
1761413843710400500,3.263400390625,1.4129921197891235,0.3117479681968689,0.19757616519927979
1761413843720413400,3.273413330078125,1.4285143613815308,0.2868301272392273,0.16286718845367432
1761413843730426600,3.283426513671875,1.4314544200897217,0.2661639153957367,0.1195102110505104
1761413843740438500,3.2934384765625,1.396175503730774,0.20626090466976166,0.053004682064056396
1761413843750451500,3.303451416015625,1.3363834619522095,0.08866186439990997,-0.03445938974618912
1761413843760464400,3.31346435546875,1.239721417427063,-0.08757921308279037,-0.12460260093212128
1761413843770477600,3.3234775390625,1.1307231187820435,-0.24324768781661987,-0.17191947996616364
1761413843780490500,3.333490478515625,1.0419626235961914,-0.29333293437957764,-0.14999234676361084
1761413843790502700,3.343502685546875,0.9825273156166077,-0.24735528230667114,-0.05754343420267105
1761413843800515300,3.353515380859375,0.9604358673095703,-0.16078869998455048,0.05512053146958351
1761413843810528500,3.363528564453125,0.9732264876365662,-0.055765580385923386,0.18091116845607758
1761413843820541400,3.37354150390625,1.009458065032959,0.04162861779332161,0.2825896143913269
1761413843830554400,3.383554443359375,1.057238221168518,0.11931666731834412,0.34919455647468567
1761413843840566300,3.393566162109375,1.1074782609939575,0.18157550692558289,0.37541577219963074
1761413843850579500,3.403579345703125,1.152571201324463,0.22431445121765137,0.3634544610977173
1761413843860592400,3.41359228515625,1.1915241479873657,0.24683015048503876,0.3244559168815613
1761413843870605600,3.42360546875,1.2201581001281738,0.24788302183151245,0.27012598514556885
1761413843880618500,3.433618408203125,1.2353458404541016,0.23443646728992462,0.21075241267681122
1761413843890630400,3.44363037109375,1.22666335105896,0.24630069732666016,0.16156505048274994
1761413843900643000,3.45364306640625,1.207529902458191,0.23566828668117523,0.10887759923934937
1761413843910656300,3.46365625,1.1871098279953003,0.20509356260299683,0.06369813531637192
1761413843920669200,3.473669189453125,1.1565351486206055,0.2003536820411682,0.024477500468492508
1761413843930682000,3.48368212890625,1.121018648147583,0.20652902126312256,-0.0047674705274403095
1761413843940694000,3.493694091796875,1.0916799306869507,0.20881401002407074,-0.022002117708325386
1761413843950707200,3.503707275390625,1.0708551406860352,0.20019219815731049,-0.03868112713098526
1761413843960720100,3.51372021484375,1.0628459453582764,0.2052556574344635,-0.04800352454185486
1761413843970733000,3.523733154296875,1.0604462623596191,0.2115384042263031,-0.0513615682721138
1761413843980746000,3.53374609375,1.0596505403518677,0.2017451524734497,-0.06230156868696213
1761413843990758100,3.543758056640625,1.066619634628296,0.1752832978963852,-0.07392717152833939
1761413844000771000,3.55377099609375,1.077161431312561,0.1490439623594284,-0.08515478670597076
1761413844010784300,3.5637841796875,1.0731639862060547,0.12247602641582489,-0.10016918927431107
1761413844020797000,3.573796875,1.060814380645752,0.11079248040914536,-0.1063128337264061
1761413844030810000,3.58381005859375,1.0470468997955322,0.10884597152471542,-0.10334953665733337
1761413844040822000,3.593822021484375,1.0402257442474365,0.12046533823013306,-0.09143801778554916
1761413844050835200,3.603835205078125,1.0572941303253174,0.16922807693481445,-0.05957542732357979
1761413844060847900,3.613847900390625,1.0816112756729126,0.20647186040878296,-0.026162076741456985
1761413844070861000,3.623861083984375,1.1025347709655762,0.2601645588874817,-0.0018345327116549015
1761413844080874200,3.633874267578125,1.133482575416565,0.34233400225639343,0.006826333235949278
1761413844090886100,3.64388623046875,1.157510757446289,0.41081035137176514,-0.013870221562683582
1761413844100899300,3.6538994140625,1.1729904413223267,0.3941216468811035,-0.06513846665620804
1761413844110912000,3.663912109375,1.182294249534607,0.37167680263519287,-0.1103467270731926
1761413844120925200,3.67392529296875,1.185940146446228,0.3329826891422272,-0.13874854147434235
1761413844130938000,3.683938232421875,1.1895406246185303,0.3033454418182373,-0.13833574950695038
1761413844140950300,3.6939501953125,1.1903830766677856,0.29701030254364014,-0.1132570281624794
1761413844150963000,3.703962890625,1.2002109289169312,0.30681392550468445,-0.05939193442463875
1761413844160976100,3.71397607421875,1.21829354763031,0.32411089539527893,-0.0023113370407372713
1761413844170989000,3.723989013671875,1.2431554794311523,0.3336399793624878,0.05589384585618973
1761413844181002200,3.734002197265625,1.2612369060516357,0.34003183245658875,0.09688921272754669
1761413844191014100,3.74401416015625,1.2678720951080322,0.3398188650608063,0.11530197411775589
1761413844201027000,3.754027099609375,1.2607572078704834,0.3277675211429596,0.11026860028505325
1761413844211040000,3.7640400390625,1.2514830827713013,0.32250159978866577,0.0864136666059494
1761413844221053200,3.77405322265625,1.2373465299606323,0.31109553575515747,0.05670797452330589
1761413844231066000,3.784066162109375,1.221843957901001,0.2914249300956726,0.028248336166143417
1761413844241078000,3.794078125,1.19777512550354,0.2763993740081787,0.012847008183598518
1761413844251091000,3.804091064453125,1.1663941144943237,0.27804437279701233,0.01499195210635662
1761413844261104000,3.814104248046875,1.145064115524292,0.2953101694583893,0.03327721729874611
1761413844271117300,3.824117431640625,1.132777214050293,0.329196959733963,0.05839492008090019
1761413844281130000,3.8341298828125,1.1314725875854492,0.3703356087207794,0.08085814863443375
1761413844291142000,3.844141845703125,1.1364727020263672,0.40163326263427734,0.09488961845636368
1761413844301155000,3.854155029296875,1.1334598064422607,0.41112422943115234,0.09113989025354385
1761413844311168300,3.864168212890625,1.1277921199798584,0.40839478373527527,0.07661952823400497
1761413844321181200,3.87418115234375,1.1147346496582031,0.3789239823818207,0.060565728694200516
1761413844331194000,3.884194091796875,1.0993061065673828,0.30824336409568787,0.038813862949609756
1761413844341206000,3.8942060546875,1.0743826627731323,0.22375379502773285,0.019370121881365776
1761413844351219200,3.90421923828125,1.0495219230651855,0.15754783153533936,0.016326962038874626
1761413844361232100,3.914232177734375,1.0254381895065308,0.10735683143138885,0.02900041453540325
1761413844371245000,3.9242451171875,1.0124884843826294,0.07758233696222305,0.06014404818415642
1761413844381258000,3.934258056640625,1.0084506273269653,0.04568538814783096,0.10853981226682663
1761413844391270100,3.944270263671875,0.9972658157348633,0.0105268694460392,0.1735696792602539
1761413844401283000,3.954282958984375,0.986894965171814,-0.03327281028032303,0.23082418739795685
1761413844411296300,3.964296142578125,0.9722135066986084,-0.09902290254831314,0.27041003108024597
1761413844421309000,3.974308837890625,0.9432880878448486,-0.1770775020122528,0.29919373989105225
1761413844431322000,3.984322021484375,0.9076879024505615,-0.2422991544008255,0.3222583830356598
1761413844441334000,3.994333984375,0.8572809100151062,-0.28019729256629944,0.3374860882759094
1761413844451347200,4.00434716796875,0.8085036277770996,-0.287752240896225,0.3565482795238495
1761413844461360000,4.014360107421875,0.7564465999603271,-0.27580341696739197,0.3715727627277374
1761413844471373000,4.024373046875,0.7155807614326477,-0.23993295431137085,0.38275742530822754
1761413844481386200,4.03438623046875,0.6849792003631592,-0.17848822474479675,0.39396506547927856
1761413844491398100,4.044398193359375,0.6672919988632202,-0.10261773318052292,0.4078814387321472
1761413844501411000,4.0544111328125,0.6670427322387695,-0.012806355953216553,0.42188701033592224
1761413844511424000,4.064424072265625,0.6755468845367432,0.07263031601905823,0.43418195843696594
1761413844521437200,4.074437255859375,0.6890981197357178,0.147549569606781,0.4373713731765747
1761413844531449000,4.084448974609375,0.7010157108306885,0.22162190079689026,0.42332616448402405
1761413844541462300,4.094462158203125,0.7097764015197754,0.28434306383132935,0.40545129776000977
1761413844551475000,4.104474853515625,0.7115716934204102,0.3426215946674347,0.388114333152771
1761413844561488100,4.114488037109375,0.7116345167160034,0.38920825719833374,0.3716389536857605
1761413844571501000,4.1245009765625,0.7091886401176453,0.4326660931110382,0.37423649430274963
1761413844581514200,4.13451416015625,0.719300389289856,0.47425615787506104,0.3787683844566345
1761413844591526100,4.144526123046875,0.7256795763969421,0.45804768800735474,0.3649502694606781
1761413844601539000,4.1545390625,0.7118183374404907,0.3895024061203003,0.32642364501953125
1761413844611552000,4.164552001953125,0.6568444967269897,0.2963280975818634,0.26144325733184814
1761413844621565200,4.174565185546875,0.5736004710197449,0.1984175145626068,0.17378397285938263
1761413844631577000,4.1845771484375,0.4827754497528076,0.12694784998893738,0.08049582690000534
1761413844641590000,4.194590087890625,0.4231507480144501,0.10377700626850128,-0.0016371244564652443
1761413844651603200,4.204603271484375,0.4023388624191284,0.10884363949298859,-0.08703933656215668
1761413844661616000,4.2146162109375,0.40422970056533813,0.12321245670318604,-0.1727214902639389
1761413844671629300,4.22462939453125,0.4149712026119232,0.14812961220741272,-0.2613145112991333
1761413844681641200,4.23464111328125,0.43363943696022034,0.1628614217042923,-0.34376704692840576
1761413844691654100,4.244654052734375,0.44937875866889954,0.1565505564212799,-0.42293092608451843
1761413844701667000,4.2546669921875,0.4748780131340027,0.15323546528816223,-0.48101314902305603
1761413844711680300,4.26468017578125,0.5116461515426636,0.17449535429477692,-0.5072227716445923
1761413844721693000,4.27469287109375,0.5603579878807068,0.23238155245780945,-0.5025795102119446
1761413844731705000,4.284705078125,0.6128366589546204,0.3040950298309326,-0.4641595780849457
1761413844741718000,4.294718017578125,0.6692602038383484,0.3922131657600403,-0.4013763666152954
1761413844751731200,4.304731201171875,0.7180167436599731,0.45599937438964844,-0.3354000449180603
1761413844761744100,4.314744140625,0.7536530494689941,0.4702097475528717,-0.2728210985660553
1761413844771757000,4.324757080078125,0.7779021263122559,0.464120477437973,-0.22360220551490784
1761413844781769000,4.33476904296875,0.7979515194892883,0.45655152201652527,-0.17431455850601196
1761413844791782100,4.3447822265625,0.8095343112945557,0.4374851584434509,-0.13569076359272003
1761413844801795000,4.354795166015625,0.8227534294128418,0.41512978076934814,-0.1036183163523674
1761413844811808000,4.36480810546875,0.8390336036682129,0.3932974636554718,-0.06819640845060349
1761413844821821200,4.3748212890625,0.8604930639266968,0.3796660602092743,-0.039562635123729706
1761413844831833000,4.3848330078125,0.8821800351142883,0.3755239248275757,-0.014002547599375248
1761413844841846000,4.394845947265625,0.91082763671875,0.3787176012992859,0.012785390950739384
1761413844851859200,4.404859130859375,0.9458499550819397,0.38829320669174194,0.031347423791885376
1761413844861872000,4.4148720703125,0.9616827368736267,0.3718798756599426,0.019887840375304222
1761413844871885000,4.424885009765625,0.9710151553153992,0.28159600496292114,-0.030295399948954582
1761413844881897200,4.434897216796875,0.9635540246963501,0.11966701596975327,-0.11219798773527145
1761413844891910100,4.44491015625,0.934228777885437,-0.09071853756904602,-0.19289620220661163
1761413844901923000,4.454923095703125,0.8760637044906616,-0.27862343192100525,-0.24688805639743805
1761413844911936000,4.46493603515625,0.8016960620880127,-0.4498182535171509,-0.26946699619293213
1761413844921949200,4.47494921875,0.7411336302757263,-0.5798622369766235,-0.24814361333847046
1761413844931961000,4.484961181640625,0.6997305154800415,-0.6490171551704407,-0.19793230295181274
1761413844941974300,4.494974365234375,0.6738749146461487,-0.6729113459587097,-0.14151324331760406
1761413844951987000,4.504987060546875,0.6612919569015503,-0.6456280946731567,-0.09319619834423065
1761413844962000100,4.515000244140625,0.6600705981254578,-0.5951806306838989,-0.06492168456315994
1761413844972013000,4.525012939453125,0.6644364595413208,-0.5340085625648499,-0.07180123031139374
1761413844982025200,4.535025146484375,0.6615890264511108,-0.47079795598983765,-0.11131402105093002
1761413844992038000,4.545037841796875,0.6567884087562561,-0.401882529258728,-0.17230787873268127
1761413845002051000,4.555051025390625,0.6648542881011963,-0.31540435552597046,-0.238083153963089
1761413845012064300,4.565064208984375,0.6904131174087524,-0.2208801656961441,-0.2937941253185272
1761413845022077200,4.5750771484375,0.7353166341781616,-0.11447117477655411,-0.3225853145122528
1761413845032089000,4.585089111328125,0.7953028678894043,-0.0039535146206617355,-0.33083704113960266
1761413845042102000,4.59510205078125,0.8577491641044617,0.09608067572116852,-0.3304900527000427
1761413845052115200,4.605115234375,0.9177269339561462,0.18166996538639069,-0.31982553005218506
1761413845062128000,4.615128173828125,0.9685860872268677,0.23358003795146942,-0.30209019780158997
1761413845072140300,4.625140380859375,1.002927541732788,0.2661198675632477,-0.27365776896476746
1761413845082153000,4.635153076171875,1.0202052593231201,0.29041188955307007,-0.24302713572978973
1761413845092166100,4.645166259765625,1.0182204246520996,0.294164776802063,-0.22286832332611084
1761413845102179000,4.655178955078125,1.0130189657211304,0.27121925354003906,-0.21081671118736267
1761413845112192300,4.665192138671875,1.0018640756607056,0.23561887443065643,-0.20457260310649872
1761413845122204200,4.6752041015625,0.9753603339195251,0.18922793865203857,-0.20734867453575134
1761413845132217000,4.685217041015625,0.9444446563720703,0.12938551604747772,-0.2091754972934723
1761413845142230000,4.69522998046875,0.9130989909172058,0.07378165423870087,-0.2127329409122467
1761413845152243200,4.7052431640625,0.8838165998458862,0.021973107010126114,-0.20981524884700775
1761413845162256100,4.715256103515625,0.85783451795578,-0.021391144022345543,-0.19982413947582245
1761413845172268000,4.72526806640625,0.8310561776161194,-0.051132261753082275,-0.18497967720031738
1761413845182281000,4.735281005859375,0.8075711131095886,-0.06882230937480927,-0.1672038733959198
1761413845192294100,4.745294189453125,0.7895469069480896,-0.05754583328962326,-0.14584463834762573
1761413845202307000,4.75530712890625,0.7780044674873352,-0.029428711161017418,-0.12653352320194244
1761413845212320000,4.765320068359375,0.7785085439682007,0.01668684184551239,-0.10684263706207275
1761413845222332000,4.775331787109375,0.7866231799125671,0.07040306180715561,-0.08888547867536545
1761413845232345000,4.785344970703125,0.7993665933609009,0.1263931691646576,-0.07463309913873672
1761413845242358300,4.795358154296875,0.8160369396209717,0.17298810184001923,-0.060474943369627
1761413845252371200,4.80537109375,0.8322603702545166,0.19940239191055298,-0.04870030656456947
1761413845262384000,4.815384033203125,0.8449937701225281,0.20563286542892456,-0.033184729516506195
1761413845272396000,4.82539599609375,0.8533527851104736,0.18899500370025635,-0.011550242081284523
1761413845282409200,4.8354091796875,0.8558372259140015,0.16598476469516754,0.015313595533370972
1761413845292422100,4.845422119140625,0.8529535531997681,0.14683663845062256,0.04889100044965744
1761413845302435000,4.85543505859375,0.8461456298828125,0.14819186925888062,0.09157111495733261
1761413845312448000,4.865447998046875,0.8393003940582275,0.16658413410186768,0.13138650357723236
1761413845322460200,4.875460205078125,0.8409433364868164,0.201864093542099,0.16780468821525574
1761413845332473000,4.88547314453125,0.8392572999000549,0.26633551716804504,0.1853969842195511
1761413845342486000,4.895486083984375,0.8473623394966125,0.32391357421875,0.1788807511329651
1761413845352499000,4.9054990234375,0.8718296885490417,0.35379737615585327,0.149849995970726
1761413845362512100,4.91551220703125,0.8983699083328247,0.3547225594520569,0.12502267956733704
1761413845372524000,4.92552392578125,0.9000006318092346,0.31275802850723267,0.07790473848581314
1761413845382537200,4.935537109375,0.8849670886993408,0.252880334854126,0.0408489853143692
1761413845392550000,4.9455498046875,0.8617449402809143,0.20014531910419464,0.016893714666366577
1761413845402563000,4.95556298828125,0.8316754698753357,0.19081519544124603,0.022595809772610664
1761413845412576300,4.965576171875,0.8061282634735107,0.2379889190196991,0.04023678973317146
1761413845422588200,4.975588134765625,0.7908334732055664,0.3033229112625122,0.05642348527908325
1761413845432601000,4.98560107421875,0.7899297475814819,0.3801114857196808,0.06666354089975357
1761413845442614000,4.995614013671875,0.8158721327781677,0.4433101713657379,0.06587604433298111
1761413845452627200,5.005627197265625,0.845146894454956,0.4727504551410675,0.04714056849479675
1761413845462640000,5.01564013671875,0.8826265931129456,0.4958089292049408,0.022583559155464172
1761413845472652300,5.02565234375,0.9254856109619141,0.5288017392158508,-0.016109174117445946
1761413845482665000,5.0356650390625,0.9651278257369995,0.5153807401657104,-0.07965406030416489
1761413845492678100,5.04567822265625,0.9865508675575256,0.420307993888855,-0.16911686956882477
1761413845502691000,5.055691162109375,0.9649736285209656,0.29581719636917114,-0.27243366837501526
1761413845512703200,5.065703125,0.9141297936439514,0.17006134986877441,-0.3782649636268616
1761413845522716200,5.075716064453125,0.8583746552467346,0.044259753078222275,-0.47050219774246216
1761413845532729000,5.08572900390625,0.8165745735168457,-0.080547995865345,-0.5264554619789124
1761413845542742000,5.095741943359375,0.7841601967811584,-0.2001977115869522,-0.5331215858459473
1761413845552755200,5.105755126953125,0.7488094568252563,-0.2817532420158386,-0.4980166554450989
1761413845562767000,5.11576708984375,0.7350358963012695,-0.3030870258808136,-0.4136655330657959
1761413845572780000,5.125780029296875,0.7483962774276733,-0.27981412410736084,-0.2914350628852844
1761413845582793000,5.13579296875,0.78323894739151,-0.25191032886505127,-0.15165424346923828
1761413845592806100,5.14580615234375,0.8192949295043945,-0.23057974874973297,-0.019482901319861412
1761413845602819300,5.1558193359375,0.8675908446311951,-0.21729829907417297,0.09369665384292603
1761413845612831200,5.165831298828125,0.9141789674758911,-0.19662974774837494,0.1799580305814743
1761413845622844200,5.17584423828125,0.9520866870880127,-0.18125611543655396,0.23687563836574554
1761413845632857000,5.185857177734375,0.987240731716156,-0.15512482821941376,0.26602864265441895
1761413845642870300,5.195870361328125,1.0154420137405396,-0.125404492020607,0.28217166662216187
1761413845652883000,5.205883056640625,1.037574291229248,-0.07693316042423248,0.27233612537384033
1761413845662895000,5.21589501953125,1.0511358976364136,-0.02374131605029106,0.26225927472114563
1761413845672908000,5.225907958984375,1.0539201498031616,0.03405308723449707,0.23715758323669434
1761413845682921200,5.235921142578125,1.0465933084487915,0.08719486743211746,0.20378178358078003
1761413845692934100,5.24593408203125,1.033966302871704,0.14029914140701294,0.16190938651561737
1761413845702947000,5.255947021484375,1.027600884437561,0.18291449546813965,0.12459664046764374
1761413845712959000,5.265958984375,1.026329517364502,0.21436238288879395,0.09278471767902374
1761413845722972200,5.27597216796875,1.0334482192993164,0.24069811403751373,0.072209931910038
1761413845732985000,5.285985107421875,1.0391842126846313,0.25475555658340454,0.0588180311024189
1761413845742998000,5.295998046875,1.0463886260986328,0.2502925992012024,0.04918324574828148
1761413845753011000,5.306010986328125,1.0585606098175049,0.24169759452342987,0.042799316346645355
1761413845763023000,5.316023193359375,1.064949870109558,0.22278808057308197,0.04030926153063774
1761413845773036000,5.3260361328125,1.0595227479934692,0.1805192530155182,0.03695254400372505
1761413845783049200,5.33604931640625,1.0493156909942627,0.1282331496477127,0.033725857734680176
1761413845793062100,5.346062255859375,1.0355430841445923,0.045537278056144714,0.031941741704940796
1761413845803075000,5.356074951171875,1.0160466432571411,-0.031240588054060936,0.036145009100437164
1761413845813087000,5.3660869140625,1.0037553310394287,-0.06562215834856033,0.04617194086313248
1761413845823100200,5.37610009765625,0.9992507100105286,-0.05662652850151062,0.061072591692209244
1761413845833113000,5.386113037109375,1.0060683488845825,-0.026143642142415047,0.0775364562869072
1761413845843126000,5.3961259765625,1.014837384223938,0.014458911493420601,0.07847441732883453
1761413845853138200,5.40613818359375,1.0276743173599243,0.05563659593462944,0.0721210166811943
1761413845863151000,5.416151123046875,1.0300298929214478,0.07381906360387802,0.05387650057673454
1761413845873164300,5.426164306640625,1.0263545513153076,0.07145709544420242,0.023759378120303154
1761413845883177000,5.436177001953125,1.0133931636810303,0.04540365934371948,-0.018307913094758987
1761413845893190100,5.446190185546875,0.9912070035934448,0.015162883326411247,-0.05357985198497772
1761413845903203300,5.456203369140625,0.9673083424568176,-0.009474819526076317,-0.07295913994312286
1761413845913215200,5.46621533203125,0.947842538356781,-0.023706987500190735,-0.07276555895805359
1761413845923228200,5.476228271484375,0.9235819578170776,-0.029317736625671387,-0.05388215556740761
1761413845933241000,5.486240966796875,0.9113596081733704,-0.02517758496105671,-0.019969727843999863
1761413845943254300,5.496254150390625,0.902638852596283,-0.0053823101334273815,0.016263645142316818
1761413845953266200,5.50626611328125,0.9104229211807251,0.019259080290794373,0.05246322602033615
1761413845963279400,5.516279296875,0.9212971329689026,0.05900729447603226,0.07811079919338226
1761413845973292000,5.5262919921875,0.9307715892791748,0.10310879349708557,0.09096980839967728
1761413845983305200,5.53630517578125,0.9436005353927612,0.16022267937660217,0.08987711369991302
1761413845993318100,5.546318115234375,0.9526292681694031,0.2075386792421341,0.08356845378875732
1761413846003330300,5.556330322265625,0.9574999213218689,0.24135950207710266,0.06936261802911758
1761413846013343000,5.566343017578125,0.9582808613777161,0.2572457492351532,0.050438493490219116
1761413846023356200,5.576356201171875,0.9523816704750061,0.26552820205688477,0.029137996956706047
1761413846033369000,5.586369140625,0.9408214092254639,0.2629685699939728,0.01525047980248928
1761413846043382300,5.59638232421875,0.9283570051193237,0.25593090057373047,-0.0016059987246990204
1761413846053394200,5.606394287109375,0.915202796459198,0.2512364983558655,-0.009391716681420803
1761413846063407000,5.616406982421875,0.8933049440383911,0.2517848610877991,-0.017868291586637497
1761413846073420000,5.626419921875,0.8776036500930786,0.25280895829200745,-0.014643872156739235
1761413846083433200,5.63643310546875,0.8686125874519348,0.254669725894928,-0.012870472855865955
1761413846093446100,5.646446044921875,0.868454098701477,0.26621824502944946,-0.01283478643745184
1761413846103458000,5.6564580078125,0.8704416155815125,0.2771492004394531,-0.010103714652359486
1761413846113471000,5.666470947265625,0.8758019208908081,0.28364884853363037,-0.015122639015316963
1761413846123484200,5.676484130859375,0.8749310970306396,0.27961787581443787,-0.021626612171530724
1761413846133497300,5.686497314453125,0.867975652217865,0.27146393060684204,-0.030152324587106705
1761413846143510000,5.696510009765625,0.8592188954353333,0.26239320635795593,-0.03903929144144058
1761413846153522200,5.706522216796875,0.8536327481269836,0.23971426486968994,-0.036885324865579605
1761413846163535000,5.71653515625,0.8484547734260559,0.22711218893527985,-0.020421132445335388
1761413846173548300,5.72654833984375,0.8430505394935608,0.21476024389266968,0.0018540127202868462
1761413846183561000,5.73656103515625,0.832210898399353,0.2117050737142563,0.03664608299732208
1761413846193574100,5.74657421875,0.8279209733009338,0.2083645761013031,0.06393719464540482
1761413846203586000,5.7565859375,0.8224894404411316,0.21294040977954865,0.08586885780096054
1761413846213599200,5.76659912109375,0.819773256778717,0.21040700376033783,0.09461700171232224
1761413846223612200,5.776612060546875,0.8063765168190002,0.194015771150589,0.09307769685983658
1761413846233625000,5.786625,0.7942196130752563,0.16836148500442505,0.08640388399362564
1761413846243638000,5.796637939453125,0.7716889977455139,0.1277831643819809,0.08224642276763916
1761413846253650200,5.806650146484375,0.746426522731781,0.09222009032964706,0.0815817341208458
1761413846263663000,5.8166630859375,0.7153117656707764,0.06656825542449951,0.07929886877536774
1761413846273676000,5.826676025390625,0.6819850206375122,0.027771243825554848,0.08025527745485306
1761413846283689200,5.836689208984375,0.6460227370262146,0.013082578778266907,0.08051866292953491
1761413846293701000,5.846701171875,0.6089431047439575,0.007025010883808136,0.0770261213183403
1761413846303714000,5.856714111328125,0.5690338015556335,0.00018121907487511635,0.0656174048781395
1761413846313727200,5.866727294921875,0.5302810072898865,-0.002141775796189904,0.046309694647789
1761413846323740200,5.876740234375,0.4950673282146454,0.009482122957706451,0.027124814689159393
1761413846333753000,5.886753173828125,0.46311280131340027,0.020697571337223053,0.010164140723645687
1761413846343765200,5.89676513671875,0.4378460645675659,0.04276984930038452,-0.00913312379270792
1761413846353778200,5.906778076171875,0.4163689911365509,0.06476757675409317,-0.023006897419691086
1761413846363791000,5.916791015625,0.4007684588432312,0.08909182995557785,-0.021197810769081116
1761413846373804000,5.926803955078125,0.39969906210899353,0.1260007619857788,-0.01513209380209446
1761413846383817200,5.936817138671875,0.40351778268814087,0.17100897431373596,0.007483203895390034
1761413846393829000,5.9468291015625,0.4210704565048218,0.21404223144054413,0.033668968826532364
1761413846403842300,5.95684228515625,0.4380425214767456,0.19988059997558594,0.04580232873558998
1761413846413855000,5.96685498046875,0.42731133103370667,0.14404329657554626,0.036655835807323456
1761413846423868200,5.9768681640625,0.38832879066467285,0.08753901720046997,0.01348873134702444
1761413846433881000,5.986881103515625,0.33208614587783813,0.027249667793512344,-0.0288604237139225
1761413846443893200,5.996893310546875,0.283718079328537,-0.04983925446867943,-0.0768873319029808
1761413846453906200,6.00690625,0.23104536533355713,-0.11720561236143112,-0.11834120750427246
1761413846463919000,6.016919189453125,0.1820426732301712,-0.13589169085025787,-0.14069977402687073
1761413846473932000,6.02693212890625,0.1494268774986267,-0.12478552758693695,-0.13854417204856873
1761413846483945200,6.0369453125,0.14141741394996643,-0.10678442567586899,-0.12274044752120972
1761413846493957000,6.04695703125,0.1498536616563797,-0.0882873684167862,-0.09465960413217545
1761413846503970000,6.056969970703125,0.16877302527427673,-0.07010357081890106,-0.06051655486226082
1761413846513983200,6.066983154296875,0.19511127471923828,-0.04861992225050926,-0.016415605321526527
1761413846523996200,6.07699609375,0.2246430665254593,-0.008681029081344604,0.026518812403082848
1761413846534008000,6.087008056640625,0.24810534715652466,0.02536487951874733,0.05639807879924774
1761413846544021200,6.097021240234375,0.2573699355125427,0.04456760361790657,0.0691109448671341
1761413846554034200,6.1070341796875,0.25284841656684875,0.04213437810540199,0.08371801674365997
1761413846564047000,6.117047119140625,0.24253718554973602,0.03466501086950302,0.1015436202287674
1761413846574060300,6.127060302734375,0.21923959255218506,0.05263788625597954,0.12831132113933563
1761413846584072200,6.137072265625,0.19954125583171844,0.10288961231708527,0.15434585511684418
1761413846594085000,6.147085205078125,0.19235718250274658,0.14748495817184448,0.1684074103832245
1761413846604098000,6.15709814453125,0.1968856155872345,0.17538289725780487,0.1707019954919815
1761413846614111200,6.167111328125,0.20283912122249603,0.18648692965507507,0.17368023097515106
1761413846624124200,6.177124267578125,0.20552784204483032,0.19379544258117676,0.17432259023189545
1761413846634136300,6.18713623046875,0.20182698965072632,0.19166909158229828,0.173600435256958
1761413846644149000,6.19714892578125,0.20524302124977112,0.1728152483701706,0.1840277761220932
1761413846654162200,6.207162109375,0.22041848301887512,0.14711081981658936,0.20911432802677155
1761413846664175000,6.217175048828125,0.24067528545856476,0.12651845812797546,0.2478388100862503
1761413846674188000,6.22718798828125,0.26113393902778625,0.10668803751468658,0.2880181670188904
1761413846684200000,6.237199951171875,0.2614727020263672,0.09455227851867676,0.3154892325401306
1761413846694213000,6.247213134765625,0.2515115439891815,0.0933842808008194,0.31873077154159546
1761413846704226300,6.257226318359375,0.23162893950939178,0.11324666440486908,0.30726584792137146
1761413846714239200,6.2672392578125,0.21434085071086884,0.1415630429983139,0.27588045597076416
1761413846724252200,6.277252197265625,0.1949855238199234,0.1631104201078415,0.22770890593528748
1761413846734264000,6.28726416015625,0.17532958090305328,0.16930174827575684,0.1683449149131775
1761413846744277200,6.29727734375,0.1588912159204483,0.16047602891921997,0.10455555468797684
1761413846754290200,6.307290283203125,0.15331390500068665,0.13707467913627625,0.04488356411457062
1761413846764303000,6.31730322265625,0.1601393073797226,0.1148306280374527,-0.001173675525933504
1761413846774316000,6.32731591796875,0.17700859904289246,0.10145477950572968,-0.022357389330863953
1761413846784328200,6.337328125,0.203570157289505,0.09243091940879822,-0.030066441744565964
1761413846794341000,6.347341064453125,0.22756119072437286,0.08546336740255356,-0.027170848101377487
1761413846804354300,6.357354248046875,0.24846114218235016,0.06790647655725479,-0.021965699270367622
1761413846814367000,6.367366943359375,0.26187434792518616,0.06196719780564308,-0.008720035664737225
1761413846824380200,6.377380126953125,0.2722923755645752,0.04937097802758217,-0.004534612409770489
1761413846834392000,6.38739208984375,0.2813173830509186,0.031626395881175995,-0.0028342525474727154
1761413846844405200,6.3974052734375,0.28461596369743347,0.014282292686402798,-0.013174241408705711
1761413846854418000,6.40741796875,0.2852904498577118,-0.004854599479585886,-0.032294437289237976
1761413846864431000,6.41743115234375,0.2883131206035614,-0.014245704747736454,-0.047627583146095276
1761413846874443000,6.427443115234375,0.2953818738460541,-0.026659805327653885,-0.06299000233411789
1761413846884456200,6.437456298828125,0.3027372360229492,-0.034180305898189545,-0.08402151614427567
1761413846894469400,6.447469482421875,0.30933475494384766,-0.03768405690789223,-0.09992474317550659
1761413846904482000,6.45748193359375,0.3171719014644623,-0.019249122589826584,-0.108487069606781
1761413846914495000,6.467494873046875,0.32140833139419556,-0.005385969765484333,-0.10586019605398178
1761413846924507100,6.477507080078125,0.3228134214878082,0.003156918566673994,-0.11629340052604675
1761413846934520000,6.48752001953125,0.32378172874450684,0.006187299732118845,-0.12326232343912125
1761413846944533000,6.497532958984375,0.325454980134964,-0.0004626135341823101,-0.13552911579608917
1761413846954546200,6.507546142578125,0.32016313076019287,-0.006535488646477461,-0.15133970975875854
1761413846964559000,6.51755908203125,0.31084075570106506,-0.016336454078555107,-0.16972802579402924
1761413846974571000,6.527571044921875,0.2996978163719177,-0.03605940192937851,-0.18021146953105927
1761413846984584200,6.537584228515625,0.2940036952495575,-0.06378184258937836,-0.18755434453487396
1761413846994597000,6.54759716796875,0.29400435090065,-0.0881449282169342,-0.17973238229751587
1761413847004610000,6.557610107421875,0.2945777475833893,-0.09607822448015213,-0.15480546653270721
1761413847014623200,6.567623291015625,0.30140063166618347,-0.08987735956907272,-0.11818484216928482
1761413847024635100,6.57763525390625,0.3141273558139801,-0.0712493434548378,-0.08669029921293259
1761413847034648000,6.58764794921875,0.3379025161266327,-0.05285459756851196,-0.05713990330696106
1761413847044661000,6.597660888671875,0.36556315422058105,-0.024327082559466362,-0.03331393003463745
1761413847054674200,6.607674072265625,0.39292269945144653,0.010094581171870232,-0.01622925139963627
1761413847064687000,6.61768701171875,0.41617903113365173,0.0360068716108799,-0.008105544373393059
1761413847074699300,6.62769921875,0.44721582531929016,0.049369312822818756,0.00008390797302126884
1761413847084712000,6.6377119140625,0.47902408242225647,0.05108119174838066,0.014649269171059132
1761413847094725000,6.64772509765625,0.5036933422088623,0.03514742851257324,0.04090144485235214
1761413847104738000,6.657738037109375,0.5276908278465271,0.018450209870934486,0.0743238553404808
1761413847114750200,6.667750244140625,0.5541383624076843,-0.007106096483767033,0.10699161887168884
1761413847124763100,6.67776318359375,0.5777326226234436,-0.046149902045726776,0.13382349908351898
1761413847134776000,6.687776123046875,0.5960958003997803,-0.07447025924921036,0.14391425251960754
1761413847144789200,6.697789306640625,0.6067790389060974,-0.09718675911426544,0.13477028906345367
1761413847154802200,6.70780224609375,0.6196479797363281,-0.12705011665821075,0.10675782710313797
1761413847164814000,6.71781396484375,0.6260102391242981,-0.1601947546005249,0.0734906792640686
1761413847174827000,6.727826904296875,0.6139443516731262,-0.17945857346057892,0.03164346516132355
1761413847184840200,6.737840087890625,0.6083176136016846,-0.19391368329524994,-0.0013581598177552223
1761413847194853000,6.74785302734375,0.6030506491661072,-0.18246342241764069,-0.015017779543995857
1761413847204866000,6.757865966796875,0.6042112708091736,-0.13584372401237488,-0.00627755094319582
1761413847214878200,6.767878173828125,0.6270338296890259,-0.05198883265256882,0.0261723343282938
1761413847224891100,6.77789111328125,0.6600126028060913,0.001238968688994646,0.04529250040650368
1761413847234904000,6.787904052734375,0.6662481427192688,-0.04354697838425636,0.02677643857896328
1761413847244917200,6.797917236328125,0.6467388868331909,-0.11223629117012024,-0.01061727199703455
1761413847254930000,6.807929931640625,0.6187129616737366,-0.15667016804218292,-0.020723335444927216
1761413847264942000,6.817942138671875,0.5931708812713623,-0.1914537250995636,-0.0032812284771353006
1761413847274955000,6.827955078125,0.5701698064804077,-0.17158356308937073,0.04271366074681282
1761413847284968200,6.83796826171875,0.5573325753211975,-0.09025116264820099,0.12418749183416367
1761413847294981000,6.847981201171875,0.559358537197113,0.019517522305250168,0.21155020594596863
1761413847304994000,6.857994140625,0.5813535451889038,0.11484617739915848,0.28331974148750305
1761413847315006000,6.868005859375,0.609804093837738,0.16971443593502045,0.3150622844696045
1761413847325019100,6.87801904296875,0.6356015801429749,0.17738567292690277,0.3143453598022461
1761413847335032000,6.888031982421875,0.6539616584777832,0.1528114378452301,0.2843887209892273
1761413847345045000,6.898044921875,0.6562381386756897,0.117975153028965,0.24583575129508972
1761413847355058200,6.90805810546875,0.6419282555580139,0.07456477731466293,0.21939405798912048
1761413847365070000,6.918070068359375,0.6185947060585022,0.0328865721821785,0.2072276771068573
1761413847375083300,6.928083251953125,0.5983263254165649,-0.015019362792372704,0.22225208580493927
1761413847385096200,6.93809619140625,0.5722185373306274,-0.03804159164428711,0.2583658993244171
1761413847395109000,6.948109130859375,0.5499680638313293,-0.04925750568509102,0.30442124605178833
1761413847405121000,6.95812109375,0.5328646898269653,-0.04439004510641098,0.3357413709163666
1761413847415134200,6.96813427734375,0.5226227045059204,-0.029294341802597046,0.3501095473766327
1761413847425147100,6.978147216796875,0.5325022339820862,-0.008218617178499699,0.32837337255477905
1761413847435160000,6.98816015625,0.5504630208015442,0.01865755207836628,0.28487908840179443
1761413847445173000,6.998173095703125,0.5757644176483154,0.045523785054683685,0.23279698193073273
1761413847455185200,7.00818505859375,0.6086394190788269,0.07518108189105988,0.18501581251621246
1761413847465198000,7.018197998046875,0.644929826259613,0.10286224633455276,0.15609069168567657
1761413847475211300,7.028211181640625,0.6709586381912231,0.14789000153541565,0.1338803470134735
1761413847485224000,7.038223876953125,0.7041341662406921,0.20251595973968506,0.12869571149349213
1761413847495237000,7.048237060546875,0.7323204278945923,0.25245022773742676,0.1287849247455597
1761413847505249000,7.0582490234375,0.756010890007019,0.3182513415813446,0.12959106266498566
1761413847515262200,7.06826220703125,0.7817732691764832,0.3815268576145172,0.12383797019720078
1761413847525275000,7.07827490234375,0.8108738660812378,0.42290064692497253,0.11220714449882507
1761413847535288000,7.0882880859375,0.8341325521469116,0.4162445664405823,0.07815737277269363
1761413847545301200,7.09830126953125,0.8474528789520264,0.35965877771377563,0.021487703546881676
1761413847555313200,7.108313232421875,0.8554180860519409,0.2906254827976227,-0.035573020577430725
1761413847565326300,7.118326416015625,0.849812388420105,0.25201526284217834,-0.09007381647825241
1761413847575339000,7.128339111328125,0.8520076870918274,0.20485524833202362,-0.1472111940383911
1761413847585352200,7.138352294921875,0.8741611838340759,0.15615135431289673,-0.1926945298910141
1761413847595364000,7.148364013671875,0.9022736549377441,0.110758475959301,-0.21907970309257507
1761413847605377300,7.158377197265625,0.9330254197120667,0.06610871851444244,-0.22477726638317108
1761413847615390000,7.168389892578125,0.9604023098945618,0.022902758792042732,-0.20421083271503448
1761413847625403100,7.178403076171875,0.9829356074333191,-0.00903306994587183,-0.1704707145690918
1761413847635416000,7.188416015625,1.002732753753662,-0.03270644322037697,-0.14091041684150696
1761413847645428200,7.19842822265625,1.0236760377883911,-0.04987705498933792,-0.11576978862285614
1761413847655441200,7.208441162109375,1.0479222536087036,-0.058422889560461044,-0.10756375640630722
1761413847665454000,7.2184541015625,1.0789824724197388,-0.05385024473071098,-0.09758701920509338
1761413847675467000,7.228467041015625,1.120790958404541,-0.05253058671951294,-0.0907912403345108
1761413847685480200,7.238480224609375,1.152092695236206,-0.0463656410574913,-0.09510502964258194
1761413847695492000,7.2484921875,1.1774166822433472,-0.03443281352519989,-0.10146865248680115
1761413847705505000,7.258505126953125,1.1968457698822021,-0.00897299125790596,-0.11722417920827866
1761413847715518000,7.26851806640625,1.2090933322906494,0.029867179691791534,-0.1350298970937729
1761413847725531100,7.27853125,1.214581847190857,0.06553356349468231,-0.1533695012331009
1761413847735544300,7.28854443359375,1.2127538919448853,0.10308803617954254,-0.17380809783935547
1761413847745556200,7.29855615234375,1.2104710340499878,0.15408438444137573,-0.188019797205925
1761413847755569200,7.308569091796875,1.217576026916504,0.19762569665908813,-0.195988729596138
1761413847765582000,7.31858203125,1.2225921154022217,0.23095515370368958,-0.20760437846183777
1761413847775595300,7.32859521484375,1.230859637260437,0.2626018822193146,-0.223698228597641
1761413847785608000,7.33860791015625,1.239377498626709,0.2925001382827759,-0.24746933579444885
1761413847795620000,7.3486201171875,1.2475289106369019,0.31478413939476013,-0.27037256956100464
1761413847805633000,7.358633056640625,1.2546075582504272,0.322083055973053,-0.2941601872444153
1761413847815646200,7.368646240234375,1.256603717803955,0.3238036036491394,-0.31432604789733887
1761413847825659100,7.3786591796875,1.2595446109771729,0.30375319719314575,-0.3309449553489685
1761413847835671300,7.38867138671875,1.2664662599563599,0.2692233622074127,-0.32559454441070557
1761413847845684000,7.39868408203125,1.2649564743041992,0.22871427237987518,-0.3106803297996521
1761413847855697200,7.408697265625,1.2586933374404907,0.19505645334720612,-0.279720276594162
1761413847865710000,7.4187099609375,1.2421454191207886,0.17433057725429535,-0.23603899776935577
1761413847875723000,7.428722900390625,1.226266622543335,0.1715576946735382,-0.18737855553627014
1761413847885735000,7.43873486328125,1.2142640352249146,0.16883167624473572,-0.1478673666715622
1761413847895748000,7.448748046875,1.1990569829940796,0.16267840564250946,-0.12422322481870651
1761413847905761300,7.45876123046875,1.1855614185333252,0.1471409946680069,-0.12057922780513763
1761413847915774500,7.4687744140625,1.1681180000305176,0.10367286950349808,-0.12967047095298767
1761413847925787400,7.478787353515625,1.1512367725372314,0.04768470674753189,-0.13420769572257996
1761413847935799300,7.48879931640625,1.1270723342895508,-0.012810222804546356,-0.12442199885845184
1761413847945812500,7.4988125,1.098435401916504,-0.0718490406870842,-0.09150319546461105
1761413847955825400,7.508825439453125,1.0627154111862183,-0.11178600788116455,-0.037637677043676376
1761413847965838300,7.51883837890625,1.0244256258010864,-0.13912653923034668,0.021030696108937263
1761413847975851300,7.528851318359375,0.9906030297279358,-0.16846542060375214,0.07461902499198914
1761413847985863400,7.538863525390625,0.9736469388008118,-0.18102169036865234,0.13673646748065948
1761413847995876400,7.54887646484375,0.9576799273490906,-0.16723155975341797,0.19562451541423798
1761413848005889500,7.5588896484375,0.9364574551582336,-0.12527266144752502,0.2635444402694702
1761413848015902200,7.568902099609375,0.9075266718864441,-0.06530299037694931,0.31290605664253235
1761413848025915400,7.578915283203125,0.8702136278152466,-0.004114734940230846,0.352048397064209
1761413848035927300,7.58892724609375,0.8299020528793335,0.04466475546360016,0.3764488101005554
1761413848045940500,7.5989404296875,0.7959326505661011,0.086508609354496,0.3874537944793701
1761413848055953200,7.608953125,0.7553735375404358,0.10932248085737228,0.3861135244369507
1761413848065966300,7.61896630859375,0.7071775197982788,0.11678466200828552,0.3837299942970276
1761413848075978200,7.628978271484375,0.6568257212638855,0.12977422773838043,0.38528957962989807
1761413848085991400,7.638991455078125,0.6192905902862549,0.157231405377388,0.3989292085170746
1761413848096004400,7.64900439453125,0.6094785332679749,0.2053699493408203,0.4183545410633087
1761413848106017300,7.659017333984375,0.6176794767379761,0.20807358622550964,0.4178338944911957
1761413848116030500,7.669030517578125,0.605760395526886,0.1567898839712143,0.37335965037345886
1761413848126042400,7.67904248046875,0.5800611972808838,0.08791227638721466,0.2981890141963959
1761413848136055600,7.6890556640625,0.5377591848373413,0.005316840950399637,0.20829923450946808
1761413848146068200,7.699068115234375,0.4547833800315857,-0.142776221036911,0.07584851235151291
1761413848156081400,7.709081298828125,0.34695154428482056,-0.28632211685180664,-0.05875517427921295
1761413848166094300,7.71909423828125,0.2329256385564804,-0.366679310798645,-0.1648578941822052
1761413848176106500,7.7291064453125,0.1312440186738968,-0.35828423500061035,-0.22543442249298096
1761413848186119400,7.739119384765625,0.044932037591934204,-0.2558707594871521,-0.24358919262886047
1761413848196132400,7.74913232421875,0.00559777207672596,-0.09570606797933578,-0.2318820208311081
1761413848206145300,7.759145263671875,0.018208904191851616,0.09501834213733673,-0.2008516639471054
1761413848216158500,7.769158447265625,0.08798414468765259,0.28939616680145264,-0.15900175273418427
1761413848226170400,7.77917041015625,0.18177799880504608,0.47395241260528564,-0.12099631130695343
1761413848236183300,7.789183349609375,0.29740411043167114,0.5957863926887512,-0.08254308998584747
1761413848246196200,7.7991962890625,0.4384656250476837,0.6812037825584412,-0.03524375334382057
1761413848256209400,7.80920947265625,0.5658884048461914,0.709954559803009,0.021598652005195618
1761413848266221300,7.81922119140625,0.6565921902656555,0.6912248134613037,0.09488405287265778
1761413848276234500,7.829234375,0.7146063446998596,0.6480825543403625,0.1765529215335846
1761413848286247200,7.8392470703125,0.7450063228607178,0.5970132946968079,0.2692168056964874
1761413848296260400,7.84926025390625,0.7609522342681885,0.5290073156356812,0.3556784987449646
1761413848306273500,7.8592734375,0.7614505290985107,0.44832417368888855,0.4214215576648712
1761413848316285400,7.869285400390625,0.7519701719284058,0.3586103916168213,0.4565432071685791
1761413848326298000,7.879298095703125,0.7326148748397827,0.26329052448272705,0.4620514214038849
1761413848336311300,7.889311279296875,0.7167558670043945,0.17176786065101624,0.44291040301322937
1761413848346324500,7.899324462890625,0.7095024585723877,0.10013707727193832,0.40487006306648254
1761413848356337400,7.90933740234375,0.71387779712677,0.051099665462970734,0.3651139736175537
1761413848366349600,7.919349609375,0.716934859752655,0.02694959007203579,0.3188559412956238
1761413848376362200,7.9293623046875,0.7190439105033875,0.030359402298927307,0.2780225872993469
1761413848386375400,7.93937548828125,0.7168542146682739,0.05737290903925896,0.24289123713970184
1761413848396388400,7.949388427734375,0.7137764096260071,0.07395105808973312,0.20422989130020142
1761413848406401300,7.9594013671875,0.6988304853439331,0.08172109723091125,0.16197563707828522
1761413848416413200,7.9694130859375,0.6736974716186523,0.06690867245197296,0.11995777487754822
1761413848426426400,7.97942626953125,0.6425414085388184,0.04653841629624367,0.07733547687530518
1761413848436439300,7.989439208984375,0.6091163158416748,0.020387304946780205,0.04996907711029053
1761413848446452500,7.999452392578125,0.5786010026931763,0.006336200516670942,0.033222854137420654
1761413848456464400,8.00946435546875,0.5576868653297424,0.014814784750342369,0.03283759206533432
1761413848466477300,8.019477294921876,0.551213800907135,0.04768085479736328,0.04576057940721512
1761413848476490200,8.029490234375,0.5609292984008789,0.1012607291340828,0.0696784257888794
1761413848486503400,8.03950341796875,0.5924869179725647,0.1619107574224472,0.09792497754096985
1761413848496516400,8.049516357421876,0.634331226348877,0.20971496403217316,0.12424160540103912
1761413848506528300,8.0595283203125,0.6793767213821411,0.23816923797130585,0.14908890426158905
1761413848516541200,8.069541259765625,0.7181905508041382,0.23904813826084137,0.16898854076862335
1761413848526554400,8.079554443359376,0.751822292804718,0.22075647115707397,0.19001233577728271
1761413848536567600,8.089567626953125,0.7807630896568298,0.20057423412799835,0.2033614218235016
1761413848546580200,8.099580322265625,0.7989735007286072,0.1826668679714203,0.203294038772583
1761413848556592400,8.10959228515625,0.8050810098648071,0.18176567554473877,0.19323289394378662
1761413848566605300,8.119605224609375,0.8094123601913452,0.18457797169685364,0.17204105854034424
1761413848576618500,8.129618408203125,0.8086902499198914,0.19715671241283417,0.1471068412065506
1761413848586631400,8.13963134765625,0.7977153658866882,0.21585343778133392,0.11762777715921402
1761413848596644400,8.149644287109375,0.7841533422470093,0.22275054454803467,0.07398729026317596
1761413848606656300,8.15965625,0.7720239758491516,0.22829283773899078,0.026038674637675285
1761413848616669400,8.16966943359375,0.766174852848053,0.22766344249248505,-0.014054852537810802
1761413848626682400,8.179682373046875,0.7633098363876343,0.2216676026582718,-0.046837035566568375
1761413848636695300,8.1896953125,0.754084587097168,0.20563237369060516,-0.06938967853784561
1761413848646707200,8.199707275390624,0.7470477223396301,0.1895924210548401,-0.07663614302873611
1761413848656720400,8.209720458984375,0.7366482019424438,0.18153256177902222,-0.07732103765010834
1761413848666733300,8.2197333984375,0.7291463017463684,0.1877334713935852,-0.07746058702468872
1761413848676746500,8.22974658203125,0.7174611687660217,0.20534104108810425,-0.08897030353546143
1761413848686759400,8.239759521484375,0.7131028771400452,0.21992982923984528,-0.11856015026569366
1761413848696771300,8.249771240234375,0.7134642004966736,0.237092986702919,-0.15563738346099854
1761413848706784300,8.2597841796875,0.7162666320800781,0.25382640957832336,-0.20588111877441406
1761413848716797400,8.26979736328125,0.7265557646751404,0.25883644819259644,-0.24779799580574036
1761413848726810400,8.279810302734376,0.743171215057373,0.2547306418418884,-0.28646978735923767
1761413848736823300,8.2898232421875,0.7595766186714172,0.24480991065502167,-0.30454203486442566
1761413848746835500,8.29983544921875,0.7841474413871765,0.24486449360847473,-0.29869773983955383
1761413848756848400,8.309848388671876,0.8055798411369324,0.24859215319156647,-0.2834940552711487
1761413848766861300,8.319861328125,0.8324498534202576,0.24186262488365173,-0.24930252134799957
1761413848776874200,8.329874267578125,0.8597915768623352,0.23044265806674957,-0.20677709579467773
1761413848786887400,8.339887451171874,0.8904725313186646,0.22262521088123322,-0.1660858690738678
1761413848796899300,8.3498994140625,0.9168444871902466,0.21922461688518524,-0.12092291563749313
1761413848806912500,8.35991259765625,0.9356946349143982,0.2331705242395401,-0.08865232765674591
1761413848816925200,8.36992529296875,0.9566339254379272,0.24621012806892395,-0.06760638952255249
1761413848826938400,8.3799384765625,0.9791951775550842,0.25818130373954773,-0.059218499809503555
1761413848836950300,8.3899501953125,1.0016980171203613,0.2711330056190491,-0.05768338963389397
1761413848846963500,8.39996337890625,1.0218842029571533,0.2834165692329407,-0.05817633867263794
1761413848856976400,8.409976318359375,1.0307525396347046,0.30674657225608826,-0.05931287258863449
1761413848866989300,8.4199892578125,1.0388773679733276,0.32689017057418823,-0.06220932677388191
1761413848877002200,8.430002197265624,1.0438339710235596,0.3483637273311615,-0.06365961581468582
1761413848887014400,8.440014404296875,1.0522899627685547,0.3696168065071106,-0.06865277886390686
1761413848897027300,8.45002734375,1.065789818763733,0.37736108899116516,-0.059988558292388916
1761413848907040300,8.460040283203124,1.07526695728302,0.3596113920211792,-0.04672548174858093
1761413848917053400,8.470053466796875,1.0834295749664307,0.338880330324173,-0.025414401665329933
1761413848927066400,8.48006640625,1.0822687149047852,0.30718791484832764,-0.008664981462061405
1761413848937078500,8.49007861328125,1.0742079019546509,0.2689046561717987,-0.009665192104876041
1761413848947091500,8.500091552734375,1.0677279233932495,0.22953808307647705,-0.010199422016739845
1761413848957104400,8.5101044921875,1.0732755661010742,0.19558531045913696,-0.013699749484658241
1761413848967117300,8.520117431640625,1.0872926712036133,0.17844893038272858,-0.004281480330973864
1761413848977130500,8.530130615234375,1.1006555557250977,0.147176131606102,0.012488013133406639
1761413848987142400,8.540142333984376,1.1322630643844604,0.11863583326339722,0.03434910252690315
1761413848997155300,8.5501552734375,1.1595382690429688,0.0897517129778862,0.05196883901953697
1761413849007168300,8.560168212890625,1.1571296453475952,0.08138991892337799,0.06354027986526489
1761413849017181400,8.570181396484376,1.1446553468704224,0.10036537796258926,0.06475557386875153
1761413849027193300,8.580193359375,1.1530226469039917,0.12733040750026703,0.06886376440525055
1761413849037206500,8.59020654296875,1.1866792440414429,0.11672304570674896,0.06842061132192612
1761413849047219200,8.60021923828125,1.2259107828140259,0.05903684347867966,0.050308726727962494
1761413849057232400,8.610232421875,1.2272638082504272,-0.009754572063684464,0.02207718789577484
1761413849067245600,8.62024560546875,1.2062796354293823,-0.07505421340465546,-0.0027115156408399343
1761413849077257500,8.630257568359376,1.1732839345932007,-0.14544272422790527,-0.003140716813504696
1761413849087270400,8.6402705078125,1.1484602689743042,-0.19766944646835327,0.022891150787472725
1761413849097283300,8.650283447265625,1.1251789331436157,-0.22504007816314697,0.06466230005025864
1761413849107296500,8.660296630859374,1.1138578653335571,-0.252527117729187,0.11363623291254044
1761413849117309400,8.670309326171875,1.1075122356414795,-0.24522864818572998,0.17441512644290924
1761413849127321600,8.680321533203125,1.1011922359466553,-0.16834479570388794,0.2351815402507782
1761413849137334300,8.690334228515624,1.095807433128357,-0.07720425724983215,0.28143876791000366
1761413849147347500,8.700347412109375,1.0965784788131714,-0.012761350721120834,0.2980094850063324
1761413849157360400,8.7103603515625,1.1207773685455322,0.04400035738945007,0.30085596442222595
1761413849167372500,8.72037255859375,1.1590243577957153,0.11930149793624878,0.30307650566101074
1761413849177385200,8.73038525390625,1.2025865316390991,0.20349347591400146,0.30067187547683716
1761413849187398400,8.7403984375,1.254140019416809,0.27694106101989746,0.3054461181163788
1761413849197411300,8.750411376953124,1.3042956590652466,0.35127314925193787,0.3125399053096771
1761413849207424500,8.760424560546875,1.3601906299591064,0.42292627692222595,0.3303425908088684
1761413849217436400,8.7704365234375,1.4222056865692139,0.45576512813568115,0.35225382447242737
1761413849227449300,8.780449462890624,1.4725441932678223,0.44822996854782104,0.3726904094219208
1761413849237462300,8.790462158203125,1.5134104490280151,0.40835875272750854,0.4083152115345001
1761413849247475500,8.800475341796876,1.5431241989135742,0.37116506695747375,0.457822322845459
1761413849257488400,8.81048828125,1.5724663734436035,0.3256371319293976,0.5199211835861206
1761413849267500300,8.820500244140625,1.5943889617919922,0.2755952775478363,0.5631117820739746
1761413849277513500,8.830513427734376,1.6083842515945435,0.21345074474811554,0.5856391787528992
1761413849287526400,8.8405263671875,1.6241834163665771,0.13256999850273132,0.5742485523223877
1761413849297539600,8.85053955078125,1.630656361579895,0.057217106223106384,0.5360748767852783
1761413849307552300,8.86055224609375,1.6096067428588867,0.0011077621020376682,0.4535968005657196
1761413849317564400,8.870564453125,1.5861250162124634,-0.04517911374568939,0.3373488187789917
1761413849327577300,8.880577392578125,1.5684325695037842,-0.0815429836511612,0.2026144415140152
1761413849337590500,8.890590576171874,1.551047444343567,-0.11271240562200546,0.05017942935228348
1761413849347603200,8.900603271484375,1.5414386987686157,-0.1326427161693573,-0.1057816743850708
1761413849357615400,8.910615478515625,1.537850022315979,-0.12239926308393478,-0.24540068209171295
1761413849367628300,8.920628173828124,1.5358850955963135,-0.0949026569724083,-0.3558608889579773
1761413849377641500,8.930641357421875,1.5385468006134033,-0.056692253798246384,-0.4361407160758972
1761413849387654400,8.940654296875,1.5412172079086304,-0.041725289076566696,-0.4868587553501129
1761413849397667300,8.950667236328124,1.5361607074737549,-0.047872915863990784,-0.511408805847168
1761413849407679200,8.96067919921875,1.529801845550537,-0.05808374285697937,-0.5022597908973694
1761413849417692400,8.9706923828125,1.5230371952056885,-0.05863892287015915,-0.4564276933670044
1761413849427705300,8.980705322265624,1.5218966007232666,-0.03930065035820007,-0.3751821219921112
1761413849437718300,8.99071826171875,1.51349937915802,-0.002190442755818367,-0.2835894525051117
1761413849447731500,9.0007314453125,1.5112165212631226,0.04864291101694107,-0.17967849969863892
1761413849457743400,9.010743408203124,1.5034579038619995,0.11168910562992096,-0.08244689553976059
1761413849467756500,9.020756591796875,1.4921104907989502,0.1948963701725006,-0.008927399292588234
1761413849477769500,9.03076953125,1.4870193004608154,0.2662050426006317,0.03471449017524719
1761413849487782400,9.040782470703125,1.480852484703064,0.317547082901001,0.03101908601820469
1761413849497795300,9.05079541015625,1.4687249660491943,0.3548367917537689,-0.0027062948793172836
1761413849507807500,9.060807373046876,1.4520460367202759,0.4081495404243469,-0.04203399270772934
1761413849517820400,9.0708203125,1.4311484098434448,0.4725698232650757,-0.08484776318073273
1761413849527833300,9.080833251953125,1.4024150371551514,0.5342552661895752,-0.12150910496711731
1761413849537846300,9.09084619140625,1.3680893182754517,0.5953571796417236,-0.1461738646030426
1761413849547858400,9.1008583984375,1.3325443267822266,0.6450842618942261,-0.15651758015155792
1761413849557871400,9.110871337890625,1.2973401546478271,0.6864012479782104,-0.16478930413722992
1761413849567884500,9.120884521484374,1.2613898515701294,0.7107515931129456,-0.16482126712799072
1761413849577897200,9.130897216796875,1.2289822101593018,0.7254036664962769,-0.16330586373806
1761413849587910400,9.140910400390625,1.1967989206314087,0.732784628868103,-0.1586298793554306
1761413849597922300,9.15092236328125,1.1601672172546387,0.7255874872207642,-0.1535627245903015
1761413849607935500,9.160935546875,1.1242848634719849,0.6999441981315613,-0.15442292392253876
1761413849617948400,9.170948486328125,1.0839225053787231,0.6559868454933167,-0.15369641780853271
1761413849627961300,9.18096142578125,1.0479727983474731,0.6109647750854492,-0.15025001764297485
1761413849637974500,9.190974609375,1.0089672803878784,0.5624639987945557,-0.14136561751365662
1761413849647986400,9.200986328125,0.9685317277908325,0.5236213207244873,-0.1170903891324997
1761413849657999400,9.210999267578124,0.9354897737503052,0.5081376433372498,-0.07945243269205093
1761413849668012300,9.22101220703125,0.9012854099273682,0.4908076226711273,-0.04303930327296257
1761413849678025500,9.231025390625,0.8782941699028015,0.47120293974876404,-0.009067879058420658
1761413849688037400,9.241037353515624,0.857489824295044,0.44874903559684753,0.023793663829565048
1761413849698050600,9.251050537109375,0.8434678316116333,0.42481181025505066,0.04716332629323006
1761413849708063500,9.2610634765625,0.8377468585968018,0.38744473457336426,0.06403232365846634
1761413849718076400,9.271076416015624,0.8331248760223389,0.3375040292739868,0.07105941325426102
1761413849728089300,9.28108935546875,0.8272331953048706,0.2893495559692383,0.07987260818481445
1761413849738101500,9.2911015625,0.8206928968429565,0.25771117210388184,0.09367363899946213
1761413849748114400,9.301114501953125,0.812805712223053,0.24660605192184448,0.11803783476352692
1761413849758127400,9.31112744140625,0.7997775673866272,0.24037720263004303,0.14670489728450775
1761413849768140300,9.321140380859376,0.7850223183631897,0.22882866859436035,0.16746903955936432
1761413849778153500,9.331153564453125,0.7605778574943542,0.22450098395347595,0.18516846001148224
1761413849788165400,9.341165283203125,0.7365223169326782,0.22684748470783234,0.19169427454471588
1761413849798178600,9.351178466796876,0.7070973515510559,0.2445153445005417,0.18941761553287506
1761413849808191200,9.361191162109375,0.6863329410552979,0.26086634397506714,0.18189658224582672
1761413849818204400,9.371204345703125,0.6665464639663696,0.2717725932598114,0.16257447004318237
1761413849828217600,9.381217529296874,0.6422381401062012,0.2792789936065674,0.1408015340566635
1761413849838229500,9.3912294921875,0.6222085356712341,0.27670279145240784,0.12520860135555267
1761413849848242200,9.4012421875,0.603609025478363,0.2765595018863678,0.11324435472488403
1761413849858255400,9.41125537109375,0.588191032409668,0.27544480562210083,0.11098828166723251
1761413849868268500,9.4212685546875,0.5704895257949829,0.27807629108428955,0.11838974058628082
1761413849878280400,9.431280517578125,0.5554727911949158,0.2859203517436981,0.12726366519927979
1761413849888293600,9.441293701171874,0.5429322123527527,0.3050304055213928,0.144306018948555
1761413849898306300,9.451306396484375,0.5362910628318787,0.34974393248558044,0.16713666915893555
1761413849908319700,9.46131982421875,0.554337739944458,0.4126874804496765,0.18754181265830994
1761413849918333000,9.4713330078125,0.5791749358177185,0.4509704113006592,0.1800292730331421
1761413849928344800,9.4813447265625,0.5958431363105774,0.4369179904460907,0.1350277066230774
1761413849938357800,9.491357666015626,0.6024258732795715,0.430375874042511,0.061194296926259995
1761413849948370700,9.50137060546875,0.6033251881599426,0.3985937237739563,-0.01814260147511959
1761413849958383900,9.5113837890625,0.5932008028030396,0.342621773481369,-0.0879102349281311
1761413849968396500,9.521396484375,0.5696195960044861,0.253223180770874,-0.1589260846376419
1761413849978408700,9.53140869140625,0.5188095569610596,0.11536893248558044,-0.22739648818969727
1761413849988421600,9.541421630859375,0.4360464811325073,-0.025531461462378502,-0.27719733119010925
1761413849998434800,9.551434814453126,0.3455246090888977,-0.09670958667993546,-0.2857169806957245
1761413850008447700,9.56144775390625,0.27785876393318176,-0.1035698875784874,-0.26827433705329895
1761413850018460000,9.5714599609375,0.2381855696439743,-0.08335293084383011,-0.21957163512706757
1761413850028472600,9.58147265625,0.23706410825252533,-0.027081938460469246,-0.1545015424489975
1761413850038485800,9.59148583984375,0.2558315098285675,0.03192497789859772,-0.08521229028701782
1761413850048498700,9.601498779296875,0.28669995069503784,0.09529756009578705,-0.025778260082006454
1761413850058511600,9.61151171875,0.3234926462173462,0.15807375311851501,0.02521471679210663
1761413850068523500,9.6215234375,0.3731030821800232,0.2293223738670349,0.07868460565805435
1761413850078536700,9.63153662109375,0.4359707832336426,0.3089727461338043,0.1257202923297882
1761413850088549600,9.641549560546874,0.5022965669631958,0.4122498631477356,0.17315198481082916
1761413850098562800,9.651562744140625,0.558305561542511,0.5088818073272705,0.2179860919713974
1761413850108575700,9.66157568359375,0.5967714786529541,0.5499293804168701,0.24817463755607605
1761413850118587600,9.671587646484374,0.6080976128578186,0.5391970872879028,0.2636758089065552
1761413850128600800,9.681600830078125,0.6089319586753845,0.4993434250354767,0.27563127875328064
1761413850138613800,9.69161376953125,0.5976296067237854,0.4288932681083679,0.2723537087440491
1761413850148626700,9.701626708984374,0.5715905427932739,0.32081338763237,0.25473156571388245
1761413850158638600,9.711638671875,0.5479934811592102,0.19974558055400848,0.2448434829711914
1761413850168651800,9.72165185546875,0.526712954044342,0.07823087275028229,0.2507184147834778
1761413850178664700,9.731664794921874,0.49956056475639343,-0.020487220957875252,0.2610408663749695
1761413850188678000,9.741677978515625,0.4699382185935974,-0.0876430869102478,0.2785532772541046
1761413850198690600,9.751690673828126,0.4361245930194855,-0.12039051949977875,0.2910628020763397
1761413850208702700,9.76170263671875,0.4090261161327362,-0.11647433787584305,0.29606500267982483
1761413850218715600,9.771715576171875,0.3865673840045929,-0.08630223572254181,0.280110239982605
1761413850228728800,9.781728759765626,0.3679039776325226,-0.05367504805326462,0.2354429066181183
1761413850238741800,9.79174169921875,0.34712454676628113,-0.030196771025657654,0.1601855456829071
1761413850248754700,9.801754638671875,0.33315175771713257,-0.022393975406885147,0.06282997131347656
1761413850258766600,9.8117666015625,0.31012895703315735,-0.019907142966985703,-0.046578239649534225
1761413850268779800,9.82177978515625,0.27922242879867554,-0.02530670166015625,-0.1514974683523178
1761413850278792700,9.831792724609375,0.2514362335205078,-0.029030265286564827,-0.23097769916057587
1761413850288805600,9.8418056640625,0.2329014241695404,-0.016264401376247406,-0.27633559703826904
1761413850298817500,9.851817626953125,0.21924655139446259,0.007938659749925137,-0.28623536229133606
1761413850308830700,9.861830810546875,0.21079634130001068,0.046173129230737686,-0.2721395194530487
1761413850318844000,9.871843994140624,0.21941861510276794,0.11190805584192276,-0.23262016475200653
1761413850328856800,9.88185693359375,0.2549566328525543,0.190613254904747,-0.17186734080314636
1761413850338869800,9.891869873046875,0.309418261051178,0.24472829699516296,-0.11293123662471771
1761413850348881700,9.901881591796876,0.3655954897403717,0.2616220712661743,-0.06499779969453812
1761413850358894800,9.911894775390625,0.4088597893714905,0.2531052231788635,-0.03663133457303047
1761413850368907800,9.92190771484375,0.43941956758499146,0.23112161457538605,-0.026828505098819733
1761413850378920700,9.931920654296874,0.45931515097618103,0.1943059116601944,-0.03901736065745354
1761413850388933600,9.94193359375,0.477994829416275,0.1396770179271698,-0.062098708003759384
1761413850398945800,9.95194580078125,0.4911463260650635,0.09136620163917542,-0.09185203909873962
1761413850408958700,9.961958740234374,0.4840995967388153,0.05846603959798813,-0.11132640391588211
1761413850418972000,9.971971923828125,0.4559108316898346,0.00541480490937829,-0.12626300752162933
1761413850428984600,9.981984619140626,0.4257790446281433,-0.02602274715900421,-0.1391412615776062
1761413850438996700,9.991996826171874,0.40321093797683716,-0.026414716616272926,-0.15405769646167755
1761413850449009700,10.002009765625,0.3916546702384949,-0.021542463451623917,-0.17268411815166473
1761413850459022800,10.01202294921875,0.38695037364959717,-0.0018094072584062815,-0.19370721280574799
1761413850469035500,10.022035400390624,0.3797374665737152,0.01882343366742134,-0.2047521471977234
1761413850479048700,10.032048583984375,0.36613279581069946,0.015060022473335266,-0.22529779374599457
1761413850489060600,10.042060546875,0.3499825894832611,-0.011119917035102844,-0.25471559166908264
1761413850499073800,10.05207373046875,0.3391489088535309,-0.044413790106773376,-0.2863634526729584
1761413850509086700,10.062086669921875,0.33259329199790955,-0.06882085651159286,-0.31052470207214355
1761413850519099600,10.072099609375,0.32349249720573425,-0.09679403156042099,-0.32148826122283936
1761413850529112800,10.08211279296875,0.316978394985199,-0.10522240400314331,-0.3194378912448883
1761413850539124700,10.092124755859375,0.3182917833328247,-0.07814930379390717,-0.305504709482193
1761413850549138000,10.102137939453126,0.3176094889640808,-0.06686282902956009,-0.29007142782211304
1761413850559150600,10.112150634765625,0.3379366099834442,-0.02729395404458046,-0.2716808617115021
1761413850569163800,10.122163818359375,0.3541097342967987,0.009093880653381348,-0.2591342031955719
1761413850579175700,10.13217578125,0.364837110042572,0.06392394006252289,-0.24705365300178528
1761413850589188900,10.14218896484375,0.3753294348716736,0.1222413033246994,-0.23664334416389465
1761413850599201800,10.152201904296875,0.3918067216873169,0.14596089720726013,-0.2354370802640915
1761413850609214700,10.162214599609374,0.40556567907333374,0.13144053518772125,-0.23819424211978912
1761413850619227600,10.1722275390625,0.4181976616382599,0.09138825535774231,-0.2534518241882324
1761413850629239800,10.18223974609375,0.42257511615753174,0.04151443392038345,-0.2733437716960907
1761413850639252700,10.192252685546874,0.430399626493454,-0.03614060953259468,-0.2974212169647217
1761413850649265700,10.202265625,0.426668256521225,-0.11951486021280289,-0.31593629717826843
1761413850659278600,10.212278564453126,0.427212655544281,-0.2386469542980194,-0.3225347399711609
1761413850669291800,10.222291748046874,0.41655653715133667,-0.32434719800949097,-0.3024861812591553
1761413850679303700,10.2323037109375,0.3813292980194092,-0.3229043483734131,-0.2592222988605499
