time,seconds_elapsed,z,y,x
1761413818643095300,0.07309521484375,0.04849801957607269,-0.006284842733293772,0.026303578168153763
1761413818653108500,0.0831083984375,0.05191432312130928,0.0010143490508198738,0.021993253380060196
1761413818663121200,0.09312109375,0.06024933233857155,0.0133146271109581,0.005928071215748787
1761413818673134300,0.10313427734375,0.07363411039113998,0.028560159727931023,-0.0015237194020301104
1761413818683146200,0.113146240234375,0.087202288210392,0.04051399230957031,-0.006006836891174316
1761413818693159400,0.123159423828125,0.10115911066532135,0.046291451901197433,-0.004855819046497345
1761413818703172400,0.13317236328125,0.10815975069999695,0.046892356127500534,0.0009409633930772543
1761413818713185300,0.143185302734375,0.11912184953689575,0.04135191813111305,0.012838102877140045
1761413818723198500,0.153198486328125,0.13100463151931763,0.03340814635157585,0.02465333789587021
1761413818733211400,0.16321142578125,0.13893578946590424,0.0276234932243824,0.039008308202028275
1761413818743224300,0.173224365234375,0.14654982089996338,0.010364016517996788,0.04589586704969406
1761413818753237200,0.1832373046875,0.15295445919036865,-0.0173064935952425,0.04727724939584732
1761413818763249400,0.19324951171875,0.15401990711688995,-0.04567938670516014,0.04422292485833168
1761413818773262300,0.203262451171875,0.15321964025497437,-0.07029205560684204,0.03387068584561348
1761413818783275300,0.213275146484375,0.15295925736427307,-0.09417334944009781,0.017001107335090637
1761413818793288200,0.2232880859375,0.157856285572052,-0.10183925181627274,0.008764749392867088
1761413818803301400,0.23330126953125,0.1643970012664795,-0.08693061023950577,0.006205451209098101
1761413818813314600,0.243314453125,0.1731974184513092,-0.05797140300273895,0.00974026508629322
1761413818823327200,0.2533271484375,0.18860307335853577,-0.023771852254867554,0.0154508575797081
1761413818833340400,0.26334033203125,0.20165841281414032,0.013911077752709389,0.0032895319163799286
1761413818843352300,0.273352294921875,0.22069710493087769,0.04216255247592926,-0.014953798614442348
1761413818853365500,0.283365478515625,0.24012300372123718,0.06916647404432297,-0.035736311227083206
1761413818863378200,0.293378173828125,0.24667850136756897,0.0789293423295021,-0.048673197627067566
1761413818873391400,0.303391357421875,0.2508852183818817,0.05782246217131615,-0.07240915298461914
1761413818883404000,0.313404052734375,0.26208260655403137,0.040900710970163345,-0.07753939181566238
1761413818893417000,0.3234169921875,0.2691516876220703,0.04646991565823555,-0.07944674789905548
1761413818903430000,0.333429931640625,0.279217004776001,0.04990483075380325,-0.07330784201622009
1761413818913441800,0.34344189453125,0.28772473335266113,0.055698003619909286,-0.06892028450965881
1761413818923455000,0.353455078125,0.29425621032714844,0.063866525888443,-0.07075072824954987
1761413818933468000,0.363468017578125,0.29755374789237976,0.08199652284383774,-0.06943592429161072
1761413818943481000,0.373481201171875,0.30346208810806274,0.11188898235559464,-0.06712781637907028
1761413818953494000,0.383493896484375,0.30958494544029236,0.13078224658966064,-0.06597387045621872
1761413818963507000,0.3935068359375,0.31577178835868835,0.14286589622497559,-0.0644642636179924
1761413818973520100,0.40352001953125,0.3243972361087799,0.15053659677505493,-0.066641665995121
1761413818983532800,0.41353271484375,0.33683741092681885,0.15150734782218933,-0.07105614244937897
1761413818993545000,0.423544921875,0.346356600522995,0.1371944546699524,-0.07188118994235992
1761413819003558000,0.433557861328125,0.3544572591781616,0.10293043404817581,-0.07259111851453781
1761413819013571000,0.443571044921875,0.36002859473228455,0.06026738882064819,-0.06647197157144547
1761413819023584000,0.453583984375,0.35863709449768066,0.019241128116846085,-0.05229702964425087
1761413819033597000,0.463596923828125,0.3620757758617401,-0.009237917140126228,-0.03958895802497864
1761413819043609900,0.47360986328125,0.36237356066703796,-0.025778736919164658,-0.019918348640203476
1761413819053623000,0.483623046875,0.3695148229598999,-0.03592937812209129,-0.006688295863568783
1761413819063636000,0.493635986328125,0.3691471219062805,-0.053552448749542236,0.0011084750294685364
1761413819073647900,0.50364794921875,0.364373117685318,-0.0759592205286026,0.002081061713397503
1761413819083661000,0.5136611328125,0.3601531684398651,-0.10252751410007477,0.004252430517226458
1761413819093674000,0.523674072265625,0.3470616042613983,-0.12876631319522858,0.00846954621374607
1761413819103687200,0.533687255859375,0.335205614566803,-0.1606183797121048,0.01827245205640793
1761413819113699800,0.543699951171875,0.31718266010284424,-0.18204191327095032,0.03897000849246979
1761413819123713000,0.553713134765625,0.2989693880081177,-0.17808865010738373,0.0610496960580349
1761413819133726000,0.563725830078125,0.28213393688201904,-0.17050902545452118,0.07549921423196793
1761413819143738000,0.573738037109375,0.2744244635105133,-0.15299296379089355,0.08373699337244034
1761413819153750800,0.583750732421875,0.2630833685398102,-0.13496628403663635,0.07919923216104507
1761413819163764000,0.593763916015625,0.2466895580291748,-0.12793120741844177,0.06344445049762726
1761413819173777000,0.60377685546875,0.22804076969623566,-0.1327030509710312,0.048638876527547836
1761413819183790000,0.6137900390625,0.20349274575710297,-0.14969412982463837,0.03664911165833473
1761413819193803000,0.623802978515625,0.178496316075325,-0.16494739055633545,0.041118960827589035
1761413819203816000,0.63381591796875,0.14818914234638214,-0.15906991064548492,0.06182868778705597
1761413819213829000,0.6438291015625,0.12215913832187653,-0.1420893371105194,0.09484948962926865
1761413819223841000,0.653841064453125,0.10507137328386307,-0.11368126422166824,0.13766174018383026
1761413819233854000,0.66385400390625,0.09536361694335938,-0.06253526359796524,0.18434801697731018
1761413819243867000,0.673866943359375,0.08794647455215454,0.007581373210996389,0.2327907830476761
1761413819253880000,0.683880126953125,0.08329739421606064,0.06752966344356537,0.2737387418746948
1761413819263893000,0.69389306640625,0.08875060826539993,0.11740048229694366,0.3031925857067108
1761413819273906000,0.703906005859375,0.10796211659908295,0.1401129812002182,0.3088235855102539
1761413819283918800,0.7139189453125,0.1029294952750206,0.1035761907696724,0.2894841134548187
1761413819293932000,0.72393212890625,0.03763944283127785,0.014993855729699135,0.242843359708786
1761413819303944000,0.73394384765625,-0.049487002193927765,-0.08637957274913788,0.19311007857322693
1761413819313956900,0.743956787109375,-0.15527760982513428,-0.1751648485660553,0.13971316814422607
1761413819323970000,0.753969970703125,-0.26478156447410583,-0.22822728753089905,0.08945988863706589
1761413819333983000,0.76398291015625,-0.3592556118965149,-0.25947922468185425,0.04547325149178505
1761413819343996200,0.77399609375,-0.42266491055488586,-0.25760743021965027,0.01996135711669922
1761413819354008800,0.7840087890625,-0.4525977671146393,-0.21115100383758545,0.010733770206570625
1761413819364022000,0.79402197265625,-0.4525749683380127,-0.12285269796848297,0.014682607725262642
1761413819374034000,0.804033935546875,-0.43152880668640137,-0.025214552879333496,0.0230297539383173
1761413819384047000,0.814047119140625,-0.38254037499427795,0.08097786456346512,0.040026385337114334
1761413819394059800,0.824059814453125,-0.3210751414299011,0.1883826106786728,0.056211214512586594
1761413819404073000,0.834072998046875,-0.25994354486465454,0.28569719195365906,0.07704589515924454
1761413819414086000,0.8440859375,-0.19576004147529602,0.36174002289772034,0.10648980736732483
1761413819424099000,0.85409912109375,-0.15004700422286987,0.4040863513946533,0.15612348914146423
1761413819434112000,0.864112060546875,-0.12084438651800156,0.40704935789108276,0.22142446041107178
1761413819444125000,0.874125,-0.10294950008392334,0.3762398362159729,0.2974688708782196
1761413819454136800,0.88413671875,-0.08953116834163666,0.32780545949935913,0.3749420940876007
1761413819464150000,0.89414990234375,-0.07639792561531067,0.27017855644226074,0.44113820791244507
1761413819474163000,0.904162841796875,-0.059472210705280304,0.21083642542362213,0.4951165020465851
1761413819484176000,0.91417578125,-0.04288410395383835,0.14816628396511078,0.5264889001846313
1761413819494189000,0.92418896484375,-0.029098251834511757,0.07983303815126419,0.5363607406616211
1761413819504202000,0.934201904296875,-0.024602467194199562,0.008577529340982437,0.5190826058387756
1761413819514215000,0.94421484375,-0.027211567386984825,-0.05490211024880409,0.48345082998275757
1761413819524226800,0.954226806640625,-0.03714940324425697,-0.09220962971448898,0.428348571062088
1761413819534240000,0.964239990234375,-0.04503582417964935,-0.09641316533088684,0.3590448498725891
1761413819544253000,0.9742529296875,-0.060341041535139084,-0.0863715261220932,0.281866192817688
1761413819554265900,0.984265869140625,-0.08277923613786697,-0.07380779832601547,0.1916622817516327
1761413819564279000,0.994279052734375,-0.1084342673420906,-0.058402471244335175,0.09331387281417847
1761413819574292000,1.0042919921875,-0.13737750053405762,-0.03630169481039047,-0.015406753867864609
1761413819584305200,1.01430517578125,-0.16765554249286652,-0.06312065571546555,-0.1297805905342102
1761413819594317800,1.02431787109375,-0.17874521017074585,-0.12114987522363663,-0.24203629791736603
1761413819604330000,1.034330078125,-0.1945214867591858,-0.20079420506954193,-0.32717183232307434
1761413819614343000,1.044343017578125,-0.22062499821186066,-0.26468315720558167,-0.3792440891265869
1761413819624356000,1.054356201171875,-0.2435954362154007,-0.31683146953582764,-0.4001774191856384
1761413819634369000,1.064369140625,-0.25493675470352173,-0.32334449887275696,-0.3854258954524994
1761413819644382000,1.0743818359375,-0.2580536901950836,-0.2948521673679352,-0.34088772535324097
1761413819654395000,1.084394775390625,-0.2503954768180847,-0.2383478581905365,-0.28400182723999023
1761413819664408000,1.094407958984375,-0.21845805644989014,-0.16179423034191132,-0.2203994244337082
1761413819674420000,1.104419921875,-0.17782685160636902,-0.08250686526298523,-0.16554783284664154
1761413819684433000,1.114432861328125,-0.13142971694469452,-0.02406862936913967,-0.14024809002876282
1761413819694445800,1.12444580078125,-0.08347392082214355,0.0003264588303864002,-0.13688558340072632
1761413819704459000,1.134458984375,-0.04487543925642967,0.017514998093247414,-0.1376272588968277
1761413819714472000,1.144471923828125,-0.01252549234777689,0.029194291681051254,-0.13696865737438202
1761413819724484900,1.15448486328125,0.008640456013381481,0.022298570722341537,-0.13299386203289032
1761413819734498000,1.164498046875,0.01673327013850212,0.02364426851272583,-0.1291208267211914
1761413819744511000,1.174510986328125,0.0258370079100132,0.034366194158792496,-0.11703460663557053
1761413819754523100,1.184523193359375,0.036896318197250366,0.05312123894691467,-0.09845826029777527
1761413819764535800,1.194535888671875,0.04608667641878128,0.07904230803251266,-0.08511744439601898
1761413819774549000,1.204549072265625,0.04662490263581276,0.10106638818979263,-0.07991842180490494
1761413819784562000,1.21456201171875,0.056401897221803665,0.11496489495038986,-0.09063684195280075
1761413819794574800,1.224574951171875,0.06843805313110352,0.11578434705734253,-0.11670040339231491
1761413819804588000,1.234588134765625,0.07565762102603912,0.09641517698764801,-0.1487472802400589
1761413819814601000,1.24460107421875,0.07697188854217529,0.05098910629749298,-0.1791802942752838
1761413819824612900,1.25461279296875,0.06922336667776108,-0.0021350947208702564,-0.1952255517244339
1761413819834626000,1.2646259765625,0.05015965923666954,-0.05121821537613869,-0.1954718828201294
1761413819844639000,1.274638916015625,0.0234385896474123,-0.07737159729003906,-0.16613423824310303
1761413819854652000,1.28465185546875,-0.009407241828739643,-0.06739459931850433,-0.11906685680150986
1761413819864665000,1.2946650390625,-0.03677815943956375,-0.041742194443941116,-0.0759822428226471
1761413819874678000,1.304677978515625,-0.056715913116931915,0.0018079448491334915,-0.04965769499540329
1761413819884691500,1.31469140625,-0.058254510164260864,0.05034425109624863,-0.04368364065885544
1761413819894704600,1.32470458984375,-0.04745752364397049,0.08970736712217331,-0.05430193245410919
1761413819904716500,1.334716552734375,-0.029369685798883438,0.10306912660598755,-0.06776297837495804
1761413819914729500,1.3447294921875,-0.011435160413384438,0.09262846410274506,-0.06861172616481781
1761413819924742400,1.354742431640625,0.004153234884142876,0.0761386975646019,-0.04946497827768326
1761413819934755600,1.364755615234375,0.01722775772213936,0.05808991938829422,-0.017547257244586945
1761413819944768500,1.3747685546875,0.03148455172777176,0.04402204602956772,0.021612726151943207
1761413819954781400,1.384781494140625,0.043790485709905624,0.037931133061647415,0.055542465299367905
1761413819964794400,1.39479443359375,0.06064765900373459,0.03795832768082619,0.0821649581193924
1761413819974806500,1.404806640625,0.0796719491481781,0.05078490823507309,0.09906937181949615
1761413819984819500,1.4148193359375,0.10797914862632751,0.07310496270656586,0.10889419913291931
1761413819994832600,1.42483251953125,0.14185455441474915,0.09576207399368286,0.10425391048192978
1761413820004845600,1.434845458984375,0.18097779154777527,0.12047193944454193,0.09355384856462479
1761413820014858500,1.4448583984375,0.21851451694965363,0.13148917257785797,0.07809286564588547
1761413820024871700,1.45487158203125,0.25590988993644714,0.13218365609645844,0.05993206053972244
1761413820034884400,1.46488427734375,0.2876923084259033,0.11330744624137878,0.04738590866327286
1761413820044896500,1.474896484375,0.31354185938835144,0.09952995181083679,0.03718619421124458
1761413820054909400,1.484909423828125,0.353244811296463,0.10132944583892822,0.03374405577778816
1761413820064922600,1.494922607421875,0.39152029156684875,0.03778891637921333,0.0019955956377089024
1761413820074935600,1.504935546875,0.3931855857372284,-0.09296057373285294,-0.04449707269668579
1761413820084948500,1.514948486328125,0.3619503974914551,-0.2462530881166458,-0.08752748370170593
1761413820094961400,1.52496142578125,0.3356865644454956,-0.4240305423736572,-0.11299102753400803
1761413820104974600,1.534974609375,0.3120265305042267,-0.5914399027824402,-0.11041179299354553
1761413820114987500,1.544987548828125,0.3061712980270386,-0.7016497850418091,-0.049718622118234634
1761413820124999400,1.55499951171875,0.31626996397972107,-0.7256885766983032,0.0719723105430603
1761413820135012400,1.565012451171875,0.3319850265979767,-0.6712628602981567,0.23711653053760529
1761413820145025500,1.575025634765625,0.3705183267593384,-0.5468927621841431,0.42044755816459656
1761413820155038700,1.585038818359375,0.42889028787612915,-0.38520345091819763,0.5742088556289673
1761413820165051400,1.595051513671875,0.4931628406047821,-0.21192701160907745,0.6601304411888123
1761413820175064600,1.605064697265625,0.5562166571617126,-0.0565725713968277,0.6571932435035706
1761413820185077500,1.615077392578125,0.6110497117042542,0.09123609215021133,0.5880772471427917
1761413820195089700,1.625089599609375,0.6524938344955444,0.22549617290496826,0.494633287191391
1761413820205102300,1.635102294921875,0.6592803597450256,0.31550928950309753,0.4034009575843811
1761413820215115500,1.645115478515625,0.6317067742347717,0.35479971766471863,0.33649781346321106
1761413820225128400,1.65512841796875,0.5965425968170166,0.3660089671611786,0.31852099299430847
1761413820235141600,1.6651416015625,0.5618163347244263,0.37924620509147644,0.3539263904094696
1761413820245154600,1.675154541015625,0.5328037142753601,0.397605299949646,0.42273440957069397
1761413820255167500,1.68516748046875,0.5240229964256287,0.4194812774658203,0.5022521018981934
1761413820265179400,1.695179443359375,0.527323842048645,0.43338721990585327,0.5571553707122803
1761413820275192600,1.705192626953125,0.5425318479537964,0.42459556460380554,0.561138927936554
1761413820285205500,1.71520556640625,0.5590646266937256,0.37273073196411133,0.5041342973709106
1761413820295218400,1.725218505859375,0.5678802132606506,0.3002631962299347,0.3913092315196991
1761413820305231600,1.735231689453125,0.5588510632514954,0.20652510225772858,0.24010969698429108
1761413820315244500,1.74524462890625,0.5268998146057129,0.09241237491369247,0.08188837766647339
1761413820325257500,1.755257568359375,0.4724673330783844,-0.018516264855861664,-0.047294069081544876
1761413820335270400,1.7652705078125,0.4115848243236542,-0.09052067995071411,-0.12365435808897018
1761413820345282600,1.775282470703125,0.362976610660553,-0.13084177672863007,-0.15070676803588867
1761413820355295500,1.78529541015625,0.32859599590301514,-0.13381333649158478,-0.15504318475723267
1761413820365308400,1.795308349609375,0.31596410274505615,-0.11241020262241364,-0.14600393176078796
1761413820375321300,1.8053212890625,0.3230494558811188,-0.08639644831418991,-0.1372959315776825
1761413820385334500,1.81533447265625,0.34721818566322327,-0.0554066076874733,-0.13746128976345062
1761413820395347700,1.82534765625,0.37683653831481934,-0.04122713580727577,-0.14415541291236877
1761413820405360400,1.8353603515625,0.4139297604560852,-0.04189925640821457,-0.15826360881328583
1761413820415372500,1.84537255859375,0.43294447660446167,-0.05320943519473076,-0.1692374348640442
1761413820425385500,1.855385498046875,0.4363826513290405,-0.06410802900791168,-0.16989749670028687
1761413820435398700,1.865398681640625,0.4278469383716583,-0.0585356280207634,-0.16435466706752777
1761413820445411300,1.875411376953125,0.411063015460968,-0.022238632664084435,-0.16359373927116394
1761413820455424500,1.885424560546875,0.4032258689403534,0.05552779883146286,-0.16979597508907318
1761413820465437400,1.8954375,0.40614771842956543,0.15634272992610931,-0.18204747140407562
1761413820475450600,1.90545068359375,0.4185425937175751,0.25262877345085144,-0.2023804485797882
1761413820485462500,1.915462646484375,0.4368346631526947,0.33255162835121155,-0.22821131348609924
1761413820495475500,1.925475341796875,0.4552789330482483,0.3995807468891144,-0.24781164526939392
1761413820505488400,1.93548828125,0.46389326453208923,0.4425455331802368,-0.263217031955719
1761413820515501600,1.94550146484375,0.4674150347709656,0.4619898200035095,-0.2839398682117462
1761413820525514500,1.955514404296875,0.46371909976005554,0.46813908219337463,-0.3050161302089691
1761413820535527400,1.96552734375,0.45410481095314026,0.444049209356308,-0.3264140784740448
1761413820545540600,1.97554052734375,0.4320080280303955,0.39164644479751587,-0.3487175405025482
1761413820555552500,1.985552490234375,0.41486021876335144,0.3356465697288513,-0.35735762119293213
1761413820565565700,1.995565673828125,0.39350244402885437,0.28944775462150574,-0.34235429763793945
1761413820575578400,2.005578369140625,0.37417614459991455,0.25616464018821716,-0.3087396025657654
1761413820585591600,2.015591552734375,0.35829031467437744,0.23486542701721191,-0.27119433879852295
1761413820595604500,2.0256044921875,0.3500411808490753,0.21833863854408264,-0.23641373217105865
1761413820605617400,2.035617431640625,0.34926727414131165,0.2008838951587677,-0.21454690396785736
1761413820615630300,2.04563037109375,0.3508007228374481,0.17997168004512787,-0.20205508172512054
1761413820625643500,2.0556435546875,0.35149526596069336,0.1620815396308899,-0.20609843730926514
1761413820635655400,2.065655517578125,0.3510718047618866,0.14219385385513306,-0.20567366480827332
1761413820645668600,2.075668701171875,0.3403480052947998,0.10370218008756638,-0.20850123465061188
1761413820655681500,2.085681640625,0.32050320506095886,0.059069205075502396,-0.19690077006816864
1761413820665694500,2.095694580078125,0.3016018271446228,0.008606399409472942,-0.16780927777290344
1761413820675707600,2.105707763671875,0.28192585706710815,-0.03609049692749977,-0.11941617727279663
1761413820685720300,2.11572021484375,0.26628485321998596,-0.0773433968424797,-0.04792814329266548
1761413820695733500,2.1257333984375,0.2513501048088074,-0.10462455451488495,0.03299466893076897
1761413820705745400,2.135745361328125,0.2416650354862213,-0.11043370515108109,0.1078859269618988
1761413820715758600,2.145758544921875,0.24051880836486816,-0.08979500830173492,0.16736283898353577
1761413820725771500,2.155771484375,0.24297155439853668,-0.05272070690989494,0.18871434032917023
1761413820735784400,2.165784423828125,0.24044767022132874,-0.014321917667984962,0.1808958351612091
1761413820745797400,2.17579736328125,0.2297983467578888,0.030615627765655518,0.14139990508556366
1761413820755810600,2.185810546875,0.2158694863319397,0.07214309275150299,0.08534862101078033
1761413820765823500,2.195823486328125,0.1930350363254547,0.10751213878393173,0.029992537572979927
1761413820775835400,2.20583544921875,0.16547851264476776,0.1428096741437912,-0.014703027904033661
1761413820785848600,2.2158486328125,0.1388406902551651,0.17049816250801086,-0.03437377139925957
1761413820795861500,2.225861572265625,0.11069826781749725,0.20376797020435333,-0.019625984132289886
1761413820805874700,2.235874755859375,0.09121570736169815,0.25033628940582275,0.008217344991862774
1761413820815887400,2.245887451171875,0.10719547420740128,0.32197079062461853,0.03816725313663483
1761413820825900500,2.255900634765625,0.17364107072353363,0.34999337792396545,0.02592656761407852
1761413820835913500,2.26591357421875,0.20958948135375977,0.2745281755924225,-0.052292339503765106
1761413820845925600,2.275925537109375,0.19089572131633759,0.18303698301315308,-0.16478946805000305
1761413820855938600,2.2859384765625,0.15209239721298218,0.10296692699193954,-0.2632654309272766
1761413820865951500,2.295951416015625,0.10833793878555298,0.019326621666550636,-0.3357667922973633
1761413820875964400,2.30596435546875,0.038624636828899384,-0.09133118391036987,-0.38320568203926086
1761413820885977900,2.315977783203125,-0.04066915437579155,-0.19370023906230927,-0.40081286430358887
1761413820895990500,2.325990478515625,-0.09945524483919144,-0.2497754842042923,-0.39027073979377747
1761413820906003700,2.336003662109375,-0.12661565840244293,-0.26526597142219543,-0.35805878043174744
1761413820916015600,2.346015625,-0.12386488169431686,-0.2445223331451416,-0.2959509491920471
1761413820926028800,2.35602880859375,-0.10327787697315216,-0.2175648957490921,-0.23217181861400604
1761413820936041700,2.366041748046875,-0.05790933221578598,-0.18523411452770233,-0.15052995085716248
1761413820946054700,2.3760546875,-0.015610804781317711,-0.13370472192764282,-0.055825188755989075
1761413820956067800,2.38606787109375,0.022648435086011887,-0.0697409063577652,0.0430300198495388
1761413820966080800,2.396080810546875,0.0761713832616806,0.005529248621314764,0.14006584882736206
1761413820976093700,2.40609375,0.13485068082809448,0.10493999719619751,0.22068825364112854
1761413820986105600,2.416105712890625,0.19060471653938293,0.2125026434659958,0.2894255220890045
1761413820996118800,2.426118896484375,0.23212765157222748,0.2942742109298706,0.3395611345767975
1761413821006131700,2.436131591796875,0.25865358114242554,0.3069283962249756,0.3703697621822357
1761413821016144600,2.44614453125,0.262760192155838,0.2619558572769165,0.3968208134174347
1761413821026157600,2.456157470703125,0.2541191875934601,0.1882508248090744,0.4260867238044739
1761413821036170800,2.466170654296875,0.23692314326763153,0.10090287774801254,0.45241817831993103
1761413821046184000,2.476183837890625,0.20571787655353546,0.016370143741369247,0.4679630398750305
1761413821056196600,2.486196533203125,0.1744486391544342,-0.0485667809844017,0.46967706084251404
1761413821066208500,2.49620849609375,0.14054420590400696,-0.08694985508918762,0.45731067657470703
1761413821076221700,2.5062216796875,0.10590953379869461,-0.08919596672058105,0.42504915595054626
1761413821086235000,2.51623486328125,0.07465466856956482,-0.06605469435453415,0.370973140001297
1761413821096247600,2.52624755859375,0.058567315340042114,-0.030159007757902145,0.30500316619873047
1761413821106260700,2.5362607421875,0.04401117190718651,0.008993156254291534,0.23221956193447113
1761413821116273700,2.546273681640625,0.04039806127548218,0.0419633574783802,0.15664489567279816
1761413821126286800,2.556286865234375,0.03216033801436424,0.06592188030481339,0.09090879559516907
1761413821136298800,2.566298828125,0.0267940703779459,0.0596512034535408,0.03615712746977806
1761413821146311700,2.576311767578125,0.020655743777751923,0.04397847503423691,0.0034680000972002745
1761413821156324600,2.58632470703125,0.01504526101052761,0.031740717589855194,-0.011531456373631954
1761413821166337800,2.596337890625,0.008861498907208443,0.032816193997859955,-0.015973232686519623
1761413821176350700,2.606350830078125,0.009017559699714184,0.030011087656021118,-0.013800893910229206
1761413821186363600,2.61636376953125,0.010270565748214722,0.02482621558010578,-0.02223832532763481
1761413821196376800,2.626376953125,0.011483103036880493,0.01909908652305603,-0.04541261866688728
1761413821206388700,2.636388671875,0.009109738282859325,0.024347946047782898,-0.07257262617349625
1761413821216402000,2.64640185546875,0.0004781676107086241,0.032387495040893555,-0.11793611198663712
1761413821226414600,2.65641455078125,-0.007554549258202314,0.0037336796522140503,-0.17657700181007385
1761413821236427800,2.666427734375,-0.01194050908088684,-0.029259158298373222,-0.22799384593963623
1761413821246440700,2.676440673828125,-0.020741412416100502,-0.054392971098423004,-0.2630743682384491
1761413821256453600,2.68645361328125,-0.03137887641787529,-0.08077903836965561,-0.28874671459198
1761413821266466600,2.696466552734375,-0.03192532807588577,-0.0935189351439476,-0.2977089285850525
1761413821276478700,2.706478759765625,-0.024292709305882454,-0.08309825509786606,-0.3053090572357178
1761413821286491600,2.71649169921875,-0.012532133609056473,-0.056731630116701126,-0.3022482991218567
1761413821296504800,2.7265048828125,0.004916365724056959,-0.026996638625860214,-0.2970956265926361
1761413821306517500,2.736517578125,0.022925090044736862,0.0008719782344996929,-0.29112476110458374
1761413821316530700,2.74653076171875,0.039855871349573135,0.028286559507250786,-0.2797967493534088
1761413821326544000,2.7565439453125,0.057156022638082504,0.043354492634534836,-0.2667089104652405
1761413821336556800,2.766556884765625,0.07086863368749619,0.05307396501302719,-0.25525277853012085
1761413821346568700,2.776568603515625,0.08399249613285065,0.05687132850289345,-0.24971875548362732
1761413821356581600,2.78658154296875,0.09031271189451218,0.05329310521483421,-0.23731642961502075
1761413821366594800,2.7965947265625,0.09298522770404816,0.03794937580823898,-0.22380304336547852
1761413821376607700,2.806607666015625,0.0932701900601387,0.02355232462286949,-0.19494636356830597
1761413821386620700,2.81662060546875,0.09750398993492126,0.020656602457165718,-0.16269329190254211
1761413821396633600,2.826633544921875,0.10493207722902298,0.03629867732524872,-0.1317225992679596
1761413821406646800,2.836646728515625,0.12308549880981445,0.07023005187511444,-0.10671844333410263
1761413821416658700,2.84665869140625,0.1550932377576828,0.0989634320139885,-0.09134294837713242
1761413821426671600,2.856671630859375,0.19688893854618073,0.10527515411376953,-0.0788293182849884
1761413821436684500,2.8666845703125,0.24359118938446045,0.0857752189040184,-0.06974846869707108
1761413821446697700,2.87669775390625,0.2830258011817932,0.04421728849411011,-0.05506105720996857
1761413821456711000,2.8867109375,0.3134993016719818,-0.003155818209052086,-0.04852592945098877
1761413821466723600,2.8967236328125,0.3341447710990906,-0.048450928181409836,-0.040003206580877304
1761413821476736800,2.90673681640625,0.3419465124607086,-0.0831654965877533,-0.027084479108452797
1761413821486748700,2.916748779296875,0.3339158594608307,-0.13323715329170227,-0.0065728588961064816
1761413821496761900,2.926761962890625,0.32315322756767273,-0.18797416985034943,0.018319441005587578
1761413821506774800,2.93677490234375,0.3113862872123718,-0.20569629967212677,0.0575503446161747
1761413821516787700,2.94678759765625,0.30793723464012146,-0.17680899798870087,0.09723597019910812
1761413821526800600,2.956800537109375,0.31876707077026367,-0.11493542045354843,0.13231655955314636
1761413821536813800,2.966813720703125,0.3380267918109894,-0.020352458581328392,0.1555558294057846
1761413821546826500,2.976826416015625,0.37374967336654663,0.11395303159952164,0.16111619770526886
1761413821556838700,2.986838623046875,0.43025368452072144,0.2479236125946045,0.13529258966445923
1761413821566851600,2.9968515625,0.4825840890407562,0.29458364844322205,0.07455530762672424
1761413821576864800,3.00686474609375,0.48744916915893555,0.2315567582845688,-0.016113076359033585
1761413821586877700,3.016877685546875,0.4615473747253418,0.14936141669750214,-0.1140933632850647
1761413821596890600,3.026890625,0.4267909824848175,0.0434243306517601,-0.1947495937347412
1761413821606903800,3.03690380859375,0.36810606718063354,-0.1025039404630661,-0.24874824285507202
1761413821616916700,3.046916748046875,0.2940848469734192,-0.2686218023300171,-0.2655469477176666
1761413821626929000,3.056928955078125,0.23677706718444824,-0.41250619292259216,-0.22269679605960846
1761413821636941600,3.066941650390625,0.1903613656759262,-0.48439767956733704,-0.12585759162902832
1761413821646954800,3.076954833984375,0.15817487239837646,-0.4709623157978058,-0.0032051538582891226
1761413821656967700,3.0869677734375,0.15775275230407715,-0.3956414461135864,0.1278897523880005
1761413821666980900,3.09698095703125,0.18668055534362793,-0.26302486658096313,0.2556421458721161
1761413821676993500,3.10699365234375,0.238137885928154,-0.12517936527729034,0.36001941561698914
1761413821687006700,3.1170068359375,0.2995467483997345,-0.0294229406863451,0.4307830035686493
1761413821697018600,3.1270185546875,0.35466352105140686,0.03699922561645508,0.479561984539032
1761413821707031800,3.13703173828125,0.38268691301345825,0.09095331281423569,0.5012068152427673
1761413821717044700,3.147044677734375,0.3769262135028839,0.13601478934288025,0.5096543431282043
1761413821727057700,3.1570576171875,0.346086710691452,0.16531255841255188,0.4963057339191437
1761413821737070800,3.16707080078125,0.2987159788608551,0.19802069664001465,0.4659784734249115
1761413821747083800,3.177083740234375,0.26740679144859314,0.254334956407547,0.4379298985004425
1761413821757096700,3.1870966796875,0.25379326939582825,0.3643663823604584,0.422385036945343
1761413821767109600,3.197109619140625,0.2609635293483734,0.5000587105751038,0.4180092215538025
1761413821777121800,3.207121826171875,0.2816919684410095,0.6081329584121704,0.3924633860588074
1761413821787134700,3.217134765625,0.32474812865257263,0.6766482591629028,0.3435225784778595
1761413821797147600,3.227147705078125,0.37040242552757263,0.7086567878723145,0.2656903564929962
1761413821807160600,3.23716064453125,0.40769729018211365,0.6944266557693481,0.16860726475715637
1761413821817173800,3.247173828125,0.42258700728416443,0.656328022480011,0.06280360370874405
1761413821827187000,3.25718701171875,0.4279348850250244,0.5366519093513489,-0.04495879262685776
1761413821837199600,3.26719970703125,0.4143485128879547,0.362064927816391,-0.13421303033828735
1761413821847211500,3.27721142578125,0.3824760317802429,0.18460585176944733,-0.1811676174402237
1761413821857224700,3.287224609375,0.3437342047691345,0.06389515101909637,-0.17582744359970093
1761413821867238000,3.29723779296875,0.31924349069595337,-0.003551395609974861,-0.14262701570987701
1761413821877250600,3.30725048828125,0.30435216426849365,-0.04441733658313751,-0.08777201175689697
1761413821887263500,3.317263427734375,0.300922155380249,-0.0881032720208168,-0.04476948827505112
1761413821897276400,3.3272763671875,0.3205150365829468,-0.13415198028087616,-0.0255941953510046
1761413821907289600,3.33728955078125,0.34928780794143677,-0.1472334861755371,-0.02320203185081482
1761413821917301500,3.347301513671875,0.3892911672592163,-0.1538381278514862,-0.025573575869202614
1761413821927314400,3.357314453125,0.419634610414505,-0.1476670354604721,-0.04542937129735947
1761413821937327600,3.36732763671875,0.4508500397205353,-0.12832768261432648,-0.056071627885103226
1761413821947340500,3.377340576171875,0.46673181653022766,-0.10329939424991608,-0.06327616423368454
1761413821957353500,3.387353515625,0.47076863050460815,-0.06555281579494476,-0.06694759428501129
1761413821967366400,3.397366455078125,0.46725019812583923,-0.03632322698831558,-0.07424899190664291
1761413821977379600,3.407379638671875,0.46780654788017273,0.014380965381860733,-0.0717213824391365
1761413821987391500,3.4173916015625,0.4550546109676361,0.08628318458795547,-0.06839248538017273
1761413821997404700,3.42740478515625,0.43405798077583313,0.14716836810112,-0.06364460289478302
1761413822007417300,3.437417236328125,0.40726742148399353,0.1816660314798355,-0.0666210949420929
1761413822017430500,3.447430419921875,0.3747611343860626,0.2118084877729416,-0.06531001627445221
1761413822027443500,3.457443359375,0.32830238342285156,0.24104776978492737,-0.07234146445989609
1761413822037456600,3.46745654296875,0.2841663360595703,0.27112576365470886,-0.0832098200917244
1761413822047468500,3.477468505859375,0.2505412995815277,0.2965587377548218,-0.09623057395219803
1761413822057481500,3.4874814453125,0.21026261150836945,0.31599342823028564,-0.10496547818183899
1761413822067494400,3.497494384765625,0.16829697787761688,0.3168680965900421,-0.12124468386173248
1761413822077507600,3.507507568359375,0.1367901712656021,0.3144715130329132,-0.1269848644733429
1761413822087520500,3.5175205078125,0.11930439621210098,0.3047943413257599,-0.13001234829425812
1761413822097533400,3.527533447265625,0.1093449741601944,0.28996771574020386,-0.12904241681098938
1761413822107546600,3.537546630859375,0.10724128037691116,0.2859714925289154,-0.11527423560619354
1761413822117558500,3.54755859375,0.1124432310461998,0.2807258665561676,-0.10886640846729279
1761413822127571500,3.557571533203125,0.12285151332616806,0.26066234707832336,-0.10211707651615143
1761413822137584400,3.56758447265625,0.1348716914653778,0.2332080900669098,-0.10476799309253693
1761413822147597600,3.57759765625,0.1467009037733078,0.20374876260757446,-0.09389165043830872
1761413822157610500,3.587610595703125,0.1527119278907776,0.18064691126346588,-0.0716148391366005
1761413822167623400,3.59762353515625,0.14597417414188385,0.14327698945999146,-0.03653368726372719
1761413822177636600,3.60763671875,0.13058988749980927,0.11404135078191757,-0.00002547726035118103
1761413822187648500,3.6176484375,0.11395850777626038,0.0863417387008667,0.045984186232089996
1761413822197661400,3.627661376953125,0.08954477310180664,0.067079097032547,0.08564238250255585
1761413822207674600,3.637674560546875,0.06758052110671997,0.045560721307992935,0.12090667337179184
1761413822217687600,3.6476875,0.048059284687042236,0.01749153807759285,0.14064867794513702
1761413822227700500,3.657700439453125,0.02967335470020771,-0.010249012149870396,0.15219375491142273
1761413822237713700,3.667713623046875,0.010291043668985367,-0.0402676984667778,0.15720827877521515
1761413822247726300,3.677726318359375,-0.01445371750742197,-0.0766611248254776,0.15938860177993774
1761413822257738500,3.687738525390625,-0.05808375030755997,-0.11472754925489426,0.15679575502872467
1761413822267751400,3.69775146484375,-0.10531415790319443,-0.1480267494916916,0.14161959290504456
1761413822277764600,3.7077646484375,-0.1507980227470398,-0.17336726188659668,0.1357867419719696
1761413822287777500,3.717777587890625,-0.20209991931915283,-0.1907997876405716,0.14717382192611694
1761413822297790500,3.72779052734375,-0.2695503234863281,-0.2167046219110489,0.16513924300670624
1761413822307803400,3.737803466796875,-0.3265342712402344,-0.20206359028816223,0.19747348129749298
1761413822317816600,3.747816650390625,-0.34382909536361694,-0.10464755445718765,0.22798983752727509
1761413822327828500,3.757828369140625,-0.3169797658920288,0.044747062027454376,0.22709548473358154
1761413822337841400,3.76784130859375,-0.27819350361824036,0.14064162969589233,0.18601781129837036
1761413822347854600,3.7778544921875,-0.2781756818294525,0.1364990919828415,0.09837613999843597
1761413822357867500,3.787867431640625,-0.31120872497558594,0.08758001029491425,-0.025057917460799217
1761413822367880700,3.797880615234375,-0.35079437494277954,0.053450968116521835,-0.14120973646640778
1761413822377893400,3.807893310546875,-0.41347452998161316,0.0258619524538517,-0.2561326026916504
1761413822387906600,3.817906494140625,-0.4843108654022217,-0.025155922397971153,-0.3540711998939514
1761413822397918500,3.82791845703125,-0.5566399097442627,-0.08542326092720032,-0.4270694851875305
1761413822407931600,3.837931640625,-0.6192834973335266,-0.13923688232898712,-0.4674271047115326
1761413822417944300,3.8479443359375,-0.6674419641494751,-0.1739269644021988,-0.46442118287086487
1761413822427957500,3.85795751953125,-0.7035982012748718,-0.19179895520210266,-0.4289800524711609
1761413822437970400,3.867970458984375,-0.7219406962394714,-0.20901869237422943,-0.3791384696960449
1761413822447983600,3.877983642578125,-0.7424338459968567,-0.21605494618415833,-0.3146791160106659
1761413822457996500,3.88799658203125,-0.7703192830085754,-0.2241368442773819,-0.25964757800102234
1761413822468008400,3.898008544921875,-0.7768841981887817,-0.195392444729805,-0.214443176984787
1761413822478021600,3.908021728515625,-0.7711717486381531,-0.14517401158809662,-0.16728685796260834
1761413822488034600,3.91803466796875,-0.7736442685127258,-0.08679831773042679,-0.1148689016699791
1761413822498047500,3.928047607421875,-0.7735446691513062,-0.010660670697689056,-0.05123240500688553
1761413822508060400,3.938060302734375,-0.7669145464897156,0.05538352578878403,0.03181086853146553
1761413822518073600,3.948073486328125,-0.7613772749900818,0.12954990565776825,0.12011756002902985
1761413822528086500,3.95808642578125,-0.7508936524391174,0.20041604340076447,0.20260289311408997
1761413822538098700,3.9680986328125,-0.7284847497940063,0.25547662377357483,0.26476505398750305
1761413822548111400,3.978111328125,-0.7055690288543701,0.27299609780311584,0.30593687295913696
1761413822558124500,3.98812451171875,-0.6861916184425354,0.2517416477203369,0.3198646903038025
1761413822568137500,3.998137451171875,-0.6799524426460266,0.21582400798797607,0.32125768065452576
1761413822578150400,4.008150390625,-0.6886018514633179,0.1589772254228592,0.3030238151550293
1761413822588163600,4.01816357421875,-0.7138723134994507,0.10371047258377075,0.28212305903434753
1761413822598176500,4.028176513671875,-0.7528407573699951,0.05741941183805466,0.254817932844162
1761413822608188400,4.0381884765625,-0.8040543794631958,-0.0006023109890520573,0.2245550900697708
1761413822618201600,4.04820166015625,-0.8506138920783997,-0.05294567719101906,0.193217933177948
1761413822628214500,4.058214599609375,-0.8888767957687378,-0.09206025302410126,0.15149496495723724
1761413822638227500,4.0682275390625,-0.9210506677627563,-0.11601138859987259,0.09842082113027573
1761413822648240600,4.07824072265625,-0.9397255182266235,-0.12863051891326904,0.027490707114338875
1761413822658253300,4.08825341796875,-0.9492077231407166,-0.1350519210100174,-0.04996386915445328
1761413822668266500,4.0982666015625,-0.9571160674095154,-0.15368373692035675,-0.13944123685359955
1761413822678278400,4.1082783203125,-0.9616777896881104,-0.16684189438819885,-0.2181166112422943
1761413822688291600,4.11829150390625,-0.9612491726875305,-0.1704087257385254,-0.2781905233860016
1761413822698304500,4.128304443359375,-0.9574853181838989,-0.16093026101589203,-0.3119679391384125
1761413822708317400,4.1383173828125,-0.9481782913208008,-0.141409233212471,-0.3242185413837433
1761413822718330600,4.14833056640625,-0.929858922958374,-0.11235254257917404,-0.31215307116508484
1761413822728343600,4.158343505859375,-0.9067784547805786,-0.07391766458749771,-0.28707820177078247
1761413822738356500,4.1683564453125,-0.8754796385765076,-0.02240494266152382,-0.2540603280067444
1761413822748368400,4.178368408203125,-0.8440768122673035,0.030644193291664124,-0.21707946062088013
1761413822758381600,4.188381591796875,-0.8150225281715393,0.06736865639686584,-0.1810428947210312
1761413822768394500,4.19839453125,-0.7872980237007141,0.06689421087503433,-0.14332491159439087
1761413822778407700,4.20840771484375,-0.7680082321166992,0.03310748562216759,-0.10764201730489731
1761413822788420400,4.21842041015625,-0.755591869354248,0.004083322361111641,-0.0692715272307396
1761413822798433500,4.22843359375,-0.7453054189682007,-0.026516932994127274,-0.034182243049144745
1761413822808446500,4.238446533203125,-0.7421257495880127,-0.06131722405552864,-0.011547571048140526
1761413822818458600,4.248458740234375,-0.7340246438980103,-0.0928216278553009,0.00038605346344411373
1761413822828471300,4.25847119140625,-0.7248575091362,-0.13079996407032013,-0.0009070675587281585
1761413822838484500,4.268484375,-0.7207946181297302,-0.1765245795249939,0.0003896255511790514
1761413822848497400,4.278497314453125,-0.7218359708786011,-0.22378265857696533,0.017786219716072083
1761413822858510600,4.288510498046875,-0.7321189641952515,-0.25827592611312866,0.04057702049612999
1761413822868523500,4.2985234375,-0.7509592771530151,-0.29335954785346985,0.05960601568222046
1761413822878535400,4.308535400390625,-0.7762574553489685,-0.3159612715244293,0.06696086376905441
1761413822888548400,4.31854833984375,-0.8009604215621948,-0.32710176706314087,0.057561229914426804
1761413822898561500,4.3285615234375,-0.8297896385192871,-0.3287270963191986,0.02601528912782669
1761413822908574500,4.338574462890625,-0.8496306538581848,-0.3123036026954651,-0.026663413271307945
1761413822918587400,4.34858740234375,-0.8726561069488525,-0.2823616862297058,-0.09464006870985031
1761413822928600600,4.3586005859375,-0.8879504203796387,-0.25283151865005493,-0.17175690829753876
1761413822938613500,4.368613525390625,-0.9088075160980225,-0.22694186866283417,-0.26325273513793945
1761413822948625700,4.378625732421875,-0.922823429107666,-0.19664961099624634,-0.345281183719635
1761413822958638300,4.388638427734375,-0.9299087524414062,-0.15907293558120728,-0.4131896495819092
1761413822968651500,4.398651611328125,-0.9236094951629639,-0.130378857254982,-0.4551260769367218
1761413822978664400,4.40866455078125,-0.9083365201950073,-0.12552976608276367,-0.4671095013618469
1761413822988677400,4.418677490234375,-0.8953236937522888,-0.14414425194263458,-0.43175196647644043
1761413822998690300,4.428690185546875,-0.8922190070152283,-0.1702600121498108,-0.368646502494812
1761413823008703500,4.438703369140625,-0.906295657157898,-0.18204247951507568,-0.28081104159355164
1761413823018715400,4.44871533203125,-0.9268004298210144,-0.14025534689426422,-0.18582916259765625
1761413823028728600,4.458728515625,-0.9471316933631897,-0.07072494179010391,-0.10089142620563507
1761413823038741200,4.4687412109375,-0.9602088928222656,0.0071352384984493256,-0.04168110340833664
1761413823048754400,4.47875439453125,-0.944271445274353,0.0736367329955101,-0.008027508854866028
1761413823058767600,4.488767578125,-0.9070223569869995,0.12590792775154114,-0.006555046886205673
1761413823068780500,4.498780517578125,-0.8511316776275635,0.16891834139823914,-0.014713491313159466
1761413823078793500,4.50879345703125,-0.7904507517814636,0.19011710584163666,-0.02259484864771366
1761413823088805400,4.518805419921875,-0.7280848622322083,0.20543061196804047,-0.004849974997341633
1761413823098818600,4.528818603515625,-0.6752368211746216,0.24048767983913422,0.03436001017689705
1761413823108831500,4.53883154296875,-0.6210441589355469,0.3062438666820526,0.07593557238578796
1761413823118844400,4.548844482421875,-0.5422806143760681,0.3064180612564087,0.10237357020378113
1761413823128857300,4.558857421875,-0.4816860854625702,0.21539264917373657,0.09912308305501938
1761413823138870500,4.56887060546875,-0.45866838097572327,0.09230292588472366,0.07422252744436264
1761413823148883500,4.578883544921875,-0.43626508116722107,-0.04621486738324165,0.03373249992728233
1761413823158895600,4.5888955078125,-0.40538278222084045,-0.1986962854862213,-0.015520533546805382
1761413823168908300,4.598908203125,-0.3719103932380676,-0.362600177526474,-0.06001779064536095
1761413823178921500,4.60892138671875,-0.3383271396160126,-0.5230225920677185,-0.08023651689291
1761413823188934700,4.6189345703125,-0.3098483085632324,-0.634463369846344,-0.06038239598274231
1761413823198947300,4.628947265625,-0.2859855890274048,-0.7202919721603394,-0.01191659364849329
1761413823208960500,4.63896044921875,-0.2561078667640686,-0.7518638968467712,0.09483157098293304
1761413823218973400,4.648973388671875,-0.21116329729557037,-0.7040117383003235,0.22246381640434265
1761413823228985600,4.658985595703125,-0.14975905418395996,-0.5960488319396973,0.3520626723766327
1761413823238998500,4.66899853515625,-0.08192700147628784,-0.46850764751434326,0.4621598720550537
1761413823249011500,4.679011474609375,-0.017978796735405922,-0.36278417706489563,0.5221640467643738
1761413823259024400,4.6890244140625,0.04366672411561012,-0.2861786186695099,0.5403769016265869
1761413823269037600,4.69903759765625,0.10164408385753632,-0.19294123351573944,0.5290094017982483
1761413823279050200,4.70905029296875,0.1549195498228073,-0.08596550673246384,0.5086450576782227
1761413823289062400,4.7190625,0.21110333502292633,0.009036766365170479,0.4938317835330963
1761413823299075300,4.729075439453125,0.2657277286052704,0.09193883836269379,0.4912740886211395
1761413823309088500,4.739088623046875,0.3215751051902771,0.1508316844701767,0.5027228593826294
1761413823319101700,4.749101806640625,0.3729243278503418,0.1888618916273117,0.5258787274360657
1761413823329114400,4.7591142578125,0.4219036102294922,0.20850034058094025,0.5484521985054016
1761413823339127600,4.76912744140625,0.47065651416778564,0.18208524584770203,0.5560171604156494
1761413823349140500,4.779140380859375,0.5154224634170532,0.10224594175815582,0.5427491664886475
1761413823359152600,4.789152587890625,0.5505815148353577,-0.023753799498081207,0.5118213295936584
1761413823369165300,4.799165283203125,0.5729091167449951,-0.1763613224029541,0.4667210876941681
1761413823379178500,4.809178466796875,0.5923622250556946,-0.3014279007911682,0.4388684332370758
1761413823389191400,4.81919140625,0.6201735734939575,-0.3866458535194397,0.42660537362098694
1761413823399204600,4.82920458984375,0.6443215608596802,-0.43286529183387756,0.4300549626350403
1761413823409217300,4.83921728515625,0.6742584109306335,-0.4661707878112793,0.4401070475578308
1761413823419230500,4.84923046875,0.7022767066955566,-0.4781579375267029,0.4433068335056305
1761413823429242400,4.859242431640625,0.7334529161453247,-0.45665428042411804,0.44355297088623047
1761413823439255600,4.869255615234375,0.7596997022628784,-0.4103570878505707,0.42546719312667847
1761413823449268500,4.8792685546875,0.7877210378646851,-0.3590365946292877,0.38117715716362
1761413823459281400,4.889281494140625,0.8204371929168701,-0.3295207917690277,0.321105033159256
1761413823469294600,4.899294677734375,0.8447198867797852,-0.3455371856689453,0.25063714385032654
1761413823479307500,4.9093076171875,0.8573251366615295,-0.38369229435920715,0.19280873239040375
1761413823489320400,4.919320556640625,0.8592900037765503,-0.4072478115558624,0.1588011085987091
1761413823499332400,4.929332275390625,0.8564204573631287,-0.40518465638160706,0.15051734447479248
1761413823509345500,4.939345458984375,0.8583921790122986,-0.37153685092926025,0.16667944192886353
1761413823519358500,4.9493583984375,0.8683817386627197,-0.29063642024993896,0.18405762314796448
1761413823529371400,4.959371337890625,0.8803620934486389,-0.17862071096897125,0.18430721759796143
1761413823539384300,4.96938427734375,0.9062070250511169,-0.05126675218343735,0.1635017991065979
1761413823549397500,4.9793974609375,0.9268345832824707,0.0740005224943161,0.11617647111415863
1761413823559410700,4.98941064453125,0.9401911497116089,0.177603617310524,0.05519194155931473
1761413823569422600,4.999422607421875,0.9451005458831787,0.2538951635360718,-0.008716671727597713
1761413823579435300,5.009435302734375,0.9445729851722717,0.30974990129470825,-0.05301755666732788
1761413823589448400,5.019448486328125,0.9392102956771851,0.36432480812072754,-0.07845240831375122
1761413823599461600,5.029461669921875,0.9332796931266785,0.40704137086868286,-0.08103381097316742
1761413823609474300,5.039474365234375,0.9219904541969299,0.4305177927017212,-0.06803057342767715
1761413823619487500,5.049487548828125,0.9072796702384949,0.4399411380290985,-0.05231979489326477
1761413823629499400,5.05949951171875,0.8954941630363464,0.4345390498638153,-0.037179525941610336
1761413823639512600,5.0695126953125,0.8819011449813843,0.4268547594547272,-0.020036226138472557
1761413823649525500,5.079525390625,0.8690170049667358,0.413105845451355,-0.004216480068862438
1761413823659538400,5.089538330078125,0.8583390712738037,0.3995508849620819,0.0013452658895403147
1761413823669551400,5.09955126953125,0.8530526161193848,0.38864147663116455,-0.00014739157631993294
1761413823679564500,5.109564453125,0.8519284725189209,0.37841492891311646,-0.01082533597946167
1761413823689577500,5.119577392578125,0.8513134121894836,0.3631005585193634,-0.026969600468873978
1761413823699589400,5.12958935546875,0.8422011137008667,0.3342984616756439,-0.0435808002948761
1761413823709602300,5.139602294921875,0.8275787830352783,0.2989453375339508,-0.04736329987645149
1761413823719615500,5.149615478515625,0.8009956479072571,0.2433372139930725,-0.0329153873026371
1761413823729628700,5.159628662109375,0.7633601427078247,0.17003744840621948,-0.003596664872020483
1761413823739641300,5.169641357421875,0.7217019200325012,0.09592405706644058,0.044882453978061676
1761413823749654500,5.179654541015625,0.6697790622711182,0.020787067711353302,0.10586366802453995
1761413823759667500,5.18966748046875,0.6216917037963867,-0.03518245741724968,0.1742698848247528
1761413823769679600,5.1996796875,0.5808070302009583,-0.060656026005744934,0.23365537822246552
1761413823779692300,5.2096923828125,0.5578699707984924,-0.04721824824810028,0.2759554088115692
1761413823789705500,5.21970556640625,0.5446264147758484,-0.003258346812799573,0.2920572757720947
1761413823799718400,5.229718505859375,0.5356366634368896,0.047400835901498795,0.2738465666770935
1761413823809731600,5.239731689453125,0.5306673049926758,0.09661901742219925,0.23261626064777374
1761413823819744300,5.249744140625,0.5202958583831787,0.13033942878246307,0.17193827033042908
1761413823829757400,5.25975732421875,0.5049868822097778,0.14263401925563812,0.10930194705724716
1761413823839769300,5.269769287109375,0.48910456895828247,0.1413133591413498,0.05924597382545471
1761413823849782500,5.279782470703125,0.48160237073898315,0.1263919472694397,0.0395696759223938
1761413823859795500,5.28979541015625,0.4760241210460663,0.11756543815135956,0.04203762486577034
1761413823869808400,5.299808349609375,0.47001850605010986,0.1322343796491623,0.0747317224740982
1761413823879821600,5.309821533203125,0.47024300694465637,0.18586458265781403,0.12182492762804031
1761413823889834800,5.319834716796875,0.48467519879341125,0.2773040533065796,0.16526444256305695
1761413823899846700,5.3298466796875,0.5125025510787964,0.32219642400741577,0.1718512326478958
1761413823909859600,5.339859619140625,0.5259600281715393,0.2928304374217987,0.12814436852931976
1761413823919872500,5.34987255859375,0.5055700540542603,0.2429259866476059,0.05432606860995293
1761413823929885700,5.3598857421875,0.4527215361595154,0.19084309041500092,-0.02573416568338871
1761413823939898400,5.3698984375,0.38498935103416443,0.17740212380886078,-0.10069682449102402
1761413823949911600,5.37991162109375,0.32172849774360657,0.20711733400821686,-0.15699011087417603
1761413823959924700,5.3899248046875,0.27002882957458496,0.2678280770778656,-0.1996089518070221
1761413823969936600,5.3999365234375,0.22536030411720276,0.333181232213974,-0.23515358567237854
1761413823979949600,5.409949462890625,0.20502601563930511,0.3843914270401001,-0.2712303400039673
1761413823989962500,5.41996240234375,0.2085893154144287,0.400799423456192,-0.31031304597854614
1761413823999975700,5.4299755859375,0.23530001938343048,0.39330315589904785,-0.3429950773715973
1761413824009988600,5.439988525390625,0.26001280546188354,0.37189608812332153,-0.3599593937397003
1761413824020001500,5.45000146484375,0.2768429219722748,0.3236289620399475,-0.3599351644515991
1761413824030014500,5.460014404296875,0.28515204787254333,0.2549949288368225,-0.3296163082122803
1761413824040026600,5.470026611328125,0.2919904887676239,0.18812429904937744,-0.2767499089241028
1761413824050039600,5.48003955078125,0.2942851483821869,0.12951934337615967,-0.20319847762584686
1761413824060052700,5.490052734375,0.2977887988090515,0.09006328135728836,-0.11634401232004166
1761413824070065400,5.5000654296875,0.31563088297843933,0.08610106259584427,-0.023570941761136055
1761413824080078600,5.51007861328125,0.3485826849937439,0.11271855235099792,0.0686521977186203
1761413824090091800,5.520091796875,0.3912620544433594,0.15332648158073425,0.1611219048500061
1761413824100103700,5.530103759765625,0.4484960436820984,0.19922605156898499,0.23629894852638245
1761413824110116600,5.54011669921875,0.5055994391441345,0.2398737519979477,0.29978427290916443
1761413824120129500,5.550129638671875,0.5771908164024353,0.270997554063797,0.34110456705093384
1761413824130142700,5.560142822265625,0.6435724496841431,0.277885377407074,0.3723878562450409
1761413824140155600,5.57015576171875,0.703265905380249,0.2622917592525482,0.3862629234790802
1761413824150168600,5.58016845703125,0.7456642985343933,0.2283412665128708,0.39529290795326233
1761413824160181500,5.590181396484375,0.7772834300994873,0.2050391286611557,0.3981129229068756
1761413824170193700,5.600193603515625,0.798541784286499,0.19502267241477966,0.3984450697898865
1761413824180206600,5.61020654296875,0.8060460090637207,0.1900971680879593,0.3957182466983795
1761413824190219500,5.620219482421875,0.7963156700134277,0.1701945960521698,0.3780268430709839
1761413824200232400,5.630232421875,0.780227541923523,0.12985143065452576,0.3417074382305145
1761413824210245600,5.64024560546875,0.762805700302124,0.06668082624673843,0.2890574038028717
1761413824220258600,5.650258544921875,0.7456699013710022,-0.015926972031593323,0.2107330709695816
1761413824230271500,5.660271484375,0.7357568144798279,-0.10796958208084106,0.13278800249099731
1761413824240283400,5.670283447265625,0.7324683666229248,-0.1987849622964859,0.06650060415267944
1761413824250296600,5.680296630859375,0.7372499704360962,-0.27296125888824463,0.028362058103084564
1761413824260309800,5.690309814453125,0.7417429685592651,-0.3187828063964844,0.022768352180719376
1761413824270322700,5.70032275390625,0.7418713569641113,-0.33582282066345215,0.04052312299609184
1761413824280335600,5.710335693359375,0.7552438974380493,-0.310428261756897,0.07262779772281647
1761413824290348500,5.7203486328125,0.7715861797332764,-0.25723159313201904,0.10951388627290726
1761413824300360700,5.730360595703125,0.7915297746658325,-0.18674035370349884,0.13993890583515167
1761413824310373600,5.74037353515625,0.8165910243988037,-0.10795816034078598,0.14611394703388214
1761413824320386600,5.750386474609375,0.8514118194580078,-0.026516830548644066,0.1330905556678772
1761413824330399500,5.7603994140625,0.8867213129997253,0.04375823214650154,0.0937931090593338
1761413824340412700,5.77041259765625,0.913357675075531,0.0938219279050827,0.04461570084095001
1761413824350425600,5.780425537109375,0.9229565262794495,0.11457394808530807,-0.0075642685405910015
1761413824360438500,5.7904384765625,0.9217327833175659,0.12249737977981567,-0.0492805577814579
1761413824370450400,5.800450439453125,0.9152759313583374,0.12261679768562317,-0.07827210426330566
1761413824380463600,5.810463623046875,0.9055322408676147,0.1193096786737442,-0.09725964814424515
1761413824390476800,5.820476806640625,0.901325523853302,0.11815164238214493,-0.10901898890733719
1761413824400489500,5.830489501953125,0.9000384211540222,0.10722868889570236,-0.11658822745084763
1761413824410502700,5.840502685546875,0.8970282077789307,0.1044621542096138,-0.12435850501060486
1761413824420515600,5.850515625,0.895138680934906,0.10461156070232391,-0.13300658762454987
1761413824430528800,5.86052880859375,0.888102114200592,0.10310480743646622,-0.14225763082504272
1761413824440540700,5.870540771484375,0.8792737722396851,0.09683333337306976,-0.15009132027626038
1761413824450553600,5.8805537109375,0.861965000629425,0.08147161453962326,-0.15984299778938293
1761413824460566500,5.89056640625,0.8447144031524658,0.07165148109197617,-0.16920214891433716
1761413824470579700,5.900579833984375,0.8270567059516907,0.06763286888599396,-0.18417558073997498
1761413824480592400,5.91059228515625,0.8125054836273193,0.07447080314159393,-0.19737952947616577
1761413824490605600,5.92060546875,0.8020968437194824,0.08816397935152054,-0.2026377022266388
1761413824500617500,5.930617431640625,0.7915765643119812,0.09897348284721375,-0.20838719606399536
1761413824510630700,5.940630615234375,0.7926657795906067,0.12187307327985764,-0.2040918916463852
1761413824520643600,5.9506435546875,0.8086071610450745,0.1574835330247879,-0.17444506287574768
1761413824530656500,5.960656494140625,0.8268106579780579,0.19573011994361877,-0.1442454755306244
1761413824540669700,5.970669677734375,0.8481777310371399,0.22561930119991302,-0.12009752541780472
1761413824550682600,5.9806826171875,0.8632562160491943,0.24132856726646423,-0.10433302819728851
1761413824560695600,5.990695556640625,0.8703817129135132,0.2269672006368637,-0.09879685193300247
1761413824570707500,6.00070751953125,0.8651292324066162,0.22143328189849854,-0.10216749459505081
1761413824580720600,6.010720703125,0.8629443645477295,0.22508686780929565,-0.11523615568876266
1761413824590733600,6.020733642578125,0.8618965744972229,0.23225021362304688,-0.1252911388874054
1761413824600746800,6.030746826171875,0.8590874671936035,0.24002398550510406,-0.12881796061992645
1761413824610759400,6.040759521484375,0.8531273007392883,0.22733202576637268,-0.12767772376537323
1761413824620772600,6.050772705078125,0.8480912446975708,0.20889443159103394,-0.12586544454097748
1761413824630784500,6.060784423828125,0.8492594361305237,0.19927355647087097,-0.1098276674747467
1761413824640797700,6.070797607421875,0.8508975505828857,0.18359073996543884,-0.08844222128391266
1761413824650810400,6.080810302734375,0.8463409543037415,0.15327920019626617,-0.05956055223941803
1761413824660823600,6.090823486328125,0.8410263657569885,0.11636698991060257,-0.02712538093328476
1761413824670836700,6.100836669921875,0.833652913570404,0.08924355357885361,0.00177786685526371
1761413824680849700,6.110849609375,0.8249872922897339,0.06928369402885437,0.021968355402350426
1761413824690862600,6.120862548828125,0.8249714374542236,0.07902760803699493,0.038163360208272934
1761413824700874500,6.13087451171875,0.8244731426239014,0.1259583681821823,0.052310071885585785
1761413824710887700,6.1408876953125,0.8357893824577332,0.17680522799491882,0.07574433088302612
1761413824720900600,6.150900634765625,0.8482303619384766,0.24799978733062744,0.12516488134860992
1761413824730913500,6.16091357421875,0.868912935256958,0.3601683974266052,0.20109426975250244
1761413824740926500,6.170926513671875,0.8974774479866028,0.5031045079231262,0.27504122257232666
1761413824750939600,6.180939697265625,0.9509908556938171,0.6446614265441895,0.316762775182724
1761413824760952600,6.19095263671875,1.020553708076477,0.7135105133056641,0.3164224326610565
1761413824770964700,6.20096484375,1.0715802907943726,0.7234071493148804,0.2661072611808777
1761413824780977400,6.210977294921875,1.1014244556427002,0.6670032739639282,0.18254819512367249
1761413824790990600,6.220990478515625,1.0786296129226685,0.4864116609096527,0.06804344803094864
1761413824801003800,6.231003662109375,1.0257996320724487,0.21696946024894714,-0.05712185427546501
1761413824811016400,6.241016357421875,0.9327407479286194,-0.07848109304904938,-0.12329074740409851
1761413824821029600,6.251029541015625,0.8507545590400696,-0.2713112533092499,-0.09928927570581436
1761413824831041500,6.26104150390625,0.8159496188163757,-0.2998984754085541,0.024303259328007698
1761413824841054700,6.2710546875,0.8032894730567932,-0.20937283337116241,0.19475434720516205
1761413824851067600,6.281067626953125,0.8157431483268738,-0.08654920756816864,0.34168311953544617
1761413824861080600,6.29108056640625,0.8561156392097473,0.04316804185509682,0.40551963448524475
1761413824871093500,6.301093505859375,0.8980682492256165,0.1321665644645691,0.37346962094306946
1761413824881106700,6.311106689453125,0.9251139760017395,0.1875201016664505,0.27811992168426514
1761413824891119900,6.321119873046875,0.9375020265579224,0.24383123219013214,0.19364133477210999
1761413824901131800,6.3311318359375,0.95337975025177,0.28317224979400635,0.15632060170173645
1761413824911145000,6.34114501953125,0.9709800481796265,0.3035450279712677,0.17936639487743378
1761413824921158100,6.351158203125,0.9810869693756104,0.35351258516311646,0.2502554953098297
1761413824931170800,6.3611708984375,0.9919166564941406,0.4325435757637024,0.32769206166267395
1761413824941184000,6.37118408203125,1.0079246759414673,0.5037088394165039,0.3727748692035675
1761413824951197000,6.381197021484375,1.0345152616500854,0.5632244944572449,0.3918861746788025
1761413824961209000,6.391208984375,1.0538448095321655,0.6407738924026489,0.3921087980270386
1761413824971222000,6.401221923828125,1.0695089101791382,0.7050158977508545,0.3845406770706177
1761413824981235000,6.41123486328125,1.0698119401931763,0.7620754837989807,0.36736753582954407
1761413824991248000,6.421247802734375,1.0723506212234497,0.7830881476402283,0.3232525587081909
1761413825001261000,6.431260986328125,1.0736411809921265,0.7347334027290344,0.2515280246734619
1761413825011274000,6.44127392578125,1.0631719827651978,0.6286922097206116,0.1657978743314743
1761413825021287000,6.451286865234375,1.0428988933563232,0.5086278319358826,0.09637246280908585
1761413825031298800,6.461298828125,1.0351580381393433,0.4156259298324585,0.04722655937075615
1761413825041312000,6.47131201171875,1.0420575141906738,0.3562563359737396,0.0283878892660141
1761413825051325200,6.4813251953125,1.0473964214324951,0.31357210874557495,0.025901714339852333
1761413825061337900,6.491337890625,1.0549033880233765,0.2691420614719391,0.02583060786128044
1761413825071351000,6.50135107421875,1.0661758184432983,0.222098708152771,0.024081123992800713
1761413825081364000,6.511364013671875,1.0748845338821411,0.17929399013519287,0.007480043452233076
1761413825091376000,6.521376220703125,1.0819339752197266,0.13354238867759705,-0.013444298878312111
1761413825101389000,6.53138916015625,1.0815601348876953,0.09226471185684204,-0.04147939383983612
1761413825111402000,6.541402099609375,1.0793095827102661,0.06566616147756577,-0.07086264342069626
1761413825121415000,6.551414794921875,1.0776827335357666,0.057354431599378586,-0.07776209712028503
1761413825131428000,6.561427978515625,1.0776549577713013,0.06153073534369469,-0.061805129051208496
1761413825141440800,6.571440673828125,1.0784575939178467,0.08069910109043121,-0.03349412977695465
1761413825151454000,6.581453857421875,1.081313967704773,0.10028239339590073,-0.002702694619074464
1761413825161465900,6.5914658203125,1.088730812072754,0.11166181415319443,0.021497715264558792
1761413825171479000,6.60147900390625,1.0873223543167114,0.12073078006505966,0.030866088345646858
1761413825181492000,6.611491943359375,1.0853315591812134,0.14113353192806244,0.02653605304658413
1761413825191505000,6.6215048828125,1.0777174234390259,0.17639170587062836,0.02003628946840763
1761413825201518000,6.63151806640625,1.066642165184021,0.21985076367855072,0.0037662379909306765
1761413825211531000,6.641531005859375,1.046449899673462,0.26483839750289917,-0.026076816022396088
1761413825221544000,6.6515439453125,1.024786114692688,0.31167060136795044,-0.051328908652067184
1761413825231555800,6.661555908203125,1.0028780698776245,0.3540867567062378,-0.08697500824928284
1761413825241569000,6.671569091796875,0.980482816696167,0.40775397419929504,-0.12311623245477676
1761413825251582000,6.68158203125,0.9539563059806824,0.45930275321006775,-0.170322448015213
1761413825261595100,6.69159521484375,0.9250423312187195,0.5253522992134094,-0.22464187443256378
1761413825271607800,6.70160791015625,0.9166553020477295,0.5613119602203369,-0.2727516293525696
1761413825281621000,6.71162109375,0.9108999371528625,0.5670201778411865,-0.30871230363845825
1761413825291633000,6.7216328125,0.8879973888397217,0.5767959356307983,-0.32159656286239624
1761413825301646000,6.73164599609375,0.8707270622253418,0.5721260905265808,-0.3141530156135559
1761413825311658800,6.74165869140625,0.8539806008338928,0.5474708676338196,-0.298434317111969
1761413825321672000,6.751671875,0.835217297077179,0.5118902325630188,-0.27460139989852905
1761413825331685000,6.76168505859375,0.8136550188064575,0.4774748384952545,-0.2421388179063797
1761413825341698000,6.771697998046875,0.7946861386299133,0.4441831707954407,-0.2066870927810669
1761413825351711000,6.7817109375,0.7741355299949646,0.40763789415359497,-0.16485625505447388
1761413825361723000,6.791722900390625,0.7521775364875793,0.3710087537765503,-0.12195112556219101
1761413825371736000,6.801736083984375,0.7302510142326355,0.324459433555603,-0.07961118221282959
1761413825381749000,6.8117490234375,0.7052199840545654,0.264309823513031,-0.0348394513130188
1761413825391762000,6.821761962890625,0.6846664547920227,0.20077066123485565,0.009179547429084778
1761413825401774800,6.83177490234375,0.6609283685684204,0.1442144364118576,0.05024629086256027
1761413825411788000,6.8417880859375,0.6410538554191589,0.08467217534780502,0.08719213306903839
1761413825421800000,6.851800048828125,0.6145879030227661,0.036358971148729324,0.11812874674797058
1761413825431813000,6.861813232421875,0.5839053988456726,-0.005584683269262314,0.15010741353034973
1761413825441825800,6.87182568359375,0.5501844882965088,-0.02938002720475197,0.17690280079841614
1761413825451839000,6.8818388671875,0.5137386322021484,-0.042813610285520554,0.18644259870052338
1761413825461852200,6.89185205078125,0.47477659583091736,-0.041679371148347855,0.18582448363304138
1761413825471864800,6.90186474609375,0.431825190782547,-0.0505344495177269,0.1656569093465805
1761413825481878000,6.9118779296875,0.39196673035621643,-0.06891185790300369,0.12533558905124664
1761413825491890000,6.921889892578125,0.3559873402118683,-0.08516620099544525,0.08204512298107147
1761413825501903000,6.931903076171875,0.3387734889984131,-0.08692361414432526,0.06216009333729744
1761413825511916000,6.941916015625,0.3457520306110382,-0.05852606147527695,0.06932426244020462
1761413825521929000,6.951928955078125,0.36515742540359497,-0.030095219612121582,0.10079483687877655
1761413825531942000,6.96194189453125,0.3746395409107208,-0.0420413613319397,0.10560905188322067
1761413825541955000,6.971955078125,0.3482414782047272,-0.0840790867805481,0.06526269763708115
1761413825551967000,6.981967041015625,0.29695892333984375,-0.11802970618009567,-0.013767313212156296
1761413825561980000,6.99197998046875,0.24076570570468903,-0.12553289532661438,-0.11701034754514694
1761413825571992800,7.001992919921875,0.19798316061496735,-0.10983049869537354,-0.1942160725593567
1761413825582006000,7.012006103515625,0.17163091897964478,-0.061921291053295135,-0.21521589159965515
1761413825592019200,7.022019287109375,0.167011097073555,-0.0018429087940603495,-0.2016080766916275
1761413825602031900,7.032031982421875,0.1845802366733551,0.07105393707752228,-0.17618420720100403
1761413825612043800,7.042043701171875,0.21805821359157562,0.13213160634040833,-0.1653008759021759
1761413825622057000,7.052056884765625,0.26011964678764343,0.1837489902973175,-0.19043393433094025
1761413825632070100,7.062070068359375,0.30086851119995117,0.2229202538728714,-0.2324068397283554
1761413825642082800,7.072082763671875,0.32635095715522766,0.24804344773292542,-0.2753268778324127
1761413825652096000,7.082095947265625,0.3361717164516449,0.26522308588027954,-0.30211541056632996
1761413825662109000,7.09210888671875,0.33975499868392944,0.2764403223991394,-0.3032611012458801
1761413825672122000,7.1021220703125,0.34051430225372314,0.28273212909698486,-0.2774762511253357
1761413825682134000,7.112134033203125,0.3492864966392517,0.2896513044834137,-0.23395007848739624
1761413825692147000,7.12214697265625,0.36455434560775757,0.28535884618759155,-0.1780274510383606
1761413825702160000,7.132159912109375,0.3908693194389343,0.2667127251625061,-0.12838105857372284
1761413825712173000,7.142173095703125,0.42085570096969604,0.24127686023712158,-0.08396804332733154
1761413825722185700,7.152185791015625,0.4427791237831116,0.21136637032032013,-0.04027728736400604
1761413825732199000,7.162198974609375,0.4632366895675659,0.1857624351978302,-0.0013572926400229335
1761413825742210800,7.1722109375,0.4866355061531067,0.17379818856716156,0.04259312152862549
1761413825752224000,7.18222412109375,0.5066919922828674,0.169941708445549,0.08173492550849915
1761413825762237200,7.1922373046875,0.526969850063324,0.16044193506240845,0.12744595110416412
1761413825772249900,7.202249755859375,0.5441237688064575,0.1587003618478775,0.1743672490119934
1761413825782263000,7.212262939453125,0.5761104226112366,0.18051326274871826,0.22570393979549408
1761413825792276000,7.22227587890625,0.6031129360198975,0.20202231407165527,0.2750677168369293
1761413825802289000,7.232288818359375,0.6174542903900146,0.21878957748413086,0.3163642883300781
1761413825812300800,7.24230078125,0.6227204203605652,0.21208599209785461,0.34485387802124023
1761413825822314000,7.25231396484375,0.6092328429222107,0.19205476343631744,0.34503522515296936
1761413825832327000,7.262326904296875,0.5757832527160645,0.15831327438354492,0.31015637516975403
1761413825842340000,7.272340087890625,0.5433797836303711,0.12166391313076019,0.2556803226470947
1761413825852352800,7.282352783203125,0.49783217906951904,0.07872374355792999,0.18367289006710052
1761413825862366000,7.292365966796875,0.4495061933994293,0.03109683468937874,0.10618554800748825
1761413825872377900,7.3023779296875,0.401863157749176,-0.004459897521883249,0.03658630698919296
1761413825882391000,7.31239111328125,0.3585508465766907,-0.03851906582713127,-0.012182299047708511
1761413825892403200,7.3224033203125,0.32711416482925415,-0.05076996982097626,-0.03827958181500435
1761413825902416000,7.332415771484375,0.31158286333084106,-0.04050854593515396,-0.04841237515211105
1761413825912429000,7.342428955078125,0.30626529455184937,-0.02752193994820118,-0.07218825072050095
1761413825922442000,7.35244189453125,0.3123399615287781,-0.03920149803161621,-0.10888900607824326
1761413825932454100,7.3624541015625,0.3242182433605194,-0.017697405070066452,-0.1361687183380127
1761413825942467000,7.372467041015625,0.3182455599308014,-0.021517176181077957,-0.17055225372314453
1761413825952480000,7.38247998046875,0.31510061025619507,-0.045911334455013275,-0.2018170803785324
1761413825962493000,7.392492919921875,0.3100738823413849,-0.06199123337864876,-0.22158385813236237
1761413825972506000,7.402506103515625,0.2956797480583191,-0.08564236760139465,-0.2329317182302475
1761413825982518800,7.412518798828125,0.28369206190109253,-0.11080524325370789,-0.22625330090522766
1761413825992532000,7.422531982421875,0.2738451361656189,-0.11159604042768478,-0.20186640322208405
1761413826002543900,7.4325439453125,0.268867164850235,-0.08354309946298599,-0.16164201498031616
1761413826012557000,7.44255712890625,0.2687695324420929,-0.036339931190013885,-0.11920181661844254
1761413826022570000,7.452570068359375,0.27169129252433777,0.00915245059877634,-0.08274208009243011
1761413826032583000,7.4625830078125,0.2707701623439789,0.04436343535780907,-0.05423615127801895
1761413826042596000,7.47259619140625,0.25981390476226807,0.07406540215015411,-0.03917544335126877
1761413826052609000,7.482609130859375,0.24598175287246704,0.10267454385757446,-0.037997134029865265
1761413826062621200,7.49262109375,0.22298961877822876,0.13155919313430786,-0.05144369974732399
1761413826072633900,7.5026337890625,0.18980026245117188,0.15818819403648376,-0.07208936661481857
1761413826082647000,7.51264697265625,0.1576671004295349,0.1677212417125702,-0.08675086498260498
1761413826092660000,7.522659912109375,0.1211981400847435,0.15805374085903168,-0.09709222614765167
1761413826102673200,7.532673095703125,0.08565719425678253,0.1402318775653839,-0.10140868276357651
1761413826112685800,7.542685791015625,0.037800878286361694,0.1214132159948349,-0.11273036897182465
1761413826122699000,7.552698974609375,-0.0019915406592190266,0.10486806184053421,-0.1358037292957306
1761413826132711000,7.5627109375,-0.020723586902022362,0.06650788336992264,-0.16525238752365112
1761413826142724000,7.57272412109375,-0.03502263128757477,0.04046003893017769,-0.1859257072210312
1761413826152737000,7.582737060546875,-0.04691174253821373,0.039607129991054535,-0.20416343212127686
1761413826162750000,7.59275,-0.04078860208392143,0.04371558874845505,-0.2241232842206955
1761413826172763100,7.60276318359375,-0.0415644645690918,0.046243324875831604,-0.23117944598197937
1761413826182776000,7.612776123046875,-0.03767545148730278,0.05432415381073952,-0.2357691377401352
1761413826192788200,7.622788330078125,-0.024426672607660294,0.05917337164282799,-0.23717038333415985
1761413826202801000,7.63280078125,-0.00842453632503748,0.05808680132031441,-0.2421819120645523
1761413826212814000,7.64281396484375,0.012548327445983887,0.06273861229419708,-0.2558959722518921
1761413826222827000,7.652826904296875,0.038237713277339935,0.04794368892908096,-0.2704959511756897
1761413826232840000,7.66283984375,0.06888832896947861,0.017905429005622864,-0.2765091061592102
1761413826242852900,7.672852783203125,0.09839083254337311,-0.0064904578030109406,-0.25913676619529724
1761413826252865000,7.682864990234375,0.13266928493976593,-0.033565983176231384,-0.2191838175058365
1761413826262878000,7.6928779296875,0.1771714985370636,-0.0691218450665474,-0.1680484563112259
1761413826272891100,7.70289111328125,0.2243943065404892,-0.07628801465034485,-0.11753800511360168
1761413826282903800,7.71290380859375,0.27216795086860657,-0.05974099412560463,-0.08241623640060425
1761413826292917000,7.7229169921875,0.31804466247558594,-0.0442918986082077,-0.07475125044584274
1761413826302930200,7.73293017578125,0.3608105182647705,-0.042495060712099075,-0.1103217676281929
1761413826312943000,7.742943115234375,0.40372955799102783,-0.05236523970961571,-0.16138257086277008
1761413826322955000,7.752955078125,0.440001517534256,-0.04760803282260895,-0.22227494418621063
1761413826332968000,7.762968017578125,0.47768741846084595,-0.008683238178491592,-0.25990280508995056
1761413826342981000,7.772981201171875,0.5203694105148315,0.029025791212916374,-0.28674185276031494
1761413826352994000,7.782994140625,0.5487702488899231,-0.007519769482314587,-0.3232097625732422
1761413826363007000,7.793007080078125,0.5356400609016418,-0.10945145785808563,-0.37740641832351685
1761413826373020000,7.80302001953125,0.48884761333465576,-0.236425518989563,-0.43726831674575806
1761413826383032000,7.813031982421875,0.4375079870223999,-0.3511672914028168,-0.48278361558914185
1761413826393045000,7.823044921875,0.4012977182865143,-0.4288930892944336,-0.5017438530921936
1761413826403058200,7.83305810546875,0.38229820132255554,-0.5016477108001709,-0.48474088311195374
1761413826413070800,7.84307080078125,0.37221041321754456,-0.5463523268699646,-0.418337345123291
1761413826423084000,7.853083984375,0.3973277509212494,-0.5286551117897034,-0.2967754900455475
1761413826433097200,7.86309716796875,0.4501662850379944,-0.4499245584011078,-0.15371081233024597
1761413826443109000,7.873109130859375,0.5121161937713623,-0.34125107526779175,-0.024455629289150238
1761413826453121800,7.883121826171875,0.5795649886131287,-0.25561901926994324,0.06495469063520432
1761413826463135000,7.893135009765625,0.6315852999687195,-0.18728655576705933,0.10651944577693939
1761413826473148200,7.903148193359375,0.6719364523887634,-0.1404026746749878,0.11399919539690018
1761413826483161000,7.9131611328125,0.6954535245895386,-0.09855590015649796,0.11583997309207916
1761413826493174000,7.923174072265625,0.7034756541252136,-0.05780025199055672,0.14274540543556213
1761413826503187000,7.93318701171875,0.6983807682991028,-0.01364477351307869,0.19730371236801147
1761413826513199000,7.94319921875,0.6932070851325989,0.029451830312609673,0.2691464424133301
1761413826523212000,7.9532119140625,0.695508599281311,0.06933533400297165,0.32854533195495605
1761413826533225000,7.963224853515625,0.7022556066513062,0.09518689662218094,0.3534424901008606
1761413826543238000,7.97323779296875,0.7127425670623779,0.11026065796613693,0.3403676748275757
1761413826553251000,7.9832509765625,0.7187464237213135,0.12339147180318832,0.2963249981403351
1761413826563264000,7.993263916015625,0.7153959274291992,0.09104471653699875,0.22487744688987732
1761413826573276200,8.003276123046875,0.7036763429641724,0.05913342162966728,0.15200084447860718
1761413826583288800,8.013288818359374,0.6875392198562622,0.019907992333173752,0.09021763503551483
1761413826593302000,8.023302001953125,0.6568557024002075,-0.024190092459321022,0.038570526987314224
1761413826603315200,8.033315185546876,0.6173431873321533,-0.07481012493371964,0.01036099623888731
1761413826613328000,8.043327880859374,0.566389799118042,-0.11571042239665985,0.009109027683734894
1761413826623341000,8.053341064453125,0.5179844498634338,-0.11149889975786209,0.022957464680075645
1761413826633353000,8.06335302734375,0.49458789825439453,-0.07578793913125992,0.04257795959711075
1761413826643366100,8.0733662109375,0.4997912049293518,-0.026650220155715942,0.05162391811609268
1761413826653379000,8.083379150390625,0.5306827425956726,0.019670937210321426,0.03610675781965256
1761413826663392000,8.09339208984375,0.5748975872993469,0.09525357186794281,0.013421151787042618
1761413826673405000,8.103405029296875,0.6204853057861328,0.14442548155784607,-0.022516455501317978
1761413826683418000,8.113418212890625,0.6678333878517151,0.15691331028938293,-0.06639683246612549
1761413826693430800,8.1234306640625,0.7082314491271973,0.16041624546051025,-0.10798613727092743
1761413826703443000,8.13344287109375,0.7403550744056702,0.11629138886928558,-0.13783672451972961
1761413826713455900,8.143455810546875,0.7627979516983032,0.06380930542945862,-0.14661507308483124
1761413826723469000,8.153468994140624,0.7800618410110474,-0.0033883745782077312,-0.12314169853925705
1761413826733482200,8.163482177734375,0.7960239052772522,-0.03478514403104782,-0.070803701877594
1761413826743495000,8.173494873046875,0.8185627460479736,-0.05228105187416077,-0.01854742132127285
1761413826753508000,8.183508056640624,0.848707377910614,-0.08162149041891098,0.02291172929108143
1761413826763520000,8.19352001953125,0.8788343667984009,-0.11416345834732056,0.03737802058458328
1761413826773533200,8.203533203125,0.906456708908081,-0.1282787173986435,0.027383683249354362
1761413826783545900,8.2135458984375,0.9408711194992065,-0.12541048228740692,0.003100980306044221
1761413826793559000,8.22355908203125,0.9674837589263916,-0.11601884663105011,-0.024785762652754784
1761413826803572000,8.233572021484376,0.9864431023597717,-0.09591704607009888,-0.055910129100084305
1761413826813585200,8.243585205078125,0.9994917511940002,-0.06635046005249023,-0.06599859893321991
1761413826823597000,8.25359716796875,1.0061681270599365,-0.020756080746650696,-0.08172377198934555
1761413826833610000,8.26360986328125,1.0056235790252686,-0.006377006880939007,-0.10868816077709198
1761413826843623000,8.273622802734375,1.0103474855422974,0.008566789329051971,-0.14541767537593842
1761413826853636000,8.283635986328125,1.0092182159423828,0.025323230773210526,-0.1739082634449005
1761413826863648800,8.293648681640626,1.0067894458770752,0.0499739833176136,-0.19658879935741425
1761413826873662000,8.303661865234375,1.00442636013031,0.05359501764178276,-0.22837090492248535
1761413826883673900,8.313673828125,1.012339472770691,0.04346275329589844,-0.255446195602417
1761413826893687600,8.3236875,1.0264657735824585,0.05944611877202988,-0.27477821707725525
1761413826903700200,8.3337001953125,1.0400310754776,0.0744791254401207,-0.3036381006240845
1761413826913713400,8.34371337890625,1.0572785139083862,0.06345992535352707,-0.33828890323638916
1761413826923726600,8.3537265625,1.0757865905761719,0.04814409092068672,-0.37432199716567993
1761413826933739500,8.363739501953125,1.0929464101791382,0.04775283858180046,-0.3912399709224701
1761413826943752400,8.37375244140625,1.1077290773391724,0.04015404358506203,-0.4045669436454773
1761413826953764400,8.383764404296874,1.1239951848983765,0.019357185810804367,-0.3988678455352783
1761413826963777500,8.393777587890625,1.139419436454773,-0.004090883769094944,-0.386295348405838
1761413826973790500,8.40379052734375,1.157865285873413,-0.038379646837711334,-0.3512595295906067
1761413826983803400,8.413803466796875,1.1820030212402344,-0.06123889237642288,-0.30027198791503906
1761413826993816300,8.42381640625,1.214421272277832,-0.07805625349283218,-0.24188856780529022
1761413827003829500,8.43382958984375,1.244760513305664,-0.081656314432621,-0.1876745969057083
1761413827013841400,8.44384130859375,1.2817813158035278,-0.07445716112852097,-0.13471055030822754
1761413827023854600,8.4538544921875,1.3222852945327759,-0.029137080535292625,-0.09102193266153336
1761413827033867300,8.4638671875,1.3567748069763184,0.019034244120121002,-0.05576013773679733
1761413827043880400,8.47388037109375,1.3816899061203003,0.05589132755994797,-0.02444455772638321
1761413827053893600,8.4838935546875,1.3967819213867188,0.06920906156301498,-0.0011795030441135168
1761413827063906300,8.49390625,1.399101972579956,0.06900320202112198,0.018597664311528206
1761413827073918500,8.50391845703125,1.3956794738769531,0.056446827948093414,0.04720969870686531
1761413827083931400,8.513931396484375,1.3792001008987427,0.03332766145467758,0.07468180358409882
1761413827093944600,8.523944580078124,1.3611916303634644,0.013678526505827904,0.11159167438745499
1761413827103957500,8.53395751953125,1.340693473815918,-0.008164986968040466,0.14995211362838745
1761413827113970400,8.543970458984376,1.321441888809204,-0.03213603422045708,0.1890115886926651
1761413827123983400,8.5539833984375,1.3004796504974365,-0.04821167513728142,0.213506817817688
1761413827133996500,8.56399658203125,1.2719550132751465,-0.062218837440013885,0.23041042685508728
1761413827144008400,8.574008544921876,1.2433407306671143,-0.07180381566286087,0.2451464980840683
1761413827154021400,8.584021484375,1.2120105028152466,-0.08278273791074753,0.26096513867378235
1761413827164034300,8.594034423828125,1.1744271516799927,-0.10401611775159836,0.2794938385486603
1761413827174047500,8.604047607421874,1.1362438201904297,-0.1331753432750702,0.30942511558532715
1761413827184060700,8.614060791015625,1.1048648357391357,-0.15193331241607666,0.34573838114738464
1761413827194073300,8.6240732421875,1.0784209966659546,-0.16204971075057983,0.3983306288719177
1761413827204085200,8.634085205078126,1.0614808797836304,-0.1568610966205597,0.4545976221561432
1761413827214098400,8.644098388671875,1.056729793548584,-0.1234966367483139,0.5192060470581055
1761413827224111600,8.654111572265625,1.0758148431777954,-0.07212958484888077,0.5806217789649963
1761413827234124500,8.66412451171875,1.0936248302459717,-0.043876975774765015,0.6155217289924622
1761413827244137500,8.674137451171875,1.1094770431518555,-0.047611527144908905,0.617176353931427
1761413827254150400,8.684150390625,1.1090315580368042,-0.04825887829065323,0.5956488847732544
1761413827264162600,8.69416259765625,1.1105562448501587,-0.010846789926290512,0.5585315823554993
1761413827274175500,8.704175537109375,1.1126501560211182,0.05123765394091606,0.524101197719574
1761413827284188400,8.7141884765625,1.1036760807037354,0.1363794505596161,0.489844411611557
1761413827294201300,8.724201416015624,1.083811640739441,0.2296317219734192,0.4454866945743561
1761413827304214500,8.734214599609375,1.0549424886703491,0.3210407495498657,0.39390501379966736
1761413827314227500,8.7442275390625,1.0272098779678345,0.3907087445259094,0.33687397837638855
1761413827324239600,8.754239501953125,1.0031975507736206,0.4335677921772003,0.27879655361175537
1761413827334252300,8.764252197265625,0.9810665845870972,0.45584020018577576,0.2342233657836914
1761413827344265500,8.774265380859376,0.9711665511131287,0.45459356904029846,0.20865967869758606
1761413827354278700,8.784278564453125,0.9788676500320435,0.44603976607322693,0.2082306444644928
1761413827364291300,8.794291259765625,0.9987288117408752,0.45225369930267334,0.24060486257076263
1761413827374304500,8.804304443359374,1.0235092639923096,0.469933420419693,0.2965092957019806
1761413827384316400,8.81431640625,1.0612809658050537,0.49859410524368286,0.361257404088974
1761413827394329600,8.82432958984375,1.100690484046936,0.5205631852149963,0.4112914502620697
1761413827404342500,8.834342529296874,1.139747142791748,0.5356393456459045,0.4374777674674988
1761413827414355500,8.84435546875,1.166729211807251,0.5232656598091125,0.4386384189128876
1761413827424368400,8.854368408203126,1.1887894868850708,0.502097487449646,0.4335869550704956
1761413827434381600,8.864381591796874,1.1965057849884033,0.4731014370918274,0.42883870005607605
1761413827444394200,8.874394287109375,1.2059115171432495,0.435881644487381,0.4317849576473236
1761413827454406400,8.884406494140626,1.2236394882202148,0.40427884459495544,0.44453519582748413
1761413827464419300,8.89441943359375,1.2462998628616333,0.3833032548427582,0.47050899267196655
1761413827474432500,8.9044326171875,1.278807520866394,0.36439672112464905,0.49984610080718994
1761413827484445700,8.91444580078125,1.3089547157287598,0.3547099828720093,0.521658718585968
1761413827494458400,8.924458251953125,1.3351616859436035,0.34772518277168274,0.5324527025222778
1761413827504471600,8.934471435546875,1.3534541130065918,0.3464527130126953,0.526692271232605
1761413827514483500,8.9444833984375,1.357674241065979,0.35875844955444336,0.5059868693351746
1761413827524496600,8.95449658203125,1.365377426147461,0.3909997344017029,0.47787484526634216
1761413827534509300,8.96450927734375,1.3777616024017334,0.43049249053001404,0.4546329975128174
1761413827544522500,8.9745224609375,1.3861340284347534,0.4827730059623718,0.4127792716026306
1761413827554535400,8.984535400390625,1.3923639059066772,0.4947904348373413,0.34387245774269104
1761413827564548600,8.994548583984376,1.3895151615142822,0.4703543186187744,0.2581857740879059
1761413827574560500,9.004560546875,1.3758139610290527,0.4234505891799927,0.16755402088165283
1761413827584573400,9.014573486328125,1.3602772951126099,0.39382612705230713,0.0729481428861618
1761413827594586400,9.02458642578125,1.3419135808944702,0.3703548312187195,-0.02399563044309616
1761413827604599600,9.034599609375,1.3298611640930176,0.3502469062805176,-0.09978386759757996
1761413827614612500,9.044612548828125,1.317960262298584,0.3162039816379547,-0.1509525030851364
1761413827624625400,9.05462548828125,1.307666301727295,0.2849608361721039,-0.18086326122283936
1761413827634637300,9.06463720703125,1.2971773147583008,0.26022467017173767,-0.1998080015182495
1761413827644650500,9.074650390625,1.3032679557800293,0.2510804235935211,-0.2225889414548874
1761413827654663700,9.08466357421875,1.3168017864227295,0.24767331779003143,-0.24925053119659424
1761413827664676400,9.09467626953125,1.3356518745422363,0.25069600343704224,-0.2801794111728668
1761413827674689500,9.104689453125,1.3424230813980103,0.26015517115592957,-0.30809056758880615
1761413827684702500,9.114702392578126,1.3382669687271118,0.2769661247730255,-0.3371126353740692
1761413827694714600,9.124714599609375,1.3363381624221802,0.2912741005420685,-0.3713538944721222
1761413827704727300,9.134727294921875,1.3392980098724365,0.2912943661212921,-0.3935902416706085
1761413827714740500,9.144740478515626,1.337210774421692,0.2882606089115143,-0.41087186336517334
1761413827724753400,9.15475341796875,1.3393893241882324,0.28329089283943176,-0.4149201214313507
1761413827734766600,9.1647666015625,1.3421698808670044,0.2754106819629669,-0.4192611575126648
1761413827744779300,9.174779296875,1.3590413331985474,0.25228220224380493,-0.4125473201274872
1761413827754792400,9.18479248046875,1.3555026054382324,0.22396068274974823,-0.3874509036540985
1761413827764804400,9.194804443359375,1.3388017416000366,0.1983024626970291,-0.36435145139694214
1761413827774817500,9.204817626953124,1.3293665647506714,0.18410471081733704,-0.35343340039253235
1761413827784830500,9.21483056640625,1.3276357650756836,0.17258015275001526,-0.35349276661872864
1761413827794843400,9.224843505859376,1.3177804946899414,0.1666088104248047,-0.36869651079177856
1761413827804856600,9.234856689453125,1.3115553855895996,0.17016252875328064,-0.39459654688835144
1761413827814869500,9.244869384765625,1.3095189332962036,0.1672828197479248,-0.43412259221076965
1761413827824881700,9.254881591796876,1.3070955276489258,0.1519685834646225,-0.47705915570259094
1761413827834894300,9.264894287109374,1.2988883256912231,0.13586784899234772,-0.49901682138442993
1761413827844907500,9.274907470703125,1.2856215238571167,0.1153617799282074,-0.5118823051452637
1761413827854920400,9.28492041015625,1.2632529735565186,0.10737026482820511,-0.495916485786438
1761413827864933400,9.294933349609375,1.2452303171157837,0.11280577629804611,-0.46130630373954773
1761413827874946300,9.3049462890625,1.2322224378585815,0.13612733781337738,-0.40806707739830017
1761413827884958500,9.31495849609375,1.2181918621063232,0.15924996137619019,-0.3383178114891052
1761413827894971100,9.32497119140625,1.2005404233932495,0.1885892152786255,-0.26245740056037903
1761413827904984300,9.334984375,1.1960077285766602,0.20349252223968506,-0.20182043313980103
1761413827914997000,9.3449970703125,1.2020410299301147,0.1999136507511139,-0.17102667689323425
1761413827925010200,9.35501025390625,1.2140417098999023,0.19163307547569275,-0.15996870398521423
1761413827935023400,9.3650234375,1.2189104557037354,0.17535480856895447,-0.16162791848182678
1761413827945035300,9.37503515625,1.2177581787109375,0.15606287121772766,-0.1670040339231491
1761413827955048400,9.38504833984375,1.2152642011642456,0.1384546458721161,-0.15570643544197083
1761413827965061000,9.39506103515625,1.2064027786254883,0.13459812104701996,-0.13517186045646667
1761413827975074300,9.40507421875,1.1974602937698364,0.12089625746011734,-0.10083688050508499
1761413827985087200,9.415087158203125,1.182390570640564,0.09976913779973984,-0.053325023502111435
1761413827995100200,9.42510009765625,1.1757367849349976,0.09563717991113663,-0.010554601438343525
1761413828005112000,9.435112060546874,1.1787967681884766,0.11853024363517761,0.0283131692558527
1761413828015125200,9.445125244140625,1.1892762184143066,0.16046300530433655,0.05588626489043236
1761413828025138200,9.45513818359375,1.2012063264846802,0.2019108384847641,0.06889074295759201
1761413828035151400,9.4651513671875,1.2102340459823608,0.24146071076393127,0.062150999903678894
1761413828045164000,9.4751640625,1.218582272529602,0.281223326921463,0.05074441432952881
1761413828055177200,9.48517724609375,1.2169086933135986,0.29348182678222656,0.05032020062208176
1761413828065189000,9.495189208984375,1.207564115524292,0.2761633098125458,0.061511069536209106
1761413828075202300,9.505202392578125,1.2019990682601929,0.24886763095855713,0.08452489972114563
1761413828085215200,9.51521533203125,1.1938204765319824,0.2360762059688568,0.12293514609336853
1761413828095228200,9.525228271484375,1.1846354007720947,0.1894693374633789,0.16558107733726501
1761413828105241300,9.535241455078125,1.1854945421218872,0.1586506962776184,0.2075844556093216
1761413828115254300,9.545254150390624,1.19084894657135,0.18251770734786987,0.24172565340995789
1761413828125266400,9.555266357421875,1.200495719909668,0.23033343255519867,0.27338850498199463
1761413828135279000,9.565279052734375,1.2272703647613525,0.3408772349357605,0.2930615544319153
1761413828145292300,9.575292236328124,1.27252995967865,0.432745099067688,0.2658909261226654
1761413828155305200,9.58530517578125,1.2976796627044678,0.4276222586631775,0.1874016672372818
1761413828165318100,9.595318115234376,1.2675286531448364,0.3571872413158417,0.07526741921901703
1761413828175331000,9.6053310546875,1.224245548248291,0.2626461386680603,-0.03737742453813553
1761413828185343200,9.61534326171875,1.1847615242004395,0.12197264283895493,-0.13391967117786407
1761413828195356200,9.625356201171876,1.1348052024841309,-0.06529126316308975,-0.20750465989112854
