time,seconds_elapsed,z,y,x
1761413900232661200,0.0746611328125,-0.056138087064027786,0.14964543282985687,-0.4075115919113159
1761413900242674200,0.084674072265625,-0.06447764486074448,0.17525380849838257,-0.3651684820652008
1761413900252686300,0.094686279296875,-0.06161581352353096,0.18450908362865448,-0.3197437524795532
1761413900262699000,0.104698974609375,-0.05554228648543358,0.17802171409130096,-0.2890043258666992
1761413900272712200,0.114712158203125,-0.044147416949272156,0.16426649689674377,-0.26410776376724243
1761413900282725000,0.12472509765625,-0.04448029026389122,0.14257997274398804,-0.2628810703754425
1761413900292737300,0.1347373046875,-0.05915803462266922,0.09436717629432678,-0.2676452100276947
1761413900302750200,0.144750244140625,-0.08925744891166687,0.03562764823436737,-0.2910853922367096
1761413900312763100,0.15476318359375,-0.1257518082857132,-0.006692643277347088,-0.31289827823638916
1761413900322775000,0.164775146484375,-0.16257894039154053,-0.03897169604897499,-0.33328258991241455
1761413900332788200,0.174788330078125,-0.1944447159767151,-0.057830341160297394,-0.3423892557621002
1761413900342801200,0.18480126953125,-0.21337679028511047,-0.04605633020401001,-0.34198302030563354
1761413900352814000,0.19481396484375,-0.2255096286535263,0.012211503461003304,-0.3532140851020813
1761413900362826000,0.204825927734375,-0.2403920739889145,0.004778282716870308,-0.30278053879737854
1761413900372839200,0.214839111328125,-0.24001683294773102,-0.04912356287240982,-0.2704415023326874
1761413900382852000,0.22485205078125,-0.24164731800556183,-0.07953839004039764,-0.24855107069015503
1761413900392864300,0.2348642578125,-0.23925845324993134,-0.10437529534101486,-0.216796875
1761413900402877200,0.244877197265625,-0.22556325793266296,-0.12100878357887268,-0.18069858849048615
1761413900412890000,0.25489013671875,-0.19889888167381287,-0.12097203731536865,-0.15037156641483307
1761413900422902000,0.264902099609375,-0.1694653183221817,-0.10713276267051697,-0.12043429911136627
1761413900432915200,0.274915283203125,-0.13839954137802124,-0.09231840074062347,-0.09808531403541565
1761413900442928000,0.28492822265625,-0.11364392936229706,-0.0903032198548317,-0.07774176448583603
1761413900452940300,0.294940185546875,-0.10541369765996933,-0.0934755802154541,-0.06352367997169495
1761413900462953200,0.304953125,-0.09825635701417923,-0.09373065829277039,-0.053159695118665695
1761413900472966100,0.314966064453125,-0.11366540938615799,-0.08747409284114838,-0.037157293409109116
1761413900482979000,0.32497900390625,-0.14816422760486603,-0.07397104799747467,-0.015004895627498627
1761413900492991200,0.3349912109375,-0.19682657718658447,-0.06755363196134567,0.006253520958125591
1761413900503004200,0.345004150390625,-0.22239716351032257,-0.05380252003669739,0.016592897474765778
1761413900513017000,0.35501708984375,-0.21071147918701172,-0.04060682654380798,0.018127677962183952
1761413900523029000,0.365029052734375,-0.15316689014434814,-0.028696585446596146,0.008407695218920708
1761413900533042200,0.375042236328125,-0.07530776411294937,-0.030938703566789627,-0.009954534471035004
1761413900543055000,0.38505517578125,-0.012194276787340641,-0.053150516003370285,-0.040379591286182404
1761413900553067300,0.3950673828125,0.0141079006716609,-0.10987265408039093,-0.0758206769824028
1761413900563080200,0.405080078125,0.011593116447329521,-0.1613456904888153,-0.10949893295764923
1761413900573093000,0.415093017578125,-0.00029017377528361976,-0.170671284198761,-0.12732639908790588
1761413900583106000,0.42510595703125,0.005093751009553671,-0.12649671733379364,-0.12262635678052902
1761413900593118200,0.4351181640625,0.025401419028639793,-0.03936208784580231,-0.10476186871528625
1761413900603131100,0.445131103515625,0.06355013698339462,0.06355736404657364,-0.0796077772974968
1761413900613144000,0.45514404296875,0.10884837806224823,0.12072744965553284,-0.05874563753604889
1761413900623156000,0.465156005859375,0.14792874455451965,0.11826939880847931,-0.054701875895261765
1761413900633169200,0.475169189453125,0.16868169605731964,0.0801750123500824,-0.05988917872309685
1761413900643182000,0.48518212890625,0.17797447741031647,0.023515045642852783,-0.07187765836715698
1761413900653194200,0.4951943359375,0.18355007469654083,-0.025155020877718925,-0.07457038760185242
1761413900663207200,0.505207275390625,0.19464384019374847,-0.07165376842021942,-0.07242266833782196
1761413900673220000,0.51522021484375,0.2055276483297348,-0.11112980544567108,-0.05887383595108986
1761413900683233300,0.5252333984375,0.21554149687290192,-0.14343445003032684,-0.04937020689249039
1761413900693245200,0.5352451171875,0.21429699659347534,-0.16418713331222534,-0.05173482745885849
1761413900703258000,0.545258056640625,0.206827312707901,-0.18793535232543945,-0.06591261178255081
1761413900713271000,0.55527099609375,0.1925908476114273,-0.20745766162872314,-0.08363381773233414
1761413900723283000,0.565282958984375,0.17909958958625793,-0.2066146284341812,-0.10824090242385864
1761413900733296000,0.575296142578125,0.16046492755413055,-0.19303090870380402,-0.1261940598487854
1761413900743309300,0.585309326171875,0.1380673050880432,-0.1737849861383438,-0.14386305212974548
1761413900753321200,0.5953212890625,0.1161542683839798,-0.15143147110939026,-0.16345006227493286
1761413900763334100,0.605334228515625,0.09972157329320908,-0.12919098138809204,-0.17735885083675385
1761413900773347000,0.61534716796875,0.09331933408975601,-0.10776317864656448,-0.1854252964258194
1761413900783360300,0.6253603515625,0.09365403652191162,-0.08147621899843216,-0.1796397715806961
1761413900793372200,0.6353720703125,0.10604066401720047,-0.04409981518983841,-0.1657007783651352
1761413900803385300,0.64538525390625,0.12049702554941177,0.00030422909185290337,-0.14076091349124908
1761413900813398000,0.65539794921875,0.14232295751571655,0.0417611263692379,-0.10862775146961212
1761413900823410200,0.66541015625,0.16768531501293182,0.060794733464717865,-0.07499042898416519
1761413900833423000,0.675423095703125,0.19146095216274261,0.05559491366147995,-0.03851230815052986
1761413900843436300,0.685436279296875,0.19699545204639435,0.035708650946617126,-0.0010681023122742772
1761413900853448200,0.6954482421875,0.18430575728416443,-0.0050915079191327095,0.03418469429016113
1761413900863461400,0.70546142578125,0.14632204174995422,-0.05103936046361923,0.06654824316501617
1761413900873474000,0.71547412109375,0.10260677337646484,-0.07178059220314026,0.10002844035625458
1761413900883487200,0.7254873046875,0.04991255700588226,-0.07118156552314758,0.13656295835971832
1761413900893499100,0.7354990234375,0.005060130730271339,-0.0350632406771183,0.17851173877716064
1761413900903512300,0.74551220703125,-0.02323748916387558,0.024894393980503082,0.21344727277755737
1761413900913525000,0.75552490234375,-0.031452540308237076,0.09894278645515442,0.25303754210472107
1761413900923537200,0.765537109375,-0.022085657343268394,0.14068184792995453,0.27610310912132263
1761413900933550000,0.775550048828125,-0.006479800678789616,0.14924578368663788,0.28521299362182617
1761413900943563300,0.785563232421875,0.007541099097579718,0.11103669553995132,0.281288743019104
1761413900953576200,0.795576171875,0.00796161312609911,0.04751524329185486,0.2697761654853821
1761413900963588400,0.80558837890625,-0.01421026885509491,-0.014024017378687859,0.2564702332019806
1761413900973601300,0.815601318359375,-0.05614466965198517,-0.061893004924058914,0.23285464942455292
1761413900983614200,0.8256142578125,-0.11931918561458588,-0.08099177479743958,0.2065712809562683
1761413900993626400,0.83562646484375,-0.18920454382896423,-0.08827152103185654,0.1702103316783905
1761413901003639300,0.845639404296875,-0.26277169585227966,-0.08348596841096878,0.1337996870279312
1761413901013652200,0.85565234375,-0.33393216133117676,-0.07660622149705887,0.1048005148768425
1761413901023664000,0.8656640625,-0.4007355868816376,-0.0722913071513176,0.08459802716970444
1761413901033677300,0.87567724609375,-0.4521108865737915,-0.06559371948242188,0.08074656128883362
1761413901043690200,0.885690185546875,-0.48053178191185,-0.04324217140674591,0.09733682870864868
1761413901053703400,0.895703369140625,-0.4765428900718689,0.011968357488512993,0.12890566885471344
1761413901063715300,0.90571533203125,-0.43686413764953613,0.1020270511507988,0.18516425788402557
1761413901073728300,0.915728271484375,-0.35000699758529663,0.1810704618692398,0.24494342505931854
1761413901083741200,0.9257412109375,-0.24609972536563873,0.15442197024822235,0.279145747423172
1761413901093753300,0.93575341796875,-0.17175093293190002,0.045243822038173676,0.28467047214508057
1761413901103766300,0.945766357421875,-0.14419794082641602,-0.05065852776169777,0.2801843583583832
1761413901113779200,0.955779296875,-0.14460968971252441,-0.10346981137990952,0.2783728539943695
1761413901123791000,0.965791015625,-0.16284437477588654,-0.11559492349624634,0.2812533974647522
1761413901133804300,0.97580419921875,-0.17919139564037323,-0.11674487590789795,0.28556451201438904
1761413901143817200,0.985817138671875,-0.20453451573848724,-0.12467695027589798,0.29740962386131287
1761413901153830400,0.995830322265625,-0.23413874208927155,-0.11957646906375885,0.30720311403274536
1761413901163842300,1.00584228515625,-0.2577022910118103,-0.13058871030807495,0.32442185282707214
1761413901173855200,1.015855224609375,-0.26102590560913086,-0.18034933507442474,0.34541529417037964
1761413901183868200,1.0258681640625,-0.26892387866973877,-0.24849927425384521,0.3511340320110321
1761413901193880300,1.03588037109375,-0.27434977889060974,-0.3158892095088959,0.3554629981517792
1761413901203893200,1.045893310546875,-0.2708543837070465,-0.3402059078216553,0.3587220013141632
1761413901213906200,1.05590625,-0.2576903998851776,-0.3003373444080353,0.3708047568798065
1761413901223918000,1.06591796875,-0.2308056801557541,-0.20993240177631378,0.38607218861579895
1761413901233931300,1.07593115234375,-0.1917501538991928,-0.09464628994464874,0.4016604721546173
1761413901243944200,1.085944091796875,-0.1421862095594406,-0.021078942343592644,0.4090731739997864
1761413901253957400,1.095957275390625,-0.09810423851013184,-0.009909112006425858,0.40125733613967896
1761413901263969300,1.10596923828125,-0.0808602124452591,-0.02612905390560627,0.38377293944358826
1761413901273982200,1.115982177734375,-0.10116894543170929,-0.04961201176047325,0.3617139756679535
1761413901283995400,1.125995361328125,-0.14769956469535828,-0.05872168391942978,0.3362387418746948
1761413901294007300,1.13600732421875,-0.19892387092113495,-0.041555747389793396,0.31587886810302734
1761413901304020200,1.146020263671875,-0.24359236657619476,0.003425267059355974,0.2912695109844208
1761413901314033200,1.156033203125,-0.26558738946914673,0.041087690740823746,0.2651228606700897
1761413901324045000,1.166045166015625,-0.2667749226093292,0.0507831797003746,0.23754435777664185
1761413901334058200,1.176058349609375,-0.26511281728744507,0.02802007831633091,0.200363427400589
1761413901344071400,1.186071533203125,-0.26724427938461304,-0.03139083459973335,0.14697416126728058
1761413901354083300,1.196083251953125,-0.28953519463539124,-0.09880715608596802,0.0817650556564331
1761413901364096300,1.20609619140625,-0.32249853014945984,-0.1520761400461197,0.005662154406309128
1761413901374109200,1.216109130859375,-0.3542484641075134,-0.1716434508562088,-0.07646653801202774
1761413901384122400,1.226122314453125,-0.3674388527870178,-0.15849317610263824,-0.1475352942943573
1761413901394134300,1.23613427734375,-0.35894230008125305,-0.10670560598373413,-0.1999439150094986
1761413901404147500,1.2461474609375,-0.3356335163116455,-0.03490648791193962,-0.24044010043144226
1761413901414160100,1.25616015625,-0.2970150113105774,0.03417351096868515,-0.2723676860332489
1761413901424172300,1.26617236328125,-0.2500356435775757,0.08440771698951721,-0.3009170591831207
1761413901434185200,1.276185302734375,-0.20033572614192963,0.1290132701396942,-0.33022940158843994
1761413901444198400,1.286198486328125,-0.15813800692558289,0.16839857399463654,-0.34722036123275757
1761413901454210300,1.296210205078125,-0.1267143040895462,0.21039129793643951,-0.3574428856372833
1761413901464223500,1.306223388671875,-0.10488288104534149,0.24300752580165863,-0.35807156562805176
1761413901474236200,1.316236083984375,-0.08722478896379471,0.2634204030036926,-0.34726977348327637
1761413901484249300,1.326249267578125,-0.07308665663003922,0.272115021944046,-0.3156578242778778
1761413901494261200,1.33626123046875,-0.06237063556909561,0.2780325710773468,-0.2672423720359802
1761413901504274400,1.3462744140625,-0.05027021840214729,0.27747800946235657,-0.20255354046821594
1761413901514287400,1.356287353515625,-0.028089815750718117,0.2697724401950836,-0.12410002201795578
1761413901524299300,1.36629931640625,-0.009159957058727741,0.27318039536476135,-0.036138150840997696
1761413901534312200,1.376312255859375,0.007075472269207239,0.26653021574020386,0.0482662133872509
1761413901544325400,1.386325439453125,0.01485851127654314,0.24998490512371063,0.11137834191322327
1761413901554337300,1.396337158203125,0.00480427872389555,0.21478484570980072,0.15168209373950958
1761413901564350500,1.4063505859375,-0.020820580422878265,0.15293097496032715,0.15502126514911652
1761413901574363100,1.416363037109375,-0.059197794646024704,0.062346212565898895,0.13508430123329163
1761413901584376300,1.426376220703125,-0.09203039109706879,-0.027731385082006454,0.10182958096265793
1761413901594388200,1.43638818359375,-0.12160079926252365,-0.0952070951461792,0.07928459346294403
1761413901604401400,1.4464013671875,-0.15966984629631042,-0.13821899890899658,0.05864318460226059
1761413901614414300,1.456414306640625,-0.2065121829509735,-0.15195000171661377,0.040923308581113815
1761413901624426200,1.46642626953125,-0.2598161995410919,-0.1418338567018509,0.02652447298169136
1761413901634439200,1.476439208984375,-0.30424728989601135,-0.12373021990060806,0.013603082858026028
1761413901644452400,1.486452392578125,-0.33291196823120117,-0.1074128970503807,-0.0012129175011068583
1761413901654464300,1.49646435546875,-0.3439614176750183,-0.0818295031785965,-0.005205795168876648
1761413901664477400,1.5064775390625,-0.34182247519493103,-0.04795922338962555,-0.001128477044403553
1761413901674490000,1.516489990234375,-0.3266153037548065,-0.015674255788326263,0.005848738364875317
1761413901684502300,1.526502197265625,-0.3028532564640045,0.0034344568848609924,0.01780739799141884
1761413901694515200,1.53651513671875,-0.26969945430755615,0.0099285077303648,0.039316434413194656
1761413901704528400,1.5465283203125,-0.234481543302536,0.006887164898216724,0.05832532420754433
1761413901714541300,1.556541259765625,-0.20634658634662628,0.0026652556844055653,0.08118536323308945
1761413901724553500,1.566553466796875,-0.18441016972064972,-0.022105617448687553,0.10453040897846222
1761413901734566100,1.576566162109375,-0.1812223643064499,-0.06364693492650986,0.12487403303384781
1761413901744579300,1.586579345703125,-0.18382278084754944,-0.10316923260688782,0.14575769007205963
1761413901754591200,1.59659130859375,-0.1902545839548111,-0.13643291592597961,0.1627446562051773
1761413901764604400,1.6066044921875,-0.19644153118133545,-0.15582548081874847,0.17702732980251312
1761413901774617000,1.6166171875,-0.20057742297649384,-0.1682022511959076,0.17846304178237915
1761413901784629200,1.626629150390625,-0.2029654085636139,-0.16969037055969238,0.1729431301355362
1761413901794642200,1.63664208984375,-0.20078906416893005,-0.1434372067451477,0.16685780882835388
1761413901804655400,1.6466552734375,-0.1897902935743332,-0.080296091735363,0.16208501160144806
1761413901814668300,1.656668212890625,-0.1702602654695511,0.0017481809481978416,0.16292789578437805
1761413901824680400,1.666680419921875,-0.12911468744277954,0.10951750725507736,0.16130802035331726
1761413901834693000,1.676693115234375,-0.06391838937997818,0.2162887006998062,0.1627245545387268
1761413901844706300,1.686706298828125,0.016761764883995056,0.19662880897521973,0.14269743859767914
1761413901854718200,1.69671826171875,0.05903225764632225,0.07415802776813507,0.07716423273086548
1761413901864731400,1.7067314453125,0.048537567257881165,-0.03857062757015228,0.0031982397194951773
1761413901874744000,1.716744140625,0.0018054817337542772,-0.1436869204044342,-0.07334526628255844
1761413901884756200,1.726756103515625,-0.05598459392786026,-0.27498435974121094,-0.13747623562812805
1761413901894769200,1.73676904296875,-0.13126523792743683,-0.3953472673892975,-0.18135927617549896
1761413901904782300,1.7467822265625,-0.21230687201023102,-0.45477160811424255,-0.1928509622812271
1761413901914794200,1.756794189453125,-0.2788526117801666,-0.45508480072021484,-0.1629095822572708
1761413901924807400,1.766807373046875,-0.3139752447605133,-0.4063374102115631,-0.0958174616098404
1761413901934820000,1.776820068359375,-0.3115469813346863,-0.31890183687210083,0.003383692353963852
1761413901944833300,1.786833251953125,-0.28513363003730774,-0.2019977867603302,0.11665377020835876
1761413901954845200,1.79684521484375,-0.24607305228710175,-0.06523141264915466,0.22571101784706116
1761413901964859000,1.80685888671875,-0.1782110631465912,0.057511210441589355,0.3200935125350952
1761413901974871800,1.816871826171875,-0.09403067082166672,0.14446447789669037,0.3850187063217163
1761413901984883700,1.8268837890625,-0.005855349823832512,0.20712661743164062,0.42861348390579224
1761413901994897000,1.83689697265625,0.06695067882537842,0.23810237646102905,0.45271775126457214
1761413902004909800,1.846909912109375,0.12166114151477814,0.23374110460281372,0.45770782232284546
1761413902014922000,1.856921875,0.15299482643604279,0.20005103945732117,0.446268230676651
1761413902024934700,1.8669345703125,0.16928578913211823,0.14543062448501587,0.4220842123031616
1761413902034947800,1.87694775390625,0.1798364371061325,0.08910743147134781,0.39178597927093506
1761413902044960800,1.886960693359375,0.17718510329723358,0.037333086133003235,0.35556209087371826
1761413902054973000,1.896972900390625,0.1607174426317215,-0.009349730797111988,0.318373441696167
1761413902064985900,1.90698583984375,0.12628960609436035,-0.05198244750499725,0.2772485315799713
1761413902074998800,1.916998779296875,0.07943182438611984,-0.0783621221780777,0.22078870236873627
1761413902085010700,1.9270107421875,0.028781984001398087,-0.09058921039104462,0.16531196236610413
1761413902095023900,1.93702392578125,-0.011522827669978142,-0.09299404174089432,0.10589338093996048
1761413902105036800,1.947036865234375,-0.03257772698998451,-0.09359150379896164,0.0465666688978672
1761413902115049000,1.957049072265625,-0.0349079929292202,-0.08746197819709778,0.0036943024024367332
1761413902125061600,1.9670615234375,-0.025509871542453766,-0.06901367008686066,-0.022009173408150673
1761413902135074800,1.97707470703125,-0.004204584285616875,-0.029652949422597885,-0.031887371093034744
1761413902145086700,1.987086669921875,0.029254699125885963,0.02136075310409069,-0.03263375535607338
1761413902155100000,1.997099853515625,0.06487581133842468,0.06788884103298187,-0.034777335822582245
1761413902165112800,2.00711279296875,0.10518559068441391,0.1005639061331749,-0.04198440536856651
1761413902175125800,2.017125732421875,0.13447076082229614,0.11820654571056366,-0.06776327639818192
1761413902185137700,2.0271376953125,0.1480962485074997,0.12326786667108536,-0.0872359573841095
1761413902195150800,2.03715087890625,0.14430522918701172,0.12218209356069565,-0.10838944464921951
1761413902205163800,2.047163818359375,0.12948068976402283,0.11064007133245468,-0.12169059365987778
1761413902215176000,2.057176025390625,0.11307215690612793,0.09267865121364594,-0.1376197636127472
1761413902225188600,2.067188720703125,0.10700824856758118,0.06780331581830978,-0.15226735174655914
1761413902235201800,2.077201904296875,0.10794355720281601,0.046987246721982956,-0.16505132615566254
1761413902245213700,2.087213623046875,0.11324379593133926,0.015571147203445435,-0.17997363209724426
1761413902255227000,2.097226806640625,0.11169303953647614,-0.0056710257194936275,-0.19573155045509338
1761413902265239800,2.10723974609375,0.1142115667462349,-0.006139621138572693,-0.20320217311382294
1761413902275252000,2.117251953125,0.11942284554243088,0.004131658468395472,-0.21020175516605377
1761413902285264600,2.1272646484375,0.12332857400178909,0.02124616876244545,-0.2184031456708908
1761413902295277800,2.13727783203125,0.12215998023748398,0.042272891849279404,-0.22327938675880432
1761413902305291000,2.147291015625,0.11875169724225998,0.07522659003734589,-0.2224690318107605
1761413902315303000,2.157302978515625,0.11924145370721817,0.10577677935361862,-0.21354371309280396
1761413902325315800,2.16731591796875,0.12130614370107651,0.1352699249982834,-0.19878241419792175
1761413902335328800,2.177328857421875,0.13218648731708527,0.14551936089992523,-0.17881935834884644
1761413902345340700,2.187340576171875,0.13782157003879547,0.1396346241235733,-0.15792523324489594
1761413902355353900,2.197353759765625,0.1401049643754959,0.12015067040920258,-0.13516266644001007
1761413902365367000,2.207366943359375,0.1356486678123474,0.09867879003286362,-0.11337127536535263
1761413902375379000,2.21737890625,0.12942327558994293,0.07242880761623383,-0.10183632373809814
1761413902385391600,2.2273916015625,0.12109127640724182,0.04690639674663544,-0.105154849588871
1761413902395404800,2.23740478515625,0.1150328516960144,0.014475217089056969,-0.11594118177890778
1761413902405416700,2.247416748046875,0.10846926271915436,-0.01063423790037632,-0.12616011500358582
1761413902415430000,2.257429931640625,0.10002091526985168,-0.024570560082793236,-0.1313926875591278
1761413902425442800,2.26744287109375,0.0798841118812561,-0.025673560798168182,-0.12656791508197784
1761413902435455700,2.277455810546875,0.06047686189413071,-0.022998414933681488,-0.10943632572889328
1761413902445467600,2.287467529296875,0.05529939755797386,-0.03190257400274277,-0.08752749115228653
1761413902455480800,2.297480712890625,0.058933813124895096,-0.055834271013736725,-0.05367844179272652
1761413902465494000,2.307493896484375,0.07012876868247986,-0.09600268304347992,-0.022149521857500076
1761413902475506000,2.317505859375,0.07174237817525864,-0.12761253118515015,0.002376060700044036
1761413902485518800,2.327518798828125,0.061387259513139725,-0.1517166644334793,0.0018857673276215792
1761413902495531800,2.33753173828125,0.042066555470228195,-0.1658245027065277,-0.02021074667572975
1761413902505543700,2.347543701171875,0.01420215331017971,-0.17949730157852173,-0.060343172401189804
1761413902515556900,2.357556884765625,-0.02148686721920967,-0.17470654845237732,-0.10655674338340759
1761413902525569800,2.36756982421875,-0.07485678791999817,-0.16506345570087433,-0.15506964921951294
1761413902535582700,2.377582763671875,-0.14495889842510223,-0.1522991955280304,-0.1904958188533783
1761413902545595000,2.387594970703125,-0.21265709400177002,-0.1208513081073761,-0.20017990469932556
1761413902555607800,2.39760791015625,-0.25941208004951477,-0.041876327246427536,-0.1806650608778
1761413902565621000,2.40762109375,-0.24995221197605133,0.09764565527439117,-0.13508231937885284
1761413902575633000,2.4176328125,-0.18396919965744019,0.18373526632785797,-0.0943245142698288
1761413902585645800,2.427645751953125,-0.1100221574306488,0.15403269231319427,-0.10155664384365082
1761413902595658800,2.43765869140625,-0.08910196274518967,0.06371771544218063,-0.16557957231998444
1761413902605671000,2.4476708984375,-0.12491079419851303,-0.011443080380558968,-0.26533007621765137
1761413902615683800,2.457683837890625,-0.21005578339099884,-0.0823231115937233,-0.37188634276390076
1761413902625697000,2.467697021484375,-0.3166673481464386,-0.09875316917896271,-0.4665701985359192
1761413902635709000,2.477708984375,-0.4136444926261902,-0.05139550566673279,-0.5343441963195801
1761413902645721900,2.487721923828125,-0.4704180061817169,0.059470824897289276,-0.5641981959342957
1761413902655734800,2.49773486328125,-0.46786272525787354,0.21039749681949615,-0.554447591304779
1761413902665748000,2.507748046875,-0.3983800411224365,0.3489091694355011,-0.5116686820983887
1761413902675759900,2.517759765625,-0.2783796191215515,0.42578426003456116,-0.4444845914840698
1761413902685772800,2.527772705078125,-0.12817984819412231,0.43790850043296814,-0.36207982897758484
1761413902695785700,2.53778564453125,0.01772969774901867,0.4166351556777954,-0.26612451672554016
1761413902705798000,2.5477978515625,0.14772933721542358,0.35862410068511963,-0.15384045243263245
1761413902715810800,2.557810791015625,0.2420491725206375,0.27594518661499023,-0.032857298851013184
1761413902725824000,2.567823974609375,0.30194291472435,0.18350078165531158,0.09418153017759323
1761413902735836000,2.5778359375,0.3326593041419983,0.08921901881694794,0.2281997799873352
1761413902745848800,2.587848876953125,0.3487684726715088,-0.008607825264334679,0.3482726514339447
1761413902755861800,2.59786181640625,0.35046276450157166,-0.10844893753528595,0.464733749628067
1761413902765874000,2.6078740234375,0.34484344720840454,-0.198402538895607,0.5581058263778687
1761413902775886800,2.617886962890625,0.33495378494262695,-0.25691911578178406,0.6319208741188049
1761413902785899800,2.627899658203125,0.335095077753067,-0.2757902443408966,0.6875888109207153
1761413902795912700,2.63791259765625,0.3462049961090088,-0.27512815594673157,0.717284619808197
1761413902805924900,2.6479248046875,0.35747942328453064,-0.27908414602279663,0.7129735350608826
1761413902815937800,2.657937744140625,0.35579392313957214,-0.29022228717803955,0.6805136203765869
1761413902825951000,2.667950927734375,0.3365320861339569,-0.3025151789188385,0.6190829873085022
1761413902835963000,2.677962890625,0.2901829481124878,-0.3193173408508301,0.5411983132362366
1761413902845975800,2.687975830078125,0.2123943418264389,-0.33429086208343506,0.45690011978149414
1761413902855988700,2.69798876953125,0.10001052916049957,-0.33524560928344727,0.3725130558013916
1761413902866001000,2.7080009765625,-0.03720014542341232,-0.3239799439907074,0.29495540261268616
1761413902876013800,2.718013916015625,-0.19077451527118683,-0.31259921193122864,0.22065427899360657
1761413902886026800,2.72802685546875,-0.34110864996910095,-0.3275001347064972,0.14945413172245026
1761413902896038700,2.73803857421875,-0.4740147590637207,-0.3562856912612915,0.08455688506364822
1761413902906051800,2.7480517578125,-0.5777472853660583,-0.38896721601486206,0.03133520856499672
1761413902916064800,2.758064697265625,-0.6572466492652893,-0.41847822070121765,-0.013025331310927868
1761413902926078000,2.768077880859375,-0.7153459787368774,-0.4242549538612366,-0.037897683680057526
1761413902936089900,2.77808984375,-0.7500229477882385,-0.39775970578193665,-0.047095175832509995
1761413902946102800,2.788102783203125,-0.7629411220550537,-0.32608291506767273,-0.03644467517733574
1761413902956115700,2.79811572265625,-0.7567703127861023,-0.2245379239320755,-0.005739492364227772
1761413902966127600,2.808127685546875,-0.7366847991943359,-0.11157440394163132,0.03901650011539459
1761413902976140800,2.818140869140625,-0.7081969976425171,-0.01372986938804388,0.08015275001525879
1761413902986153700,2.82815380859375,-0.6849761605262756,0.043349362909793854,0.11533566564321518
1761413902996165600,2.83816552734375,-0.6760351061820984,0.062391497194767,0.14190761744976044
1761413903006178600,2.848178466796875,-0.6678751707077026,0.0554056279361248,0.15820425748825073
1761413903016191700,2.858191650390625,-0.6606665253639221,0.05034056305885315,0.1696300208568573
1761413903026204700,2.86820458984375,-0.6536924839019775,0.05977218598127365,0.17946381866931915
1761413903036216800,2.878216796875,-0.6458324193954468,0.061721354722976685,0.18321861326694489
1761413903046229500,2.8882294921875,-0.6426892876625061,0.047370150685310364,0.16245533525943756
1761413903056242700,2.89824267578125,-0.6482771635055542,0.026330115273594856,0.12804542481899261
1761413903066254600,2.908254638671875,-0.6533318161964417,-0.004392387345433235,0.09354615956544876
1761413903076267800,2.918267822265625,-0.6689683198928833,-0.03455561399459839,0.056575093418359756
1761413903086280700,2.92828076171875,-0.6932991743087769,-0.06533655524253845,0.02035742625594139
1761413903096292600,2.938292724609375,-0.7189925312995911,-0.09350880980491638,-0.01054083276540041
1761413903106305500,2.948305419921875,-0.7425475120544434,-0.11246311664581299,-0.04180613160133362
1761413903116318700,2.958318603515625,-0.7647516131401062,-0.1321052610874176,-0.08496718853712082
1761413903126330600,2.96833056640625,-0.7756226658821106,-0.1710990071296692,-0.13946819305419922
1761413903136343800,2.97834375,-0.7802595496177673,-0.24126504361629486,-0.2020530104637146
1761413903146356500,2.9883564453125,-0.7733408212661743,-0.328662633895874,-0.27422523498535156
1761413903156369700,2.99836962890625,-0.7630202770233154,-0.41656532883644104,-0.33534663915634155
1761413903166381600,3.008381591796875,-0.7408607006072998,-0.482051283121109,-0.3697274923324585
1761413903176394800,3.018394775390625,-0.718504786491394,-0.5357406139373779,-0.3973447382450104
1761413903186407700,3.02840771484375,-0.699854850769043,-0.6089819669723511,-0.42623424530029297
1761413903196419800,3.038419921875,-0.6783958673477173,-0.7091264128684998,-0.4827640950679779
1761413903206432500,3.0484326171875,-0.6483228206634521,-0.7760444283485413,-0.5501914620399475
1761413903216445700,3.05844580078125,-0.6146551370620728,-0.742732048034668,-0.6173998117446899
1761413903226457600,3.06845751953125,-0.5633766055107117,-0.5997531414031982,-0.6547574400901794
1761413903236470800,3.078470703125,-0.4959552586078644,-0.3726893663406372,-0.652474582195282
1761413903246483500,3.0884833984375,-0.4224194288253784,-0.14495638012886047,-0.6149454712867737
1761413903256495600,3.09849560546875,-0.35213780403137207,0.045316632837057114,-0.5604076981544495
1761413903266508500,3.108508544921875,-0.2902350425720215,0.17694760859012604,-0.48270857334136963
1761413903276521700,3.118521728515625,-0.25213637948036194,0.2105385959148407,-0.3993537425994873
1761413903286533600,3.12853369140625,-0.2307804375886917,0.19128209352493286,-0.3111588954925537
1761413903296546800,3.138546875,-0.21793176233768463,0.13416847586631775,-0.22310413420200348
1761413903306559500,3.1485595703125,-0.20511092245578766,0.04805947467684746,-0.14248275756835938
1761413903316572700,3.15857275390625,-0.18733352422714233,-0.020615460351109505,-0.0729960948228836
1761413903326584600,3.16858447265625,-0.17365317046642303,-0.03308092802762985,0.004476103000342846
1761413903336597800,3.17859765625,-0.14407478272914886,0.029487909749150276,0.08382631838321686
1761413903346610400,3.1886103515625,-0.08421303331851959,0.08450375497341156,0.14684630930423737
1761413903356622600,3.19862255859375,-0.017495259642601013,0.06713755428791046,0.17107626795768738
1761413903366635500,3.208635498046875,0.016912905499339104,-0.00929858535528183,0.1504504531621933
1761413903376648700,3.218648681640625,-0.0012644995003938675,-0.11045023798942566,0.09702663868665695
1761413903386660600,3.22866064453125,-0.044871680438518524,-0.21766018867492676,0.0383785143494606
1761413903396673800,3.238673828125,-0.10092855244874954,-0.30588164925575256,-0.01247774250805378
1761413903406686500,3.2486865234375,-0.16049937903881073,-0.35748887062072754,-0.03849243000149727
1761413903416699600,3.25869970703125,-0.20325084030628204,-0.341798335313797,-0.027584385126829147
1761413903426711600,3.268711669921875,-0.22848239541053772,-0.2682362198829651,0.024683570489287376
1761413903436724700,3.278724853515625,-0.21813681721687317,-0.1708710640668869,0.10775954276323318
1761413903446737700,3.288737548828125,-0.18573744595050812,-0.07368038594722748,0.21560655534267426
1761413903456749600,3.29874951171875,-0.12291374802589417,0.018255135044455528,0.32645344734191895
1761413903466762500,3.308762451171875,-0.04792303219437599,0.0975302904844284,0.4348069727420807
1761413903476775700,3.318775634765625,0.04708204045891762,0.15765221416950226,0.5339481830596924
1761413903486787600,3.32878759765625,0.13128291070461273,0.2005155235528946,0.6101804375648499
1761413903496800800,3.33880078125,0.2025429755449295,0.2196926772594452,0.658664882183075
1761413903506813700,3.348813720703125,0.2460232675075531,0.2290620356798172,0.688967227935791
1761413903516825600,3.35882568359375,0.27760088443756104,0.22981730103492737,0.7086061835289001
1761413903526838500,3.368838623046875,0.2990542948246002,0.22034499049186707,0.7306867241859436
1761413903536851700,3.378851806640625,0.32925745844841003,0.18638809025287628,0.7564677596092224
1761413903546863600,3.388863525390625,0.3628500699996948,0.1336793601512909,0.794743001461029
1761413903556876500,3.39887646484375,0.39559951424598694,0.044073574244976044,0.828065812587738
1761413903566889700,3.4088896484375,0.4025815427303314,-0.06861594319343567,0.8358837366104126
1761413903576902700,3.418902587890625,0.37474164366722107,-0.1859167367219925,0.7956969141960144
1761413903586914600,3.42891455078125,0.31755778193473816,-0.28770366311073303,0.7186239957809448
1761413903596927700,3.438927734375,0.2431703507900238,-0.37378421425819397,0.6095033288002014
1761413903606940700,3.448940673828125,0.17145033180713654,-0.41973868012428284,0.49725836515426636
1761413903616952600,3.45895263671875,0.11759854853153229,-0.3996565639972687,0.3949122726917267
1761413903626965800,3.4689658203125,0.08101815730333328,-0.33287957310676575,0.3014071583747864
1761413903636978700,3.478978759765625,0.05993656814098358,-0.22234639525413513,0.20600900053977966
1761413903646990600,3.488990478515625,0.06751551479101181,-0.09063704311847687,0.11653290688991547
1761413903657003500,3.49900341796875,0.10612336546182632,0.05313371494412422,0.030690699815750122
1761413903667016700,3.5090166015625,0.18004563450813293,0.1852211058139801,-0.05085374787449837
1761413903677029600,3.519029541015625,0.27155691385269165,0.29076164960861206,-0.13001620769500732
1761413903687041800,3.529041748046875,0.36602553725242615,0.3397311270236969,-0.20340599119663239
1761413903697054700,3.5390546875,0.44407904148101807,0.3422155976295471,-0.26418811082839966
1761413903707067600,3.549067626953125,0.49404260516166687,0.32408973574638367,-0.3156220018863678
1761413903717079600,3.55907958984375,0.5251230001449585,0.2951957583427429,-0.3528572618961334
1761413903727092700,3.5690927734375,0.5362915992736816,0.2711305618286133,-0.3844153881072998
1761413903737105700,3.579105712890625,0.5363973379135132,0.2608875036239624,-0.41299164295196533
1761413903747117800,3.589117919921875,0.5305135846138,0.23477119207382202,-0.43618693947792053
1761413903757130500,3.599130615234375,0.5263763666152954,0.1784844845533371,-0.4498092830181122
1761413903767143700,3.609143798828125,0.5244235396385193,0.08191376179456711,-0.4493366479873657
1761413903777155600,3.619155517578125,0.5188255310058594,-0.057708580046892166,-0.43407195806503296
1761413903787168800,3.629168701171875,0.509847104549408,-0.20359264314174652,-0.38665664196014404
1761413903797181700,3.639181640625,0.48472413420677185,-0.28174737095832825,-0.301776647567749
1761413903807193900,3.64919384765625,0.4574209153652191,-0.28990796208381653,-0.20349222421646118
1761413903817206500,3.65920654296875,0.43766796588897705,-0.2575060725212097,-0.09736926108598709
1761413903827219700,3.6692197265625,0.4201942980289459,-0.18531197309494019,-0.0028804740868508816
1761413903837232600,3.679232666015625,0.411825567483902,-0.10620064288377762,0.0656951293349266
1761413903847244800,3.689244873046875,0.41791483759880066,-0.0383417010307312,0.10394017398357391
1761413903857257700,3.6992578125,0.4466426372528076,0.018984440714120865,0.11434195190668106
1761413903867270700,3.709270751953125,0.49140268564224243,0.07787556946277618,0.1043965220451355
1761413903877282600,3.719282470703125,0.5518391132354736,0.11595850437879562,0.08143234997987747
1761413903887295700,3.729295654296875,0.6045016646385193,0.13265475630760193,0.05788614973425865
1761413903897308700,3.73930859375,0.6525238156318665,0.12672628462314606,0.03578537330031395
1761413903907320800,3.74932080078125,0.6788183450698853,0.11003267765045166,0.029248595237731934
1761413903917333500,3.75933349609375,0.6908270716667175,0.08530177175998688,0.027048293501138687
1761413903927346700,3.7693466796875,0.6824105978012085,0.06015642732381821,0.02840823121368885
1761413903937358600,3.779358642578125,0.6619939804077148,0.04381740465760231,0.03858603164553642
1761413903947371800,3.789371826171875,0.6264591813087463,0.02129759080708027,0.04391820728778839
1761413903957384700,3.799384765625,0.5809395909309387,-0.015921950340270996,0.048568084836006165
1761413903967398000,3.80939794921875,0.5254591107368469,-0.05584964156150818,0.05631643906235695
1761413903977409800,3.819409912109375,0.47246217727661133,-0.07800447940826416,0.07712478190660477
1761413903987423000,3.829423095703125,0.4213738739490509,-0.07388035953044891,0.11148539930582047
1761413903997436000,3.839435791015625,0.38039714097976685,-0.046269506216049194,0.1433599591255188
1761413904007448000,3.849447998046875,0.3435245454311371,0.007666803430765867,0.17263542115688324
1761413904017460700,3.859460693359375,0.31649959087371826,0.06262779235839844,0.19651278853416443
1761413904027474000,3.869473876953125,0.28847143054008484,0.09844239801168442,0.19855482876300812
1761413904037485800,3.87948583984375,0.2553875148296356,0.09985600411891937,0.18473754823207855
1761413904047499000,3.8894990234375,0.20808684825897217,0.0781489834189415,0.15521420538425446
1761413904057511700,3.89951171875,0.1487998366355896,0.03388538584113121,0.10989625751972198
1761413904067523800,3.90952392578125,0.08715109527111053,-0.0141877681016922,0.07137728482484818
1761413904077536800,3.919536865234375,0.026870181784033775,-0.03375694155693054,0.043521948158741
1761413904087550000,3.929550048828125,-0.02698325738310814,-0.019448865205049515,0.030111150816082954
1761413904097563000,3.93956298828125,-0.05755048617720604,0.046744801104068756,0.03726626932621002
1761413904107575000,3.949574951171875,-0.041688449680805206,0.16951853036880493,0.05537599325180054
1761413904117587700,3.959587646484375,0.03163556754589081,0.2265131026506424,0.07300505042076111
1761413904127601000,3.969600830078125,0.10182525962591171,0.16733510792255402,0.05883156880736351
1761413904137612800,3.97961279296875,0.13208594918251038,0.059197984635829926,0.00935509242117405
1761413904147626000,3.9896259765625,0.11850588768720627,-0.06299760192632675,-0.0676465779542923
1761413904157639000,3.999638916015625,0.07076766341924667,-0.19178009033203125,-0.1655409336090088
1761413904167650800,4.00965087890625,-0.02242972142994404,-0.28164952993392944,-0.281628280878067
1761413904177663700,4.019663818359375,-0.15163376927375793,-0.29293495416641235,-0.3907332122325897
1761413904187677000,4.029677001953125,-0.27380409836769104,-0.22876952588558197,-0.4592471122741699
1761413904197688800,4.039688720703125,-0.36111822724342346,-0.09031444787979126,-0.47409793734550476
1761413904207702000,4.049701904296875,-0.3948322832584381,0.0757775753736496,-0.43553057312965393
1761413904217714700,4.059714599609375,-0.3844113349914551,0.22226661443710327,-0.36094605922698975
1761413904227726800,4.069726806640625,-0.32631170749664307,0.328961580991745,-0.27890387177467346
1761413904237739800,4.07973974609375,-0.2347804605960846,0.38210493326187134,-0.19346007704734802
1761413904247753000,4.0897529296875,-0.12400813400745392,0.3862461745738983,-0.10115064680576324
1761413904257766000,4.099765869140625,-0.01998080313205719,0.38504746556282043,-0.008249200880527496
1761413904267777800,4.10977783203125,0.06995956599712372,0.3797147870063782,0.08870092034339905
1761413904277790700,4.119790771484375,0.12366966158151627,0.3655763268470764,0.19124087691307068
1761413904287804000,4.129803955078125,0.16059012711048126,0.350221186876297,0.2933155596256256
1761413904297815800,4.13981591796875,0.17606015503406525,0.331574022769928,0.39416733384132385
1761413904307829000,4.1498291015625,0.17307673394680023,0.31023046374320984,0.48321887850761414
1761413904317842000,4.159842041015625,0.16237616539001465,0.26466429233551025,0.5516259074211121
1761413904327853800,4.169853759765625,0.14400985836982727,0.18523162603378296,0.5920767784118652
1761413904337867000,4.179866943359375,0.12215302884578705,0.0666346624493599,0.5978715419769287
1761413904347880000,4.1898798828125,0.08820369839668274,-0.05740933492779732,0.5705843567848206
1761413904357891800,4.199891845703125,0.04524211212992668,-0.16462767124176025,0.5174684524536133
1761413904367905000,4.209905029296875,-0.011545899324119091,-0.2284647673368454,0.455296128988266
1761413904377918000,4.21991796875,-0.07969805598258972,-0.24542510509490967,0.38052573800086975
1761413904387931000,4.229930908203125,-0.14019827544689178,-0.22431375086307526,0.2963116765022278
1761413904397943000,4.239943115234375,-0.175861194729805,-0.18139663338661194,0.21890504658222198
1761413904407956000,4.2499560546875,-0.17909879982471466,-0.1303049623966217,0.1369665116071701
1761413904417969000,4.259968994140625,-0.16455155611038208,-0.0817166417837143,0.06000274419784546
1761413904427980800,4.269980712890625,-0.13492541015148163,-0.06001665070652962,-0.01047976128757
1761413904437994000,4.279993896484375,-0.09510556608438492,-0.06630703806877136,-0.07232262194156647
1761413904448007000,4.2900068359375,-0.05278725177049637,-0.0863586887717247,-0.11456414312124252
1761413904458019000,4.30001904296875,-0.016716064885258675,-0.09787846356630325,-0.13960212469100952
1761413904468032000,4.310031982421875,0.010146582499146461,-0.07828645408153534,-0.14832182228565216
1761413904478045000,4.320044921875,0.0361398346722126,-0.01974005438387394,-0.13628354668617249
1761413904488056800,4.330056884765625,0.06473340094089508,0.0673113465309143,-0.10809846967458725
1761413904498070000,4.340070068359375,0.1005457267165184,0.15837548673152924,-0.0661129355430603
1761413904508083000,4.3500830078125,0.1333206593990326,0.22661817073822021,-0.025223057717084885
1761413904518096000,4.360095947265625,0.16385726630687714,0.2717371881008148,0.012382641434669495
1761413904528107800,4.370107666015625,0.1916235238313675,0.30444392561912537,0.04091561585664749
1761413904538121000,4.380120849609375,0.2192210704088211,0.31707316637039185,0.05986267328262329
1761413904548134000,4.3901337890625,0.24769017100334167,0.32494503259658813,0.07222256809473038
1761413904558146000,4.40014599609375,0.27647843956947327,0.3317081332206726,0.07980698347091675
1761413904568159000,4.410158935546875,0.30691051483154297,0.33609846234321594,0.0814044401049614
1761413904578172000,4.420171875,0.3365491032600403,0.33810779452323914,0.07132730633020401
1761413904588183800,4.430183837890625,0.36015021800994873,0.3485196530818939,0.06598338484764099
1761413904598197000,4.440197021484375,0.3743986487388611,0.37288036942481995,0.050473663955926895
1761413904608210000,4.4502099609375,0.3769257664680481,0.383672833442688,0.03167809545993805
1761413904618222000,4.46022216796875,0.36893123388290405,0.3754703104496002,0.0005526675377041101
1761413904628234800,4.47023486328125,0.352797269821167,0.35406529903411865,-0.0374818779528141
1761413904638248000,4.480248046875,0.33679378032684326,0.3061518371105194,-0.07427797466516495
1761413904648260900,4.4902607421875,0.3128272294998169,0.23028796911239624,-0.11711788922548294
1761413904658273000,4.50027294921875,0.27526921033859253,0.15183258056640625,-0.15741844475269318
1761413904668286000,4.510285888671875,0.23287378251552582,0.08947332203388214,-0.18072453141212463
1761413904678299000,4.520298828125,0.1913471221923828,0.06292746216058731,-0.1959729939699173
1761413904688310800,4.530310791015625,0.16394735872745514,0.05371713265776634,-0.20684324204921722
1761413904698324000,4.540323974609375,0.15536212921142578,0.06114095821976662,-0.20417501032352448
1761413904708337000,4.5503369140625,0.16986922919750214,0.07481631636619568,-0.19905729591846466
1761413904718349000,4.56034912109375,0.19987960159778595,0.09349625557661057,-0.19231364130973816
1761413904728361700,4.57036181640625,0.24047158658504486,0.10941801965236664,-0.18330468237400055
1761413904738375000,4.580375,0.28841432929039,0.1233396977186203,-0.17519909143447876
1761413904748386800,4.59038671875,0.336537629365921,0.14147154986858368,-0.17341552674770355
1761413904758400000,4.60039990234375,0.39204856753349304,0.169146329164505,-0.16197511553764343
1761413904768413000,4.610412841796875,0.45093968510627747,0.1920797973871231,-0.15442205965518951
1761413904778425000,4.620425048828125,0.5127423405647278,0.1967611014842987,-0.15505456924438477
1761413904788437800,4.630437744140625,0.573978841304779,0.17841874063014984,-0.16218237578868866
1761413904798451000,4.640450927734375,0.63084876537323,0.13797837495803833,-0.16442182660102844
1761413904808464000,4.6504638671875,0.6709153652191162,0.08911873400211334,-0.1679469496011734
1761413904818476000,4.66047607421875,0.6914001107215881,0.04282233491539955,-0.17342880368232727
1761413904828488700,4.67048876953125,0.6988379955291748,0.008418265730142593,-0.1743086278438568
1761413904838502000,4.680501953125,0.7051619291305542,-0.0003597792237997055,-0.16977059841156006
1761413904848513800,4.690513671875,0.7250019907951355,0.020436057820916176,-0.1570601761341095
1761413904858527000,4.70052685546875,0.7630974054336548,0.06177417188882828,-0.1321020871400833
1761413904868540000,4.710539794921875,0.8240081667900085,0.1489410251379013,-0.10115372389554977
1761413904878552000,4.720552001953125,0.9394649863243103,0.26842001080513,-0.05942464992403984
1761413904888564700,4.730564697265625,1.0994157791137695,0.3019046485424042,-0.04032542183995247
1761413904898578000,4.740577880859375,1.2265557050704956,0.21686193346977234,-0.07885389775037766
1761413904908589800,4.75058984375,1.2703847885131836,0.11149599403142929,-0.16034173965454102
1761413904918603000,4.76060302734375,1.2291510105133057,0.016797982156276703,-0.27694612741470337
1761413904928616000,4.770615966796875,1.117119550704956,-0.12000167369842529,-0.40969058871269226
1761413904938627800,4.7806279296875,0.9779262542724609,-0.24505358934402466,-0.5118992328643799
1761413904948640800,4.790640869140625,0.8582086563110352,-0.26812708377838135,-0.5413326025009155
1761413904958654000,4.800654052734375,0.7696321606636047,-0.21396318078041077,-0.5073360204696655
1761413904968666000,4.810666015625,0.7224625945091248,-0.12232697010040283,-0.4340682327747345
1761413904978678000,4.820677978515625,0.7219624519348145,-0.03449006378650665,-0.34276336431503296
1761413904988691200,4.830691162109375,0.7763100862503052,0.004488066304475069,-0.24278153479099274
1761413904998703900,4.840703857421875,0.8604854345321655,-0.0020760931074619293,-0.15182392299175262
1761413905008716000,4.850716064453125,0.9561578631401062,-0.0542978011071682,-0.06758501380681992
1761413905018729000,4.86072900390625,1.0278676748275757,-0.09514936059713364,0.011037095449864864
1761413905028742100,4.8707421875,1.0719599723815918,-0.10005543380975723,0.08845542371273041
1761413905038754000,4.880754150390625,1.0813969373703003,-0.07741750031709671,0.16748259961605072
1761413905048767000,4.89076708984375,1.066672444343567,-0.05441412329673767,0.2339564859867096
1761413905058780000,4.90077978515625,1.0381449460983276,-0.04669575020670891,0.2873065173625946
1761413905068793000,4.91079296875,0.9929394721984863,-0.047885455191135406,0.31334397196769714
1761413905078805000,4.920804931640625,0.9435010552406311,-0.05186821520328522,0.3123977482318878
1761413905088818200,4.930818115234375,0.9036694765090942,-0.06952831149101257,0.2884373664855957
1761413905098830800,4.940830810546875,0.8674611449241638,-0.09672664105892181,0.23602688312530518
1761413905108843000,4.950843017578125,0.851466178894043,-0.13055051863193512,0.16884122788906097
1761413905118856000,4.96085595703125,0.8578260540962219,-0.15888309478759766,0.10860052704811096
1761413905128869000,4.970869140625,0.8870736360549927,-0.16034279763698578,0.06263498961925507
1761413905138881000,4.980881103515625,0.9360665082931519,-0.14950346946716309,0.03489816561341286
1761413905148894000,4.99089404296875,0.993329644203186,-0.12498662620782852,0.01879039965569973
1761413905158907000,5.000906982421875,1.0482925176620483,-0.08883687853813171,0.01716933213174343
1761413905168919000,5.0109189453125,1.0841336250305176,-0.022133054211735725,0.021944526582956314
1761413905178932000,5.020931884765625,1.0953081846237183,0.02814529649913311,0.02329927682876587
1761413905188945200,5.030945068359375,1.0903465747833252,0.038694772869348526,0.02156543731689453
1761413905198957000,5.04095703125,1.0797146558761597,0.019844919443130493,0.02137928456068039
1761413905208970000,5.050969970703125,1.0729748010635376,0.02730841562151909,0.04407105594873428
1761413905218983000,5.06098291015625,1.0782827138900757,0.06504940241575241,0.08179819583892822
1761413905228996000,5.07099609375,1.1040693521499634,0.08297237008810043,0.11299887299537659
1761413905239008000,5.081008056640625,1.138917088508606,0.06774547696113586,0.13727784156799316
1761413905249021000,5.09102099609375,1.1721493005752563,0.018628763034939766,0.12440558522939682
1761413905259033900,5.101033935546875,1.1810394525527954,-0.06864488869905472,0.08823186159133911
1761413905269046000,5.1110458984375,1.1638513803482056,-0.1624559462070465,0.030159320682287216
1761413905279059000,5.121058837890625,1.114273190498352,-0.20817656815052032,-0.03726153075695038
1761413905289072000,5.131072021484375,1.0610965490341187,-0.23302847146987915,-0.1045248880982399
1761413905299084000,5.141083984375,1.017812728881836,-0.2457362860441208,-0.14669151604175568
1761413905309097000,5.151096923828125,0.9918724298477173,-0.2145211547613144,-0.17201851308345795
1761413905319110000,5.16110986328125,0.9747133851051331,-0.16893742978572845,-0.18230603635311127
1761413905329122000,5.1711220703125,0.9786673784255981,-0.09647693485021591,-0.18054118752479553
1761413905339135000,5.181135009765625,1.0101765394210815,-0.012730905786156654,-0.1794503629207611
1761413905349148200,5.191148193359375,1.0630260705947876,0.056291382759809494,-0.19182373583316803
1761413905359160000,5.20116015625,1.1261019706726074,0.10637824982404709,-0.21506327390670776
1761413905369173000,5.211173095703125,1.1901600360870361,0.1290869414806366,-0.24305620789527893
1761413905379186000,5.22118603515625,1.2517956495285034,0.13394828140735626,-0.2635990381240845
1761413905389199000,5.23119921875,1.3022233247756958,0.13175810873508453,-0.27067697048187256
1761413905399211000,5.2412109375,1.3528846502304077,0.13492648303508759,-0.25311556458473206
1761413905409224000,5.251223876953125,1.4024466276168823,0.14171703159809113,-0.22537271678447723
1761413905419237000,5.261237060546875,1.4562941789627075,0.15755777060985565,-0.18440291285514832
1761413905429249000,5.2712490234375,1.5149166584014893,0.17521311342716217,-0.13603420555591583
1761413905439262000,5.281261962890625,1.563684105873108,0.17433293163776398,-0.08741740137338638
1761413905449275100,5.291275146484375,1.5959091186523438,0.155328169465065,-0.04542127624154091
1761413905459287000,5.301287109375,1.613180160522461,0.10878649353981018,-0.011071291752159595
1761413905469300000,5.311300048828125,1.6142587661743164,0.05153624340891838,0.013085220009088516
1761413905479313200,5.321313232421875,1.6128137111663818,0.008227918297052383,0.03505736589431763
1761413905489325000,5.331324951171875,1.6140460968017578,0.004202054347842932,0.06710997223854065
1761413905499338000,5.341337890625,1.6137627363204956,0.02724665217101574,0.10153453052043915
1761413905509351000,5.351350830078125,1.6144485473632812,0.062006182968616486,0.14340971410274506
1761413905519362800,5.36136279296875,1.6114612817764282,0.10233895480632782,0.17724092304706573
1761413905529376000,5.3713759765625,1.6063649654388428,0.14118951559066772,0.21082215011119843
1761413905539389200,5.38138916015625,1.5977592468261719,0.18986545503139496,0.23376981914043427
1761413905549402000,5.391402099609375,1.592461347579956,0.2392726093530655,0.24857625365257263
1761413905559414000,5.4014140625,1.5843192338943481,0.29131051898002625,0.2612036466598511
1761413905569427000,5.411427001953125,1.5765461921691895,0.3274820148944855,0.2627853453159332
1761413905579440000,5.421440185546875,1.5634516477584839,0.34398454427719116,0.2678999602794647
1761413905589452000,5.4314521484375,1.5396416187286377,0.33468785881996155,0.2714459300041199
1761413905599465200,5.44146533203125,1.510932207107544,0.3182305693626404,0.2766508162021637
1761413905609478000,5.451477783203125,1.4742629528045654,0.2751803696155548,0.28577229380607605
1761413905619490000,5.461489990234375,1.4326331615447998,0.2014501988887787,0.29902949929237366
1761413905629503000,5.4715029296875,1.3840622901916504,0.10908225178718567,0.32517409324645996
1761413905639516200,5.48151611328125,1.332603931427002,0.023769479244947433,0.36099547147750854
1761413905649528000,5.491528076171875,1.278656244277954,-0.05010396987199783,0.4200911223888397
1761413905659541200,5.501541259765625,1.2359329462051392,-0.11721376329660416,0.48354199528694153
1761413905669554000,5.511553955078125,1.2154277563095093,-0.16956764459609985,0.5459054112434387
1761413905679566000,5.521566162109375,1.2189912796020508,-0.21536283195018768,0.6136754155158997
1761413905689579000,5.5315791015625,1.235644817352295,-0.23911012709140778,0.6689406633377075
1761413905699592200,5.54159228515625,1.2536081075668335,-0.21923363208770752,0.7242553234100342
1761413905709604900,5.55160498046875,1.2513210773468018,-0.16676706075668335,0.7637969851493835
1761413905719617000,5.561616943359375,1.2302985191345215,-0.1025819480419159,0.7857502698898315
1761413905729630000,5.5716298828125,1.1877501010894775,-0.04169408977031708,0.7875319123268127
1761413905739643100,5.58164306640625,1.1231279373168945,0.00997842662036419,0.7709952592849731
1761413905749655000,5.591655029296875,1.0449132919311523,0.05410116910934448,0.7489388585090637
1761413905759668200,5.601668212890625,0.9736029505729675,0.10349482297897339,0.7143241763114929
1761413905769681000,5.611680908203125,0.9199085831642151,0.16321182250976562,0.6849348545074463
1761413905779693000,5.621693115234375,0.8790813088417053,0.24047918617725372,0.6575871109962463
1761413905789706000,5.6317060546875,0.8597297668457031,0.3238464295864105,0.6301608681678772
1761413905799719200,5.64171923828125,0.8666697144508362,0.4113973081111908,0.6132377982139587
1761413905809731000,5.65173095703125,0.8966351747512817,0.444613516330719,0.5837883353233337
1761413905819744000,5.661743896484375,0.9213793873786926,0.4019371569156647,0.5305522680282593
1761413905829757000,5.6717568359375,0.9101546406745911,0.3292697072029114,0.46332868933677673
1761413905839769000,5.68176904296875,0.8510449528694153,0.26796799898147583,0.39249497652053833
1761413905849782000,5.691781982421875,0.7721545100212097,0.21252703666687012,0.3238770663738251
1761413905859795200,5.701795166015625,0.6958879828453064,0.16647671163082123,0.2624717354774475
1761413905869807900,5.711807861328125,0.6258172988891602,0.11530967056751251,0.20593124628067017
1761413905879820000,5.721820068359375,0.5496633648872375,0.06642095744609833,0.1436079442501068
1761413905889833000,5.7318330078125,0.47586849331855774,0.04943301901221275,0.0879991352558136
1761413905899846100,5.74184619140625,0.40575703978538513,0.04185233265161514,0.045741427689790726
1761413905909858000,5.751858154296875,0.3697715103626251,0.03455135598778725,0.019702840596437454
1761413905919871000,5.76187109375,0.3633274435997009,0.05086428299546242,0.023933272808790207
1761413905929884000,5.7718837890625,0.38855814933776855,0.09831935912370682,0.06094745919108391
1761413905939896000,5.78189599609375,0.4409385323524475,0.16183361411094666,0.1233716830611229
1761413905949909000,5.791908935546875,0.5065086483955383,0.2400885671377182,0.21248233318328857
1761413905959922200,5.801922119140625,0.5800140500068665,0.3006344437599182,0.3164430856704712
1761413905969934600,5.8119345703125,0.6391133069992065,0.31369978189468384,0.4302998483181
1761413905979947800,5.82194775390625,0.6784684062004089,0.29321715235710144,0.5550873279571533
1761413905989960700,5.831960693359375,0.7016476392745972,0.2697601318359375,0.6837376356124878
1761413905999974000,5.841973876953125,0.7046175599098206,0.2569676339626312,0.8163158893585205
1761413906009985800,5.85198583984375,0.7103034853935242,0.2593775689601898,0.9339519143104553
1761413906019998700,5.861998779296875,0.7258179783821106,0.2776084840297699,1.0273886919021606
1761413906030011600,5.87201171875,0.7516679763793945,0.30185258388519287,1.0847997665405273
1761413906040023800,5.88202392578125,0.7831121683120728,0.31356197595596313,1.1058547496795654
1761413906050036700,5.89203662109375,0.8100498914718628,0.2886870205402374,1.0901929140090942
1761413906060049700,5.902049560546875,0.8294579386711121,0.24553877115249634,1.050446629524231
1761413906070061600,5.9120615234375,0.8427931666374207,0.19696934521198273,0.9899721145629883
1761413906080074800,5.92207470703125,0.8495930433273315,0.1485501378774643,0.9122921824455261
1761413906090087700,5.932087646484375,0.8500272631645203,0.10660821944475174,0.8186997175216675
1761413906100099800,5.942099853515625,0.8317191004753113,0.11466800421476364,0.7165392637252808
1761413906110112800,5.95211279296875,0.8063035607337952,0.14718295633792877,0.5961014628410339
1761413906120125700,5.962125732421875,0.7875823378562927,0.18401633203029633,0.46612483263015747
1761413906130137600,5.9721376953125,0.7791924476623535,0.22295477986335754,0.3232918977737427
1761413906140150800,5.98215087890625,0.7726634740829468,0.28841716051101685,0.1758963018655777
1761413906150163700,5.992163818359375,0.7675344347953796,0.3672071397304535,0.023787887766957283
1761413906160176600,6.0021767578125,0.7708899974822998,0.4192005693912506,-0.13259506225585938
1761413906170188500,6.0121884765625,0.7828791737556458,0.4330112636089325,-0.2803118824958801
1761413906180201700,6.02220166015625,0.7930796146392822,0.4053972065448761,-0.41120439767837524
1761413906190214700,6.032214599609375,0.8186842799186707,0.35890769958496094,-0.5095353722572327
1761413906200226800,6.042226806640625,0.8583951592445374,0.3176034092903137,-0.5634492039680481
1761413906210239700,6.05223974609375,0.913809061050415,0.29763323068618774,-0.5695475935935974
1761413906220252700,6.062252685546875,0.9700838327407837,0.31492966413497925,-0.537604033946991
1761413906230264600,6.0722646484375,1.0155590772628784,0.3719508945941925,-0.4727088510990143
1761413906240277800,6.08227783203125,1.056464433670044,0.4532284140586853,-0.39049655199050903
1761413906250290700,6.092290771484375,1.0915695428848267,0.5245163440704346,-0.30259835720062256
1761413906260302800,6.102302734375,1.1308107376098633,0.5731754899024963,-0.22202439606189728
1761413906270315500,6.1123154296875,1.1806890964508057,0.6140027046203613,-0.14901338517665863
1761413906280328700,6.12232861328125,1.2380101680755615,0.6310426592826843,-0.09264758974313736
1761413906290340600,6.132340576171875,1.2956713438034058,0.6223275661468506,-0.05851243808865547
1761413906300353800,6.142353759765625,1.3492684364318848,0.60032719373703,-0.04075314849615097
1761413906310366700,6.15236669921875,1.3957717418670654,0.5734760165214539,-0.05053200200200081
1761413906320379000,6.16237890625,1.4269747734069824,0.5370485186576843,-0.07554227858781815
1761413906330391600,6.1723916015625,1.4390016794204712,0.49421805143356323,-0.11575638502836227
1761413906340404700,6.18240478515625,1.4353997707366943,0.4445977807044983,-0.15752248466014862
1761413906350417700,6.192417724609375,1.420518398284912,0.39131033420562744,-0.1987999528646469
1761413906360429800,6.202429931640625,1.3961464166641235,0.3358162045478821,-0.22485099732875824
1761413906370442800,6.21244287109375,1.3627461194992065,0.28335005044937134,-0.22958077490329742
1761413906380455700,6.22245556640625,1.3373388051986694,0.2321060448884964,-0.22293990850448608
1761413906390467600,6.232467529296875,1.3202509880065918,0.18500623106956482,-0.20478370785713196
1761413906400480800,6.242480712890625,1.3110079765319824,0.1389055848121643,-0.17808897793293
1761413906410493700,6.25249365234375,1.308699607849121,0.10319541394710541,-0.15132008492946625
1761413906420505900,6.262505859375,1.309912919998169,0.0846419632434845,-0.1239401176571846
1761413906430518500,6.2725185546875,1.3220077753067017,0.0873473510146141,-0.10176403075456619
1761413906440531700,6.28253173828125,1.3382346630096436,0.09827829152345657,-0.08058816939592361
1761413906450543600,6.292543701171875,1.3536794185638428,0.11305250972509384,-0.06454528868198395
1761413906460556800,6.302556884765625,1.3636658191680908,0.12531530857086182,-0.060918863862752914
1761413906470569700,6.31256982421875,1.3763656616210938,0.13394808769226074,-0.05849623680114746
1761413906480582000,6.322581787109375,1.381299376487732,0.13758224248886108,-0.059178005903959274
1761413906490594600,6.332594482421875,1.3882440328598022,0.14499056339263916,-0.05541341379284859
1761413906500607700,6.342607666015625,1.3910245895385742,0.16334134340286255,-0.052263692021369934
1761413906510620700,6.35262060546875,1.3941949605941772,0.19613060355186462,-0.03522198274731636
1761413906520632800,6.3626328125,1.3935171365737915,0.23662130534648895,-0.016575591638684273
1761413906530645500,6.3726455078125,1.3989291191101074,0.27399423718452454,0.0036123055033385754
1761413906540658700,6.38265869140625,1.4101413488388062,0.30549728870391846,0.023290934041142464
1761413906550670600,6.392670654296875,1.417547583580017,0.339603453874588,0.047133203595876694
1761413906560683800,6.402683837890625,1.4201949834823608,0.3778938353061676,0.06929603219032288
1761413906570696700,6.41269677734375,1.4145973920822144,0.4138638973236084,0.09657910466194153
1761413906580708900,6.422708984375,1.399155616760254,0.4304013252258301,0.12259232997894287
1761413906590721500,6.432721435546875,1.3709204196929932,0.41063329577445984,0.14190790057182312
1761413906600734700,6.442734619140625,1.32850980758667,0.3609035611152649,0.14960977435112
1761413906610746600,6.45274658203125,1.276378870010376,0.2924329340457916,0.15044096112251282
1761413906620759800,6.462759765625,1.2164961099624634,0.24292610585689545,0.153378427028656
1761413906630772500,6.4727724609375,1.1583181619644165,0.21908676624298096,0.1639319807291031
1761413906640784600,6.48278466796875,1.1097148656845093,0.21724146604537964,0.17072810232639313
1761413906650797600,6.492797607421875,1.0686099529266357,0.22446057200431824,0.18626976013183594
1761413906660810800,6.502810791015625,1.040557622909546,0.251794695854187,0.2028266340494156
1761413906670824000,6.512823974609375,1.0248223543167114,0.3030247688293457,0.2369796484708786
1761413906680835800,6.5228359375,1.0241186618804932,0.41724056005477905,0.27574941515922546
1761413906690848500,6.5328486328125,1.0688624382019043,0.5753551125526428,0.32185113430023193
1761413906700861700,6.54286181640625,1.1445691585540771,0.6573373675346375,0.33189788460731506
1761413906710873600,6.55287353515625,1.181536316871643,0.6040761470794678,0.27752673625946045
1761413906720886800,6.56288671875,1.1519893407821655,0.5080521106719971,0.18441541492938995
1761413906730899700,6.572899658203125,1.0812677145004272,0.4111028015613556,0.0821591317653656
1761413906740911600,6.58291162109375,1.0077027082443237,0.29322412610054016,-0.008695142343640327
1761413906750924500,6.592924560546875,0.9470047950744629,0.2101154923439026,-0.0709071084856987
1761413906760937700,6.602937744140625,0.8956880569458008,0.2008948177099228,-0.0921253114938736
1761413906770949600,6.61294970703125,0.8470491170883179,0.25589799880981445,-0.0857580378651619
1761413906780962800,6.622962890625,0.8293920755386353,0.36192935705184937,-0.045561350882053375
1761413906790975700,6.632975830078125,0.8627182245254517,0.49312591552734375,0.012836085632443428
1761413906800987600,6.642987548828125,0.9353679418563843,0.6175472140312195,0.06559037417173386
1761413906811000600,6.65300048828125,1.0383366346359253,0.682283341884613,0.1017230823636055
1761413906821013800,6.663013671875,1.146549105644226,0.6689432263374329,0.10321815311908722
1761413906831025700,6.673025634765625,1.2496839761734009,0.5986632108688354,0.08807550370693207
1761413906841038600,6.68303857421875,1.3306925296783447,0.5218427181243896,0.067990742623806
1761413906851051800,6.6930517578125,1.3908804655075073,0.46185553073883057,0.05960555747151375
1761413906861064700,6.703064697265625,1.434232234954834,0.4325980544090271,0.07025101035833359
1761413906871076600,6.71307666015625,1.4630417823791504,0.4560850262641907,0.09978054463863373
1761413906881089800,6.72308984375,1.4848477840423584,0.5181902050971985,0.13523654639720917
1761413906891102700,6.733102783203125,1.5113974809646606,0.5896215438842773,0.15993699431419373
1761413906901114600,6.743114501953125,1.555171012878418,0.6337612867355347,0.1692090630531311
1761413906911127800,6.7531279296875,1.6097623109817505,0.6637223958969116,0.15988516807556152
1761413906921140700,6.763140625,1.6771365404129028,0.6709049344062805,0.13036109507083893
1761413906931152600,6.773152587890625,1.7492363452911377,0.6357610821723938,0.08987639099359512
1761413906941165600,6.78316552734375,1.8135615587234497,0.5529927015304565,0.03856392949819565
1761413906951178800,6.7931787109375,1.8647102117538452,0.43578752875328064,-0.01993437670171261
1761413906961190700,6.803190673828125,1.8918142318725586,0.30721649527549744,-0.07161115109920502
1761413906971203300,6.813203369140625,1.8938424587249756,0.20474518835544586,-0.11921776086091995
1761413906981216500,6.823216552734375,1.8819295167922974,0.15551505982875824,-0.13902528584003448
1761413906991228400,6.833228515625,1.8705806732177734,0.13678811490535736,-0.14492689073085785
1761413907001241300,6.843241455078125,1.8555556535720825,0.12415701150894165,-0.13983626663684845
1761413907011254500,6.853254638671875,1.8411904573440552,0.09681358188390732,-0.1287425011396408
1761413907021267500,6.863267333984375,1.831197738647461,0.06319011002779007,-0.10354606062173843
1761413907031279600,6.873279541015625,1.818479299545288,0.04984394460916519,-0.06824798882007599
1761413907041292500,6.88329248046875,1.8073374032974243,0.047885458916425705,-0.03691723197698593
1761413907051305500,6.893305419921875,1.7953187227249146,0.07148485630750656,-0.014598631300032139
1761413907061317400,6.9033173828125,1.7786966562271118,0.11614154279232025,-0.00005377712659537792
1761413907071330600,6.91333056640625,1.7597908973693848,0.18829990923404694,0.015971485525369644
1761413907081343500,6.923343505859375,1.7440170049667358,0.28362002968788147,0.015548042953014374
1761413907091355600,6.933355712890625,1.7344250679016113,0.37501010298728943,0.01174140628427267
1761413907101368300,6.943368408203125,1.7311067581176758,0.441240519285202,-0.0048567452467978
1761413907111381500,6.953381591796875,1.726525068283081,0.4810028672218323,-0.028671840205788612
1761413907121393400,6.963393310546875,1.7226405143737793,0.49628835916519165,-0.06081166863441467
1761413907131406600,6.973406494140625,1.7181248664855957,0.501377284526825,-0.08590979874134064
1761413907141419500,6.98341943359375,1.714149832725525,0.4933387339115143,-0.11504877358675003
1761413907151431700,6.993431640625,1.6976394653320312,0.4718756079673767,-0.13745905458927155
1761413907161444400,7.0034443359375,1.6694914102554321,0.4446016550064087,-0.14679716527462006
1761413907171457500,7.01345751953125,1.6273194551467896,0.42823532223701477,-0.13886041939258575
1761413907181470500,7.023470458984375,1.5753228664398193,0.42276492714881897,-0.1193985641002655
1761413907191482600,7.033482666015625,1.5130431652069092,0.41862279176712036,-0.0996570885181427
1761413907201495300,7.043495361328125,1.4471502304077148,0.41270363330841064,-0.085661381483078
1761413907211508500,7.053508544921875,1.3819469213485718,0.39922693371772766,-0.07834421843290329
1761413907221520400,7.063520263671875,1.3201799392700195,0.3769109845161438,-0.08019005507230759
1761413907231533600,7.073533447265625,1.2563902139663696,0.3564819395542145,-0.08581841737031937
1761413907241546500,7.08354638671875,1.1896556615829468,0.33882519602775574,-0.0951317548751831
1761413907251558700,7.09355859375,1.1251355409622192,0.33259114623069763,-0.09510751068592072
1761413907261571300,7.1035712890625,1.0715926885604858,0.3227803111076355,-0.08659737557172775
1761413907271584500,7.11358447265625,1.0362708568572998,0.30374857783317566,-0.06942633539438248
1761413907281596400,7.123596435546875,1.019440770149231,0.27831724286079407,-0.046370286494493484
1761413907291609600,7.133609619140625,1.020615816116333,0.244465172290802,-0.02408161573112011
1761413907301622300,7.143622314453125,1.031002402305603,0.2027297019958496,-0.00918495748192072
1761413907311634400,7.153634521484375,1.047579050064087,0.158160001039505,-0.005786128342151642
1761413907321647400,7.1636474609375,1.0627968311309814,0.11377816647291183,-0.005271339323371649
1761413907331660500,7.17366064453125,1.0681192874908447,0.057202085852622986,-0.0026200844440609217
1761413907341672400,7.18367236328125,1.0555698871612549,-0.005682071205228567,0.002977080876007676
1761413907351685600,7.193685546875,1.0283260345458984,-0.04429640248417854,0.019678398966789246
1761413907361698300,7.2036982421875,1.0029500722885132,-0.06636921316385269,0.0471518374979496
1761413907371711500,7.21371142578125,0.9799512624740601,-0.06438186764717102,0.07852750271558762
1761413907381723400,7.223723388671875,0.9650548696517944,-0.06223083287477493,0.10320594906806946
1761413907391736600,7.233736572265625,0.9496371150016785,-0.10130845010280609,0.11539065837860107
1761413907401749200,7.243749267578125,0.9283096790313721,-0.15958081185817719,0.12415912002325058
1761413907411761400,7.253761474609375,0.9031877517700195,-0.20478467643260956,0.11892000585794449
1761413907421774300,7.2637744140625,0.877983033657074,-0.2423086166381836,0.1131417453289032
1761413907431787500,7.27378759765625,0.8535045385360718,-0.27695488929748535,0.10018045455217361
1761413907441799400,7.28379931640625,0.824880063533783,-0.3025526702404022,0.08902633935213089
1761413907451812600,7.2938125,0.7839544415473938,-0.3224310874938965,0.08313217014074326
1761413907461825300,7.3038251953125,0.7414352297782898,-0.29333871603012085,0.0835404321551323
1761413907471837400,7.31383740234375,0.6919989585876465,-0.20868228375911713,0.10045716911554337
1761413907481850400,7.323850341796875,0.6550244092941284,-0.09620209038257599,0.11834828555583954
1761413907491863600,7.333863525390625,0.6328489184379578,0.028691738843917847,0.14092962443828583
1761413907501875500,7.34387548828125,0.6322854161262512,0.1275477409362793,0.1689239740371704
1761413907511888400,7.353888427734375,0.6522244811058044,0.20263288915157318,0.2041260302066803
1761413907521901300,7.3639013671875,0.7039321660995483,0.23429308831691742,0.238742858171463
1761413907531913500,7.37391357421875,0.7549853324890137,0.20462234318256378,0.25747445225715637
1761413907541926400,7.383926513671875,0.7642856240272522,0.12466438859701157,0.24279803037643433
1761413907551939600,7.393939697265625,0.7258520722389221,0.029806507751345634,0.20838020741939545
1761413907561952300,7.4039521484375,0.6553107500076294,-0.03609554469585419,0.17250315845012665
1761413907571964400,7.41396435546875,0.5647555589675903,-0.05810030549764633,0.14785024523735046
1761413907581977300,7.423977294921875,0.4796753227710724,-0.03336166962981224,0.13110774755477905
1761413907591990500,7.433990478515625,0.4138467311859131,0.017622001469135284,0.12439052760601044
1761413907602002400,7.44400244140625,0.3616282641887665,0.0720953643321991,0.10891544073820114
1761413907612015400,7.454015380859375,0.3270507752895355,0.09608081728219986,0.08510185033082962
1761413907622028300,7.4640283203125,0.30643630027770996,0.07382211834192276,0.05219582840800285
1761413907632040400,7.47404052734375,0.2922944128513336,0.04011314734816551,0.019454728811979294
1761413907642053400,7.484053466796875,0.2805402874946594,0.016364140436053276,-0.010540454648435116
1761413907652066600,7.494066650390625,0.27507537603378296,0.01218374539166689,-0.027497204020619392
1761413907662078500,7.504078369140625,0.27869755029678345,0.04482797533273697,-0.027268705889582634
1761413907672091400,7.51409130859375,0.27826613187789917,0.1350039541721344,0.007479112595319748
1761413907682104300,7.524104248046875,0.2866825461387634,0.2781491279602051,0.06648144125938416
1761413907692116500,7.534116455078125,0.31791630387306213,0.4370376765727997,0.1466061770915985
1761413907702129400,7.54412939453125,0.37124985456466675,0.5557488799095154,0.2258533239364624
1761413907712142600,7.554142578125,0.4270595908164978,0.6104292869567871,0.2835314869880676
1761413907722155300,7.5641552734375,0.4632229208946228,0.6040340065956116,0.3162582814693451
1761413907732167400,7.57416748046875,0.4726082682609558,0.5362244844436646,0.31721022725105286
1761413907742180400,7.584180419921875,0.46354979276657104,0.4265664517879486,0.2969749867916107
1761413907752193500,7.594193603515625,0.432028204202652,0.29099589586257935,0.260684072971344
1761413907762205400,7.604205322265625,0.3866013288497925,0.17404532432556152,0.22409489750862122
1761413907772218400,7.61421826171875,0.3247126638889313,0.10138537734746933,0.19286641478538513
1761413907782231300,7.624231201171875,0.2680265009403229,0.08732335269451141,0.17456436157226562
1761413907792243500,7.634243408203125,0.22689318656921387,0.10787191241979599,0.14971144497394562
1761413907802256400,7.64425634765625,0.19758616387844086,0.12790553271770477,0.11715269833803177
1761413907812269600,7.65426953125,0.18103152513504028,0.14098410308361053,0.06965318322181702
1761413907822281500,7.664281494140625,0.16886593401432037,0.15291745960712433,0.01745336316525936
1761413907832294400,7.67429443359375,0.16742339730262756,0.16635410487651825,-0.04216896370053291
1761413907842307300,7.684307373046875,0.1718226671218872,0.17439764738082886,-0.10360462963581085
1761413907852319500,7.694319580078125,0.17609283328056335,0.17040571570396423,-0.1623518317937851
1761413907862332400,7.70433251953125,0.18105828762054443,0.17205660045146942,-0.21523742377758026
1761413907872345300,7.714345458984375,0.18462271988391876,0.1729675680398941,-0.25220221281051636
1761413907882357200,7.724357177734375,0.19283750653266907,0.1949133425951004,-0.2650187015533447
1761413907892370400,7.734370361328125,0.19909627735614777,0.21799087524414062,-0.2603990435600281
1761413907902383400,7.74438330078125,0.2126682698726654,0.22448793053627014,-0.2471567541360855
1761413907912395500,7.7543955078125,0.22701898217201233,0.2247220128774643,-0.21117211878299713
1761413907922408400,7.764408447265625,0.24565152823925018,0.22934100031852722,-0.17463275790214539
1761413907932421400,7.77442138671875,0.2613671123981476,0.22379283607006073,-0.1413155496120453
1761413907942434600,7.7844345703125,0.2687946856021881,0.20396214723587036,-0.11362133175134659
1761413907952446500,7.794446533203125,0.26536422967910767,0.1783616989850998,-0.09908922016620636
1761413907962459600,7.804459716796875,0.25979742407798767,0.16044127941131592,-0.08905176818370819
1761413907972472600,7.81447265625,0.25801172852516174,0.14020657539367676,-0.0901755765080452
1761413907982484500,7.824484375,0.2631039321422577,0.12756960093975067,-0.08596166223287582
1761413907992497700,7.83449755859375,0.256507009267807,0.11559614539146423,-0.09981317073106766
1761413908002510600,7.844510498046875,0.24616514146327972,0.1039338931441307,-0.11501529067754745
1761413908012522500,7.8545224609375,0.23500460386276245,0.10271039605140686,-0.13706985116004944
1761413908022535700,7.86453564453125,0.2239743173122406,0.10802340507507324,-0.14823488891124725
1761413908032548600,7.874548583984375,0.218932643532753,0.12328211218118668,-0.1528884768486023
1761413908042560500,7.884560546875,0.2096235752105713,0.1423839032649994,-0.1577647179365158
1761413908052573700,7.89457373046875,0.2024795562028885,0.14259466528892517,-0.16107620298862457
1761413908062586600,7.904586669921875,0.19211159646511078,0.13560572266578674,-0.16163945198059082
1761413908072598500,7.9145986328125,0.17398835718631744,0.09650842100381851,-0.16397278010845184
1761413908082611500,7.924611572265625,0.13990841805934906,0.027026280760765076,-0.1707047075033188
1761413908092624600,7.934624755859375,0.09462681412696838,-0.05254824459552765,-0.18815533816814423
1761413908102636500,7.944636474609375,0.05260027199983597,-0.10757873952388763,-0.2016967087984085
1761413908112649700,7.954649658203125,0.020286718383431435,-0.14391760528087616,-0.2114890217781067
1761413908122662700,7.96466259765625,-0.00789724849164486,-0.157960444688797,-0.22455795109272003
1761413908132675600,7.974675537109375,-0.02427598461508751,-0.1572169065475464,-0.22939607501029968
1761413908142687500,7.9846875,-0.030873700976371765,-0.14665694534778595,-0.23296816647052765
1761413908152700700,7.99470068359375,-0.028945166617631912,-0.09040066599845886,-0.22751691937446594
1761413908162713600,8.004713623046875,-0.010535267181694508,-0.015152249485254288,-0.21987205743789673
1761413908172725800,8.014725830078126,0.04050816223025322,0.056437086313962936,-0.21282868087291718
1761413908182738400,8.024738525390624,0.10483894497156143,0.12127040326595306,-0.2021893560886383
1761413908192751600,8.034751708984375,0.17827050387859344,0.17864260077476501,-0.2058122307062149
1761413908202763500,8.044763427734376,0.2436620146036148,0.19426177442073822,-0.22127294540405273
1761413908212776700,8.054776611328125,0.2835843861103058,0.1481303721666336,-0.23597709834575653
1761413908222789600,8.06478955078125,0.30821436643600464,0.07341005653142929,-0.23891295492649078
1761413908232801800,8.0748017578125,0.32621386647224426,0.0017654350958764553,-0.21684573590755463
1761413908242814500,8.084814453125,0.3405137360095978,-0.06182339787483215,-0.17343860864639282
1761413908252827600,8.09482763671875,0.3553692102432251,-0.11273500323295593,-0.11192961782217026
1761413908262839600,8.104839599609376,0.3753586411476135,-0.13538305461406708,-0.03931533545255661
1761413908272852700,8.114852783203125,0.3999738097190857,-0.10400231182575226,0.039993397891521454
1761413908282865400,8.124865478515625,0.4171498715877533,-0.03148603066802025,0.11283830553293228
1761413908292877600,8.134877685546876,0.4353669583797455,0.09154988080263138,0.16546078026294708
1761413908302890500,8.144890380859374,0.4828931987285614,0.21684256196022034,0.1896824985742569
1761413908312903700,8.154903564453125,0.5362997651100159,0.19602586328983307,0.1566663235425949
1761413908322916600,8.16491650390625,0.5344080924987793,0.10184530168771744,0.07100334763526917
1761413908332928800,8.1749287109375,0.4825671911239624,0.07751995325088501,-0.008536889217793941
1761413908342941400,8.18494140625,0.4097723662853241,0.031151391565799713,-0.0843067541718483
1761413908352954600,8.19495458984375,0.3368751108646393,-0.07607154548168182,-0.14666007459163666
1761413908362966500,8.204966552734374,0.27164337038993835,-0.1598474085330963,-0.17220725119113922
1761413908372979700,8.214979736328125,0.21243996918201447,-0.1782182902097702,-0.1512122005224228
1761413908382992400,8.224992431640626,0.1799832284450531,-0.15279123187065125,-0.0999298244714737
1761413908393004500,8.235004638671874,0.1738094687461853,-0.09476016461849213,-0.011271552182734013
1761413908403017500,8.245017578125,0.20031137764453888,-0.0007537771016359329,0.09788423031568527
1761413908413030700,8.25503076171875,0.2583182454109192,0.08457911759614944,0.21151964366436005
1761413908423042600,8.26504248046875,0.3329980671405792,0.14078699052333832,0.30796679854393005
1761413908433055700,8.2750556640625,0.4032101035118103,0.18267567455768585,0.3797876536846161
1761413908443068400,8.285068359375,0.4628201723098755,0.2518020272254944,0.417492151260376
1761413908453080600,8.29508056640625,0.5221908092498779,0.3415030241012573,0.4368892014026642
1761413908463093500,8.305093505859375,0.5757296681404114,0.4062409996986389,0.4213182330131531
1761413908473106700,8.315106689453126,0.6097601056098938,0.43001624941825867,0.36549970507621765
1761413908483118600,8.32511865234375,0.6244384050369263,0.36613476276397705,0.27850914001464844
1761413908493131500,8.335131591796875,0.5942785739898682,0.25308334827423096,0.20526203513145447
1761413908503144400,8.34514453125,0.5239700078964233,0.04954596236348152,0.13388319313526154
1761413908513156600,8.355156494140624,0.44488394260406494,-0.05361080542206764,0.10353095829486847
1761413908523169500,8.36516943359375,0.3707554042339325,-0.04524022713303566,0.07785755395889282
1761413908533182700,8.3751826171875,0.3205350637435913,-0.030162356793880463,0.04463442414999008
1761413908543195400,8.3851953125,0.29730644822120667,-0.06849696487188339,-0.010314041748642921
1761413908553207600,8.39520751953125,0.2768822908401489,-0.1557910442352295,-0.07764547318220139
1761413908563220500,8.405220458984376,0.2719074785709381,-0.251954585313797,-0.144876167178154
1761413908573233700,8.415233642578125,0.284589558839798,-0.34416505694389343,-0.20181764662265778
1761413908583245600,8.42524560546875,0.31113460659980774,-0.42611023783683777,-0.24837370216846466
