time,seconds_elapsed,z,y,x
1761412856008270600,0.0732705078125,0.2032867763608694,0.17616627585366368,0.1248560127952136
1761412856018283500,0.083283447265625,0.004407295048236846,-0.011165537136793136,0.04657475896915421
1761412856028296700,0.093296630859375,-0.14739303970336914,-0.1483373348161578,-0.07155037466846406
1761412856038309600,0.1033095703125,-0.11724223158955574,-0.07201324293985963,-0.10714001283533871
1761412856048322600,0.113322509765625,0.034412557211518285,0.06628259033337235,-0.013412329682894051
1761412856058335500,0.12333544921875,0.16905892806649206,0.10177081395238638,0.0775090273445472
1761412856068348700,0.1333486328125,0.1542787075638771,0.06220774210989475,0.03500482401624322
1761412856078361600,0.143361572265625,0.01831657793521881,0.008113309959322213,-0.0489756643647328
1761412856088374500,0.15337451171875,-0.10832184303104876,-0.03105126408487558,-0.06820583174722268
1761412856098387500,0.163387451171875,-0.08338263208568096,-0.038083646939694876,0.007890406189952045
1761412856108400600,0.173400634765625,0.06972352456748485,0.004213818302750587,0.03117264370853081
1761412856118413600,0.18341357421875,0.14853285738825797,0.0729784347102046,0.003981708313617855
1761412856128425500,0.193425537109375,0.06629004298746585,0.04892112116590142,-0.004780512274801731
1761412856138438700,0.203438720703125,-0.05032499661445618,-0.01599427246749401,-0.04792502280063927
1761412856148451600,0.21345166015625,-0.029608956322073936,-0.016374796217679975,-0.016186214843019842
1761412856158464800,0.22346484375,0.041405192577838895,-0.029200521651655435,0.0192643436467275
1761412856168477400,0.2334775390625,0.05541092157661914,0.011235533633083104,0.019229710724763573
1761412856178490600,0.24349072265625,0.05091419467926025,0.03327405470088124,-0.000629438743647188
1761412856188503600,0.253503662109375,0.048441667085886,0.037813597826659676,-0.005831975822802633
1761412856198516500,0.2635166015625,0.027408231407403946,-0.0014295944117009639,0.005184252503793686
1761412856208529700,0.27352978515625,0.0026490532040596006,-0.018258125746250152,0.0069207757065072656
1761412856218542600,0.28354248046875,-0.0049812955439090725,-0.008549071028083562,-0.00023064868440851566
1761412856228555800,0.2935556640625,0.046239188605546946,0.007341302673518658,-0.011750680080987513
1761412856238568400,0.303568359375,0.06966390333473682,0.014560294141620397,-0.0068544690046459435
1761412856248581600,0.31358154296875,0.03770049284100532,0.019655571454018354,-0.010558986078388989
1761412856258594600,0.323594482421875,0.00793722274005413,0.0013227730363607406,0.013983681563753634
1761412856268607700,0.333607666015625,-0.012634440645575522,-0.011065876154601573,0.00043744156919419764
1761412856278620400,0.343620361328125,0.007988660666346549,0.005184270770102739,0.0061141902976669365
1761412856288633600,0.353633544921875,0.04198562281429767,0.014885726703703403,0.0034059542522765695
1761412856298646800,0.363646728515625,0.045214521732926366,0.018366700687259433,0.009623696255963295
1761412856308659500,0.373659423828125,0.044411388656497,0.021661942840367553,0.006610138854756951
1761412856318671600,0.383671630859375,-0.0025754034459590913,0.0018846447028219699,-0.0075322952009737485
1761412856328684500,0.3936845703125,-0.006247369956970215,-0.008220715856552124,-0.009044252400193364
1761412856338697700,0.40369775390625,0.020295184531807897,-0.00433569111675024,0.015290453313384205
1761412856348710700,0.413710693359375,0.03526362108290195,0.0077519293010234825,0.004292527828458697
1761412856358723600,0.4237236328125,0.05097790756523609,0.014620207635313272,0.0006626651598140597
1761412856368736500,0.433736572265625,0.021499884146451948,-0.0007968494661152362,-0.0012710793817415833
1761412856378749700,0.443749755859375,0.02469429627358913,0.008048428029567003,0.005512242349144071
1761412856388762400,0.453762451171875,0.016094225710630416,0.026461013685166835,-0.013878924281336366
1761412856398775600,0.463775634765625,0.02588262927532196,0.019837650022655723,-0.007248856883402913
1761412856408788700,0.473788818359375,0.047285482788085934,0.015942396149784325,0.007125267036352306
1761412856418801700,0.4838017578125,0.05041501298546791,0.03186462629437446,0.004235390813741833
1761412856428814600,0.493814697265625,0.01746434502005577,0.020928952390700577,0.007958155930228531
1761412856438827500,0.50382763671875,0.019962007054686544,0.004985825588554144,-0.0030068719320930537
1761412856448840700,0.5138408203125,0.01909340752661228,0.015000731385499238,-0.00411021179780364
1761412856458853400,0.523853271484375,0.03839607388973236,0.017853782729059457,-0.0003169387283734977
1761412856468866600,0.533866455078125,0.03586450958549976,0.003731295482814312,-0.0005526654466986656
1761412856478879700,0.543879638671875,0.023306056785583496,0.007425181564688682,-0.01169706846391782
1761412856488891600,0.5538916015625,0.01924596773982048,-0.0016251169838011263,-0.009953987656254321
1761412856498904800,0.56390478515625,0.02377601238489151,-0.007087766303867101,-0.0058604347323067485
1761412856508917500,0.57391748046875,0.028631635722517965,0.013056465449929236,-0.007382657597213983
1761412856518930700,0.5839306640625,0.04031447473168373,0.01151391218304634,-0.0025158552784472705
1761412856528943600,0.593943603515625,0.03417056514918804,0.014577975928783416,-0.015918978741578757
1761412856538956500,0.60395654296875,0.03774900815784931,0.0035654373966157436,-0.02406178879002109
1761412856548969500,0.613969482421875,0.016921324184536932,0.00655409781858325,-0.01675099085262045
1761412856558982700,0.623982666015625,0.0070686232119798655,0.0068937050364911556,-0.006159015820082277
1761412856568995600,0.63399560546875,0.04165829055607319,0.012791823164373635,0.015354568058159202
1761412856579008500,0.644008544921875,0.028965982243418693,0.0017485972329974173,-0.011570044550765305
1761412856589021700,0.654021728515625,0.024176994401216505,0.014029986657202244,-0.005358074700739234
1761412856599034600,0.66403466796875,0.04049567651748657,0.013244243106991052,-0.0041222492954693735
1761412856609047600,0.674047607421875,0.015962708285450933,0.008711860374361276,-0.013738766891974955
1761412856619060500,0.684060546875,0.022678280276060104,0.0034426877997815607,0.010080938504170626
1761412856629073700,0.69407373046875,0.027788170635700223,-0.011754589071124791,-0.005072353094536811
1761412856639086600,0.704086669921875,0.03887888897061348,0.006120820967853069,-0.011435768912918864
1761412856649098800,0.7140986328125,0.010773907470703125,0.007149579493701458,-0.011938695200067012
1761412856659112000,0.72411181640625,0.015875030001997945,-0.014779928241670131,-0.0033609460667707023
1761412856669125000,0.734125,0.03517652732133865,0.02054579829201102,-0.009175861156918107
1761412856679137000,0.744136962890625,0.026074936977028847,0.013513269306719302,-0.020636782777402548
1761412856689150000,0.75414990234375,0.02459434303045273,0.01671264986991882,0.0018575192338787017
1761412856699163000,0.764162841796875,0.037168577921390535,0.0006643091276288032,-0.011241725911851972
1761412856709176000,0.774176025390625,0.040862756264209744,0.025889059016108513,-0.002933715364336967
1761412856719189000,0.78418896484375,0.020914777734875677,0.02626709854826331,-0.007520988355670124
1761412856729202000,0.794201904296875,0.026114684465527532,0.03275894478559494,0.01664376761848107
1761412856739214800,0.80421484375,0.023815759873390196,0.006702858639508485,-0.007166895954683423
1761412856749228000,0.81422802734375,0.02274725385904312,0.021914894688129422,-0.013089034278970211
1761412856759241000,0.824240966796875,0.03020516864955425,0.02278188678100705,-0.0034117264059372243
1761412856769254000,0.83425390625,0.02107201412320137,0.013674158956855535,0.002216707935091108
1761412856779267000,0.84426708984375,0.03946399538218975,0.011656389393657445,0.006625299891270696
1761412856789280000,0.854280029296875,0.02454407414793968,0.010369418323040008,-0.0024599055738188324
1761412856799293000,0.86429296875,0.02502864279448986,0.000609071809053421,-0.013948884245008229
1761412856809305900,0.874305908203125,0.021025836893916128,-0.002416851883381605,-0.010719729598052799
1761412856819319000,0.884319091796875,0.036325697356462475,-0.0009517477668821811,-0.01675409612515941
1761412856829332000,0.89433203125,0.04177168780267238,0.006667202804237604,-0.003778148565534502
1761412856839345000,0.904344970703125,0.018281506621837616,-0.004419423877447843,0.008209153282921761
1761412856849356800,0.914356689453125,0.02442950785756111,-0.008825257620960474,-0.007040529628656804
1761412856859370000,0.924369873046875,0.034193361502885815,-0.0025884090580046175,-0.004198675532545894
1761412856869383000,0.9343828125,0.029406711748242376,0.010565233156085013,0.004418017371650785
1761412856879395800,0.944395751953125,0.019219079732894898,-0.004023118036240339,0.00019625322446227073
1761412856889409000,0.954408935546875,0.04044774572253227,0.002682224821299314,-0.0035791919273324307
1761412856899422000,0.964421875,0.02878185784816742,0.013435527895390986,0.004138414978981018
1761412856909435100,0.97443505859375,0.035353637453913685,0.01678089280053973,-0.0001292706691659987
1761412856919447800,0.98444775390625,0.023646248525381088,0.012745499804615973,-0.021768599818926305
1761412856929461000,0.9944609375,0.034411972689628596,-0.0002294248417019844,0.0012581468349322676
1761412856939474000,1.004473876953125,0.025875030490756033,-0.007368775202333927,0.0057913698177784675
1761412856949486800,1.01448681640625,0.027364976787567136,0.0017610183231532572,-0.0035917591479606922
1761412856959500000,1.0245,0.029282208585739135,0.0023715514369308946,-0.005721482919342815
1761412856969513000,1.034512939453125,0.030773908448219298,0.005394260258972644,0.0001562500076368451
1761412856979526100,1.044526123046875,0.03841653215587139,0.014152590123564004,0.008599303377978504
1761412856989538800,1.054538818359375,0.031235096219182013,0.01878083444610238,-0.0029556897341273722
1761412856999552000,1.064552001953125,0.009230769681930541,0.00476268435716629,-0.007688874002173543
1761412857009565000,1.07456494140625,0.021782208219170568,0.012916180196404456,-0.021913835242204367
1761412857019577000,1.0845771484375,0.03149754654765129,0.02239128002822399,-0.00015011252779513595
1761412857029590000,1.094590087890625,0.03973462901711464,0.009792056826502084,-0.01821680735517293
1761412857039603000,1.10460302734375,0.03315525062680244,0.009015227235108614,0.006462072153575718
1761412857049616000,1.114615966796875,0.027480712121725082,-0.009322685749083758,0.00539895470039919
1761412857059629000,1.124629150390625,0.02999941694438457,0.0038278877250850197,-0.013144801320508121
1761412857069642000,1.13464208984375,0.02401741992533207,0.021446546524018048,-0.005236859473865479
1761412857079655000,1.144655029296875,0.02771335183382034,-0.0016696867778897284,-0.0029162345065735277
1761412857089668000,1.154668212890625,0.037140520870685576,0.0044768531531095505,0.0030162608149461446
1761412857099681000,1.164680908203125,0.037167993399500845,0.009129939655959606,0.005333104656264185
1761412857109694000,1.17469384765625,0.030299861195683477,0.0075695584714412685,0.010098437628243117
1761412857119707000,1.184706787109375,0.023708207845687865,0.0054901218488812445,0.001531155090034008
1761412857129720000,1.194719970703125,0.02221884607076645,0.020714871248602867,-0.0017746267233975232
1761412857139733000,1.20473291015625,0.024321371307969093,0.017542670953273772,0.00936104499809444
1761412857149746000,1.214745849609375,0.025999533653259275,0.005555149909108877,-0.0012387845473363994
1761412857159759000,1.224759033203125,0.03511865965425968,0.013999006997048855,-0.002605524589587003
1761412857169772000,1.23477197265625,0.042572482791543007,0.008773673564195632,-0.004285586631018668
1761412857179785000,1.244784912109375,0.025378186884522435,0.005388999561965465,-0.017731964713986963
1761412857189798000,1.2547978515625,0.02373334228694439,0.006125058751553297,-0.0074624813677743075
1761412857199810000,1.26481005859375,0.02373100419938564,0.007173544891178608,-0.0029117775271646678
1761412857209823000,1.274822998046875,0.025218612408638,-0.012383388493955134,-0.011298680263478309
1761412857219836000,1.2848359375,0.036709143716096876,0.006049217036366463,0.005702248495910316
1761412857229848800,1.294848876953125,0.034924598386883735,0.0054214405268430705,-0.008897902732063085
1761412857239862000,1.304862060546875,0.03612754443585872,0.011088818638771772,-0.020168653808999806
1761412857249875000,1.314875,0.035550621330738066,0.020112229180336,-0.021301767758466303
1761412857259887900,1.324887939453125,0.034384500160813326,0.02057663182169199,-0.01597821638183668
1761412857269901000,1.334901123046875,0.03306698782145977,0.0024641981564462183,-0.0068857957246713335
1761412857279914000,1.3449140625,0.03563362343907356,0.0036938860818743705,0.0010519202057272196
1761412857289927000,1.354927001953125,0.04595043479204178,-0.0041994975164532655,0.003856255303043872
1761412857299939800,1.36493994140625,0.03385784593820572,0.010763678337633609,-0.0020093487947247923
1761412857309953000,1.374953125,0.019513094243407247,0.010069120202213525,-0.0007124225856736302
1761412857319966000,1.384966064453125,0.02564823599755764,0.002778086411207914,0.002730046018399298
1761412857329979000,1.394978759765625,0.030571079352498053,0.007371990072727203,-0.008729542161524296
1761412857339992000,1.404991943359375,0.05079027603864669,0.0068257543668150894,-0.010399228939414024
1761412857350005000,1.4150048828125,0.014392682489752768,0.005363572859764099,0.0069282100942917165
1761412857360018000,1.425017822265625,0.024092823249101638,0.003101473146677017,-0.00042187867388129234
1761412857370029800,1.43502978515625,0.02320084284543991,0.008899930292367934,0.0011578465319238603
1761412857380043000,1.44504296875,0.01435293500125408,0.0010632453173398972,-0.011319028931763023
1761412857390056000,1.455055908203125,0.028588381102681158,0.0006482347756624221,-0.025318821380101143
1761412857400069000,1.465069091796875,0.03396773605346679,-0.002470920158177614,0.00028343831757083536
1761412857410081800,1.475081787109375,0.03034779199063778,-0.0009800970785319805,0.0029388664634898303
1761412857420095000,1.485094970703125,0.032303017711639403,-0.001470510943979025,0.002730429610889405
1761412857430108200,1.495108154296875,0.020629531052708625,0.005866407815366983,-0.004648154599405825
1761412857440120800,1.505120849609375,0.019746318477392194,0.018350187943875787,-0.006826740747503936
1761412857450134000,1.515134033203125,0.033382629641890524,0.01854746408164501,-0.027617179716657846
1761412857460147000,1.52514697265625,0.037435704424977304,0.014453472766280173,0.01122517663585022
1761412857470160100,1.53516015625,0.02798749260008335,0.016833792031556365,0.01635989090949297
1761412857480172800,1.5451728515625,0.02527180390059948,0.013063479712605476,-0.002300879087205976
1761412857490186000,1.55518603515625,0.04411386701464653,0.0009958791695535182,-0.013452935687918215
1761412857500199200,1.56519921875,0.029278701454401014,0.011714110930263996,-0.017022483004070818
1761412857510211800,1.5752119140625,0.022661329141259193,0.016088672752678394,-0.0012309665670618415
1761412857520225000,1.58522509765625,0.021876900765299797,0.016873685650527475,0.011914218345936388
1761412857530237000,1.59523681640625,0.045350130811333655,-0.0017135259196162222,-0.00818990059318021
1761412857540250000,1.60525,0.03095978640913963,0.020255875434726477,0.0002868906499817967
1761412857550263000,1.615262939453125,0.023913375028967856,0.025995734260976313,-0.003576378915738314
1761412857560276000,1.62527587890625,0.022877602240443228,-0.0006933890916407107,0.003194576523918658
1761412857570289000,1.635288818359375,0.02288227841556072,-0.00698737466931343,-0.01088385238489136
1761412857580302000,1.645302001953125,0.014514263042807578,0.006128419752418995,-0.015625037296302616
1761412857590314800,1.655314697265625,0.028131869506835935,0.002387479658424854,-0.006470200661104172
1761412857600328000,1.665327880859375,0.029947394496202467,0.004819967502355575,-0.005163154916837811
1761412857610341000,1.675341064453125,0.03369242624342442,-0.001631546724587679,-0.00782961591342464
1761412857620354000,1.68535400390625,0.024623569124937055,0.012880378230661153,0.013302713562268764
1761412857630367000,1.695366943359375,0.029450550889968872,0.00818652132600546,0.000574986876361072
1761412857640380000,1.7053798828125,0.029033786782622334,0.0003850537948310375,0.014465382399782538
1761412857650393600,1.7153935546875,0.025445406901836394,0.009499211359769106,0.007297299135010689
1761412857660406300,1.72540625,0.029652210941910742,0.01481178468465805,0.010245317019335926
1761412857670419500,1.73541943359375,0.020530162331461904,0.015535861175507306,0.00986546912258491
1761412857680432400,1.745432373046875,0.024865561187267304,0.0020908347994089125,0.0032795696599408983
1761412857690445300,1.7554453125,0.04327741619050503,-0.0034605157174170016,-0.0030074564539827407
1761412857700457200,1.765457275390625,0.01947860745191574,0.009435352343320847,-0.01532404505573213
1761412857710470400,1.775470458984375,0.01992518217563629,0.0074801266223192215,-0.004874967358913272
1761412857720483300,1.7854833984375,0.023346973317861557,-0.004561608827114105,-0.021824165931064635
1761412857730496500,1.79549658203125,0.034597266128659244,0.006496814673393965,-0.009268727072142064
1761412857740509200,1.80550927734375,0.015019874477386473,-0.001114537113159895,-0.0014769772173836826
1761412857750522400,1.8155224609375,0.029991233637928962,-0.0023278584256768227,-0.0029449126117862758
1761412857760535600,1.82553564453125,0.017404723787307737,0.009731120419502257,-0.0035545872090384364
1761412857770548200,1.83554833984375,0.02490355511009693,0.0033515023849904537,-0.010920001410506665
1761412857780561400,1.8455615234375,0.022994506618380546,-0.0001277180328965187,-0.008974164572358131
1761412857790574300,1.85557421875,0.02305529689490795,-0.004340951813757419,-0.0012099055127240716
1761412857800587500,1.86558740234375,0.02711070976555347,0.009205050718784332,-0.00026411256259307265
1761412857810600200,1.87560009765625,0.029689620342850682,0.00602510550841689,-0.004930149878561496
1761412857820613400,1.88561328125,0.021759411865472793,0.005275602315366268,-0.005655852070916444
1761412857830626600,1.89562646484375,0.03506955981552601,0.01159545298665762,-0.018872385187074542
1761412857840639200,1.90563916015625,0.03270341520607471,0.005154898545145988,-0.008907145484443754
1761412857850652400,1.91565234375,0.03435001336932182,0.01592953666821122,-0.012176522543933243
1761412857860664300,1.925664306640625,0.02388181084692478,0.01198357552140951,0.0015615502282977103
1761412857870677500,1.935677490234375,0.030015783557295797,0.003155103030055761,-0.01971793263312429
1761412857880690400,1.9456904296875,0.03645253860652446,0.003170885121077299,0.00009520400278270245
1761412857890703400,1.955703369140625,0.017018939340114593,-0.00681157971099019,0.010676383646670728
1761412857900716300,1.96571630859375,0.017176175728440282,-0.0034052783988416193,0.0014224888174794613
1761412857910729500,1.9757294921875,0.05622048439383506,0.014320201775431632,-0.00820672386381775
1761412857920742400,1.985742431640625,0.021809096226096152,0.008147942881286143,-0.001847947687935084
1761412857930755300,1.99575537109375,0.0204693720549345,0.01379983116313815,0.014329115734249352
1761412857940768500,2.0057685546875,0.024980711999535558,0.024023703535646198,0.0060577108700759705
1761412857950781400,2.015781494140625,0.02439034489095211,0.003647124330699444,-0.004728983016964048
1761412857960794400,2.02579443359375,0.023349895927309988,-0.0019257073655724523,-0.00023894158871844409
1761412857970807300,2.035807373046875,0.03202653885781765,-0.006561842733621597,0.0011829261742532253
1761412857980820500,2.045820556640625,0.022777064475417136,-0.0069976038023829455,0.012039214698784053
1761412857990833400,2.05583349609375,0.03505143963694572,0.009281476955860853,0.0025283129012212157
1761412858000846300,2.065846435546875,0.02938917609155178,-0.012822656694054602,0.001183876022323966
1761412858010859500,2.075859619140625,0.035842297753691674,0.0023497779965400696,-0.01374203656129539
1761412858020871400,2.085871337890625,0.03315641967058182,0.007536532984673976,-0.0024477584782987834
1761412858030884400,2.09588427734375,0.0372048182785511,0.018109364925324917,0.0015182773421518504
1761412858040897300,2.105897216796875,0.020175357544422148,0.005974398234486579,0.008034563900996
1761412858050910500,2.115910400390625,0.03169453042447567,-0.003746931443363428,0.00032683906788006425
1761412858060923400,2.12592333984375,0.02376899812221527,-0.004845394204556942,-0.017373634529300033
1761412858070936300,2.135936279296875,0.01838964317142963,-0.0008469722181558609,0.010735493422765283
1761412858080949200,2.14594921875,0.023779519516229627,-0.00011646598652005195,0.013116214546840636
1761412858090962400,2.15596240234375,0.027611645025014876,0.01620645391345024,-0.009427570895664393
1761412858100975400,2.165975341796875,0.03418284010887146,0.005771715269237756,-0.007839497986622155
1761412858110988300,2.17598828125,0.0350783276438713,0.004738280568271875,0.0011405300709418952
1761412858121001500,2.18600146484375,0.03804769884347915,0.012482611084729433,0.009609850393701344
1761412858131014400,2.196014404296875,0.043107904842495916,0.008431143736839295,0.0022220599636435506
1761412858141027300,2.20602734375,0.02273556342124939,0.006460866577178239,-0.0015683087626472115
1761412858151040300,2.216040283203125,0.019578560695052146,-0.014127163421362637,0.00041791488481685517
1761412858161053400,2.226053466796875,0.02660802094042301,-0.004238806613534689,0.00020922230388969182
1761412858171066400,2.23606640625,0.03196633310317993,0.0015928221493959427,-0.007746887799724936
1761412858181078500,2.24607861328125,0.023324761486053464,-0.0036839492097496982,-0.004870108520705253
1761412858191091200,2.25609130859375,0.023467969349026677,-0.0061969549439847465,-0.009827329069282858
1761412858201104400,2.2661044921875,0.02796002007126808,-0.007119768877327442,-0.0016684994678013026
1761412858211117300,2.276117431640625,0.029752748706936834,-0.008904168076068163,-0.004083999644313007
1761412858221130500,2.286130615234375,0.03170797442793846,0.004674421551823616,-0.0119109304103069
1761412858231143400,2.296143310546875,0.01840074908733368,0.020033172594755885,-0.00022937004277482628
1761412858241156400,2.30615625,0.018982932889461516,0.022199849109351633,-0.003919328868202865
1761412858251169500,2.31616943359375,0.02389233224093914,0.02609744106978178,0.004049330189730972
1761412858261182200,2.32618212890625,0.018339374288916587,0.011522095489501952,0.0015346987539902328
1761412858271195400,2.3361953125,0.02653261761665344,0.0027428689673542977,-0.0034906916599720715
1761412858281208300,2.346208251953125,0.026656536257266997,0.010062690461426972,-0.010359481450915337
1761412858291221500,2.356221435546875,0.027372575572133063,0.009764438167214394,-0.01363970869798213
1761412858301234400,2.366234375,0.03709551268517971,0.0034951486393809315,0.01147224673209712
1761412858311247400,2.376247314453125,0.033814006796479223,-0.014061112447828053,-0.001348638129979372
1761412858321260500,2.386260498046875,0.014092238238453864,0.012567805150151252,0.005411320991627872
1761412858331273200,2.396273193359375,0.02415244448184967,0.0011627601690590381,-0.009428940868843346
1761412858341285400,2.406285400390625,0.02356909163594246,0.006913578780740499,0.001151782117318362
1761412858351298300,2.41629833984375,0.02192541608214378,0.007191665069758891,0.0004984327751211821
1761412858361311500,2.4263115234375,0.03943827641904354,0.004929711487144232,-0.012463467992842196
1761412858371324400,2.436324462890625,0.018048866909742355,0.0020600012697279454,-0.004360715960152447
1761412858381337300,2.44633740234375,0.03301964154839516,0.0045627778708934785,-0.010539678589720278
1761412858391350300,2.456350341796875,0.019269933137297628,0.009998831444978713,-0.008686744199413806
1761412858401363500,2.466363525390625,0.025428455767035483,-0.009109335259348154,-0.0007541063029319048
1761412858411376400,2.47637646484375,0.043075756138563154,0.015187193868309258,-0.013600308269355446
1761412858421389300,2.486389404296875,0.024830489873886107,0.011676555398851632,0.007548278221394866
1761412858431402500,2.496402587890625,0.025905425629019735,0.012262100201845169,-0.008017503168340772
1761412858441415400,2.50641552734375,0.01676642588376999,0.011275573382526636,-0.02745897521395236
1761412858451428400,2.516428466796875,0.016024083083868025,0.001984159554541111,-0.0020413148355670273
1761412858461441300,2.526441162109375,0.023026070800423622,-0.0026417466804385184,-0.013570917778089641
1761412858471454500,2.536454345703125,0.04203647621870041,0.005564794520288706,0.002381031651329249
1761412858481467400,2.54646728515625,0.0335012875854969,0.0072388652123510835,0.0016126228284090757
1761412858491480300,2.556480224609375,0.0254103355884552,0.010589198553562164,-0.013314696261007338
1761412858501492500,2.566492431640625,0.00906651903092861,0.0044670624114573,-0.0020473792501725257
1761412858511505400,2.57650537109375,0.020241408517956732,0.0018811375714838504,0.000842679635528475
1761412858521518600,2.5865185546875,0.02833469860255718,0.011098901641368866,-0.0002776478976011276
1761412858531531300,2.59653125,0.01862286740541458,0.014298428335040806,-0.007740640722028911
1761412858541544400,2.60654443359375,0.03553191663026809,-0.0066606269329786295,-0.016946184631157664
1761412858551557400,2.616557373046875,0.03208031487166881,0.020912731908261775,-0.0005693243205547332
1761412858561570300,2.6265703125,0.02910802106261253,0.006733399908244609,0.0074601067475974555
1761412858571583200,2.636583251953125,0.032877602729201316,-0.0019404665432870387,0.002864869645517319
1761412858581596400,2.646596435546875,0.018675474375486372,0.008920096297562121,0.0008268792781978845
1761412858591609600,2.656609619140625,0.026889760491251944,0.019020780681818724,-0.0013358517136424779
1761412858601622300,2.666622314453125,0.020158990931510926,0.004043868563324213,-0.020766327441204338
1761412858611635500,2.676635498046875,0.025413842719793318,0.000810585730522871,-0.0008546440679579973
1761412858621648400,2.6866484375,0.0274842192530632,0.009788841956108808,-0.012986724681966006
1761412858631661300,2.696661376953125,0.030755203747749326,0.009448211824893952,-0.019716325197927653
1761412858641674200,2.70667431640625,0.02729600320458412,-0.00529883706048131,-0.005539294752851128
1761412858651687700,2.716687744140625,0.0295364756077528,0.0008276829957962036,-0.012955379695631562
1761412858661699600,2.726699462890625,0.029974867025017737,-0.003616436931490898,-0.010650171493180096
1761412858671712500,2.73671240234375,0.019340660285949707,-0.006702858639508485,-0.0016434198254719375
1761412858681725400,2.746725341796875,0.018016133683919907,0.0015600889235734938,0.016920264738611877
1761412858691738600,2.756738525390625,0.0457183796018362,-0.010818331134319304,-0.012156740131229162
1761412858701751600,2.76675146484375,0.03180792767107486,0.008450725220143795,-0.007716090802662074
1761412858711764500,2.776764404296875,0.023887656065821647,0.009001637101173401,-0.002102963628619909
1761412858721777400,2.78677734375,0.040514965739846226,0.015496844339370727,-0.004033438500855118
1761412858731790600,2.79679052734375,0.02660977450609207,-0.004462093975394964,-0.01704274034081027
1761412858741803500,2.806803466796875,0.030827099940180777,-0.009993132356554269,-0.003881517608463764
1761412858751816400,2.81681640625,0.03871054666638374,0.001629354767501354,-0.0008643069454468786
1761412858761829600,2.82682958984375,0.04347381554543972,-0.002295563591271639,-0.010113945724628865
1761412858771842600,2.836842529296875,0.031767595660686494,-0.011695406229794024,0.011251224392559378
1761412858781855500,2.84685546875,0.025724223843216893,0.010888327630609273,0.0015464439907111227
1761412858791868400,2.856868408203125,0.0252490075469017,-0.005152706588059663,-0.012502813622541725
1761412858801881600,2.866881591796875,0.024614801296591757,-0.004226239392906427,-0.00448947517266497
1761412858811894500,2.87689453125,0.02430266660749912,0.008861790239065885,-0.012258373874798417
1761412858821906700,2.88690673828125,0.022961773392558095,0.005227963781356811,-0.00664732905998826
1761412858831919400,2.89691943359375,0.01980184805691242,0.01145969777777791,-0.010354823542106897
1761412858841932500,2.9069326171875,0.02877133645415306,-0.0019384207166731357,-0.0023892332240939137
1761412858851945500,2.916945556640625,0.025898411366343497,0.0019768530309200285,0.0001467515269294381
1761412858861958400,2.92695849609375,0.02366962940096855,0.008169716321676969,-0.012651720573939382
1761412858871971600,2.9369716796875,0.0197767136156559,-0.0006419511653482914,-0.009466277204547078
1761412858881984500,2.946984619140625,0.016619710889458655,0.015307020855695009,-0.004753624267876148
1761412858891997700,2.956997802734375,0.03364332640469074,0.015629823069274424,0.007002042515482753
1761412858902010400,2.96701025390625,0.026424481067061422,0.009843056361377238,0.008112506241723895
1761412858912023600,2.9770234375,0.016376549783349036,0.001300707335025072,-0.0009895407603122293
1761412858922036500,2.987036376953125,0.02128887174427509,0.008933540301024914,0.002267744002584368
1761412858932049400,2.99704931640625,0.0320505042552948,0.007808335663378238,-0.00949364013550803
1761412858942062600,3.0070625,0.030400983482599255,-0.006105038876831531,0.0031250914842821656
1761412858952075500,3.017075439453125,0.02211597021818161,-0.0029892449438571928,-0.004784640460647642
1761412858962088700,3.027088623046875,0.02432721652686596,0.005888473516702652,0.01725459299320355
1761412858972101400,3.037101318359375,0.028645664247870444,0.0013623743943870067,-0.0026215624089352785
1761412858982113500,3.047113525390625,0.02694996624588966,0.014477438163757324,-0.005563114019855857
1761412858992126500,3.05712646484375,0.006843582284450531,0.005612433054298162,0.0020260442011989653
1761412859002139600,3.0671396484375,0.034196868634223936,0.017126783628761768,-0.01903791447971016
1761412859012152300,3.07715234375,0.029391514179110526,0.0034670915886759754,-0.002144574280641973
1761412859022165500,3.08716552734375,0.020838789889216423,0.0009157996706664562,0.000241864198166877
1761412859032178400,3.097178466796875,0.018881810602545738,-0.013089490936696528,0.015807188930176196
1761412859042191600,3.107191650390625,0.021144494837522506,-0.009908376682549715,-0.004209434388577938
1761412859052204500,3.11720458984375,0.010828268006443978,0.009359802889078854,-0.006070405954867601
1761412859062217500,3.127217529296875,0.020752865171432495,0.017049480608850715,-0.00747451886544004
1761412859072230700,3.137230712890625,0.0243950210660696,0.010810732349753379,-0.015306929524149745
1761412859082243300,3.147243408203125,0.025758710634708405,0.019412848739326,-0.019718571953941135
1761412859092256500,3.157256591796875,0.028140052813291547,0.014998977819830178,-0.004232596068456769
1761412859102269400,3.16726953125,0.038002106136083603,0.014326046994328498,0.0056584276204928756
1761412859112282600,3.17728271484375,0.03636076866984367,0.021786153741925954,-0.009603128391969949
1761412859122295600,3.187295654296875,0.021391163074970243,0.012715543057769537,-0.008784943876881153
1761412859132308500,3.19730859375,0.025116321077942847,0.011008008487522602,-0.013363430773559956
1761412859142320400,3.2073203125,0.035571079596877095,0.0031942659966647624,-0.014618417537026106
1761412859152333600,3.21733349609375,0.03689326811134815,0.006314882235229015,-0.019258297498431054
1761412859162346500,3.227346435546875,0.009346505016088484,0.0050476387783885,-0.005281465800572187
1761412859172359400,3.237359375,0.02732347573339939,0.005094400529563427,-0.009874876271747051
1761412859182372600,3.24737255859375,0.02388181084692478,-0.005527531249821186,-0.013899656542111187
1761412859192385500,3.257385498046875,0.031799744364619256,0.008600947345793246,-0.010789433833397925
1761412859202398500,3.2673984375,0.012951251509785652,0.011107377208769321,-0.008002616126462817
1761412859212411400,3.277411376953125,0.024154782569408416,0.008071808905154467,-0.01632087407335639
1761412859222424600,3.287424560546875,0.02386310614645481,0.01072743798047304,-0.0010687617426738143
1761412859232437500,3.2974375,0.025676293048262595,-0.007913695733994246,-0.017333832241874188
1761412859242450400,3.307450439453125,0.0283861365288496,-0.01294847503080964,-0.015015746291540562
1761412859252463600,3.317463623046875,0.03542845625579357,-0.0014743103362619876,0.002512512543890625
1761412859262476500,3.3274765625,0.019722353079915045,-0.005224748910963535,0.006412113798316568
1761412859272489500,3.337489501953125,0.02496317634284496,0.0013467384338378906,-0.017936255114432424
1761412859282502400,3.34750244140625,0.020330255845189094,-0.007071545821428299,-0.006926127735059708
1761412859292515600,3.357515625,0.02693301511108875,0.009093699298799038,-0.006713562696613371
1761412859302527500,3.367527587890625,0.040265374892950054,0.006612550007551908,0.007140227143466472
1761412859312540400,3.37754052734375,0.04269114073514938,0.006615764877945184,0.00831568239731714
1761412859322553300,3.38755322265625,0.019936872613430023,0.009821429051458835,0.0015346804876811802
1761412859332566500,3.39756640625,0.020374094986915586,0.016137918721884487,-0.015878391002863645
1761412859342579700,3.407579833984375,0.027670097213983533,0.01093421259894967,-0.0039704380009323356
1761412859352592400,3.41759228515625,0.024780220991373062,0.004600917924195528,0.004910623194184154
1761412859362605600,3.42760546875,0.03148994776308536,0.01581058646366,-0.0053061253177933395
1761412859372618500,3.437618408203125,0.030696167036890983,0.017547493258863685,-0.0003775646081194281
1761412859382631400,3.44763134765625,0.027966449812054633,-0.0018799685277044772,-0.014388992695324123
1761412859392644400,3.457644287109375,0.00892974090874195,-0.0017323767505586147,-0.009041220192890614
1761412859402657500,3.467657470703125,0.01115969191789627,0.004922112702578306,0.006489435084536671
1761412859412670700,3.477670654296875,0.0166962832570076,-0.00015796704068779944,-0.00676142042633146
1761412859422683400,3.487683349609375,0.019082301610708237,-0.011174743356555699,-0.013241265698615461
1761412859432696600,3.497696533203125,0.025820085433125493,0.0028564123444259166,0.003995097518153488
1761412859442709500,3.50770947265625,0.030625439888238903,-0.014897563271969555,0.011717636327911167
1761412859452722400,3.517722412109375,0.03277881852984428,-0.004557371043413877,0.006194744720589369
1761412859462734300,3.527734375,0.023105565777420997,0.012242810979485512,0.0063350847730413076
1761412859472747500,3.53774755859375,0.031359599381685255,0.00043619946017861366,-0.008261924649775028
1761412859482760400,3.547760498046875,0.032144612279534336,0.011305676259845495,-0.009225929110031575
1761412859492773600,3.557773681640625,0.01630932976603508,0.009234422943741083,-0.0012286650121212004
1761412859502786300,3.567786376953125,0.03454349011480808,0.02387903436794877,-0.011407876258995383
1761412859512799500,3.577799560546875,0.030805472630262374,0.0008168693408370018,-0.0076766538414172825
1761412859522812700,3.587812744140625,0.036921909683942794,0.004053513174504041,-0.00979655033852905
1761412859532825300,3.597825439453125,0.026711481314897537,0.025636399429291485,0.004263192136120051
1761412859542838500,3.607838623046875,0.03761632168889045,0.012573065847158432,0.01285186452222988
1761412859552851500,3.6178515625,0.023214871370792388,0.005750818611681461,-0.015569416385237126
1761412859562864600,3.62786474609375,0.018878303471207617,0.0046883039467036725,0.0056980837774463
1761412859572877300,3.637877197265625,0.03471650859415531,0.007639993359148502,-0.004423661661148071
1761412859582890500,3.647890380859375,0.02588262927532196,0.010657441484183072,-0.0026665157955139875
1761412859592903700,3.657903564453125,0.023901684591174123,-0.005155044675618409,0.014944197158981114
1761412859602916400,3.667916259765625,0.03051145811975002,0.005182371073961258,-0.004683390309568494
1761412859612928500,3.677928466796875,0.021405776122212408,0.0017605799317359924,-0.000007982377056032419
1761412859622941400,3.68794140625,0.03125789257287979,-0.017717735259234903,-0.0011922967907972634
1761412859632954600,3.69795458984375,0.03485854741334915,0.0010809271045029163,0.016549166403897107
1761412859642967600,3.707967529296875,0.02779401585459709,0.004990063372254372,-0.020527038792613892
1761412859652980700,3.717980712890625,0.02928980737030506,0.012191957575082778,0.0017354637567885218
1761412859662993700,3.72799365234375,0.031200024905800816,0.00744096365571022,0.005208692825306207
1761412859673006800,3.7380068359375,0.02665945886671543,0.010234247636049985,-0.014104257469810545
1761412859683019500,3.74801953125,0.025097616377472876,-0.014130670552700756,-0.0011994206513278186
1761412859693032700,3.75803271484375,0.03539455398619175,0.0008216916464269161,0.013703403317648917
1761412859703045600,3.768045654296875,0.03716331722438335,0.0127726800724864,-0.0029802031208761037
1761412859713058800,3.778058837890625,0.047049920466542244,-0.0009082008861005306,0.00816715903840959
1761412859723071700,3.78807177734375,0.018300795844197273,0.011786299383640288,0.002542268361337483
1761412859733084700,3.798084716796875,0.022190789020061493,0.00610138561502099,-0.017071016587223858
1761412859743097900,3.808097900390625,0.01618891825675964,0.0055791153065860265,-0.0009836955414153634
1761412859753110500,3.818110595703125,0.019801263535022734,0.02596285490468144,0.002249349829368293
1761412859763123700,3.828123779296875,0.027743746972084045,0.010936550686508416,-0.018257943083159624
1761412859773135600,3.838135498046875,0.028203765699267386,0.006503975066542625,-0.005820650711189955
1761412859783148800,3.848148681640625,0.03640694589912891,0.012308861953020096,-0.011517766374256461
1761412859793161700,3.85816162109375,0.02964928833246231,0.017530980515480042,-0.0017307510490529238
1761412859803174700,3.868174560546875,0.029461072283983227,0.017589724965393544,-0.008859379086270928
1761412859813187600,3.8781875,0.030641221979260443,0.002860357867181301,0.0037002427574247118
1761412859823200800,3.88820068359375,0.04395955323576927,0.010964899998158216,-0.009412903049495071
1761412859833213700,3.898213623046875,0.042185529300570485,0.020276187570393085,-0.0009162015294656157
1761412859843226600,3.9082265625,0.008947861087322234,0.01335237965658307,0.002058503432385623
1761412859853239800,3.91823974609375,0.03706511754691601,0.005800795233249664,-0.0018075060796923935
1761412859863252700,3.928252685546875,0.0271574715167284,0.006108692138642072,0.0077197988633997735
1761412859873265700,3.938265625,0.002886369091272354,0.015080372492969035,0.0032842275687493382
1761412859883278600,3.948278564453125,0.02560907303094864,0.0015776245802640915,0.004171842324547469
1761412859893291800,3.958291748046875,0.023942601123452187,0.0021280980698764325,-0.007849288728274404
1761412859903304700,3.9683046875,0.02437105566859245,0.017611060014367103,-0.00018518384117633104
1761412859913317600,3.978317626953125,0.022834932142496107,0.0062817106179893015,-0.0014992073155008256
1761412859923330800,3.988330810546875,0.024177578923106194,-0.01570230378359556,-0.0005168634809553623
1761412859933342700,3.9983427734375,0.01965805567204952,0.009445581476390361,-0.0006701726128347218
1761412859943356000,4.00835595703125,0.02502162853181362,0.008526420804858208,0.0007187244622968137
1761412859953368600,4.01836865234375,0.023826281267404555,0.010903379069268703,-0.007424140385072678
1761412859963381800,4.0283818359375,0.01994037974476814,-0.008870119675993918,0.008310969689581543
1761412859973394700,4.038394775390625,0.031767595660686494,-0.007707505637407302,0.00006389554906636476
1761412859983407600,4.04840771484375,0.019065350475907326,0.0019433891527354716,-0.010931271723192184
1761412859993420500,4.058420654296875,0.010880290454626082,0.016980214764922855,-0.009673855540622025
1761412860003433700,4.068433837890625,0.033038346248865126,0.00017184943556785583,0.013174739801045507
1761412860013447000,4.078447021484375,0.038002690657973286,-0.004012304381281137,0.005796319987531751
1761412860023459600,4.08845947265625,0.01347498312294483,0.005517009855806827,0.0011481653881259262
1761412860033472800,4.09847265625,0.018740356305241585,0.00298632233440876,0.0027268494143150744
1761412860043485700,4.108485595703125,0.028788872110843657,0.008253741343319415,-0.005209569608140736
1761412860053498600,4.11849853515625,0.004133738803863525,0.01793137800991535,-0.022824502080027013
1761412860063511600,4.128511474609375,0.028232407271862027,0.00352875864803791,-0.004730864446796477
1761412860073524700,4.138524658203125,0.03809036894142628,0.013508447001129388,-0.015594368163403123
1761412860083536600,4.14853662109375,0.021772855868935584,0.005760170961916446,-0.008274108277913183
1761412860093549800,4.1585498046875,0.03549333818554878,0.005395283172279596,0.013655947446729986
1761412860103562800,4.168562744140625,0.03129413293004036,0.0021440262913703916,0.008645297944173217
1761412860113575700,4.17857568359375,0.03205401138663292,0.0007278758831322193,0.012487396857701241
1761412860123588900,4.1885888671875,0.03101823859810829,0.02504822427779436,-0.0000018083645962178707
1761412860133601800,4.198601806640625,0.01514203955233097,0.0014912614710628986,0.011732413771934807
1761412860143614700,4.20861474609375,0.029290391892194748,0.009641104048490523,-0.004283559070713818
1761412860153627600,4.218627685546875,0.03299918328225612,0.00907528685927391,-0.014784275623224674
1761412860163640800,4.228640869140625,0.026406945410370825,0.010438976427912711,-0.007811751463171094
1761412860173653500,4.238653564453125,0.023373861324787137,0.003601239362359047,-0.01420137943504378
1761412860183666700,4.248666748046875,0.02050385884642601,0.008234159860014915,-0.004147840394452214
1761412860193680000,4.258679931640625,0.02361643790900707,0.0077845163963735095,-0.004346066380292177
1761412860203692800,4.26869287109375,0.023724574458599088,0.0006602174744009972,0.006356438088323921
1761412860213705700,4.278705810546875,0.021472411617636678,0.011611235077679156,-0.008551573512423784
1761412860223718700,4.28871875,0.017001403683423996,-0.013918196845799684,0.0010521028688177466
1761412860233731800,4.29873193359375,0.02840659479498863,0.010766747077554463,0.01192976297494024
1761412860243743700,4.30874365234375,0.04115560173094272,0.0077896309629082675,-0.0016524981810711323
1761412860253756700,4.318756591796875,0.02859831797480583,0.0021961948700249196,-0.003988686043675989
1761412860263769600,4.32876953125,0.026672318348288534,-0.005840834982693195,-0.014354560702759771
1761412860273782800,4.33878271484375,0.028656185641884803,0.005342530071735381,-0.012174842043500392
1761412860283795700,4.348795654296875,0.03360416343808174,0.008595394387841224,-0.00174551022676751
1761412860293808600,4.35880859375,0.02215337961912155,0.01961523944362998,0.007510613092128187
1761412860303821800,4.36882177734375,0.020976737055182455,0.022802929569035766,0.007104662639740854
1761412860313834800,4.378834716796875,0.01872515873610973,0.01654796082749963,0.0040304428261704744
1761412860323847700,4.38884765625,0.04250000207722187,0.019024580074101686,0.011911971589922904
1761412860333860600,4.398860595703125,0.03255728473365307,0.0073906947731971736,0.005257555202022195
1761412860343873800,4.408873779296875,0.016484686332941055,-0.003964958108216524,0.00475910416059196
1761412860353886700,4.41888671875,0.026508067697286603,-0.008895400247722864,-0.0011095138781704009
1761412860363899600,4.428899658203125,0.03067746233642101,0.002886807482689619,-0.014693966991268098
1761412860373912800,4.438912841796875,0.03964519716799259,0.001296177290380001,0.00925363910086453
1761412860383925800,4.44892578125,0.02155073755085468,0.009631605567783117,-0.009772548408433794
1761412860393938700,4.458938720703125,0.028133623072504995,-0.0020347206979990005,0.007135368305258453
1761412860403950600,4.46895068359375,0.024993571481108662,0.004071048831194639,0.0019080803773365914
1761412860413963800,4.4789638671875,0.0326209976196289,0.0055791153065860265,0.00003901683613657951
1761412860423976700,4.488976806640625,0.006880991685390472,0.0011044541105628013,-0.0033880167367868123
1761412860433990000,4.498989990234375,0.0249877262622118,-0.0021972177833318707,0.003754877287801355
1761412860444002600,4.50900244140625,0.048043023157119745,0.02513414899557829,0.02069673280371353
1761412860454015700,4.519015625,0.032034137642383574,-0.001805295856297016,-0.0012307291050441562
1761412860464029000,4.52902880859375,0.026374796706438063,0.004650017762929201,-0.005044222978595644
1761412860474041600,4.53904150390625,0.028953122761845588,0.01194894259944558,0.0019702954259701072
1761412860484054800,4.5490546875,0.028194997870922087,0.005101122531294822,0.00528689089436084
1761412860494067700,4.559067626953125,0.022646131572127342,0.014138707728683947,0.018117402101308105
1761412860504081000,4.569080810546875,0.03177460992336273,0.011295885518193244,0.005278068267088383
1761412860514093600,4.579093505859375,0.02175824282169342,-0.0034089316606521606,0.0035391704441979526
1761412860524106800,4.589106689453125,0.022079729861021042,0.006317658714205026,0.001624404597748071
1761412860534119700,4.59911962890625,0.025227380236983298,0.0001432078629732132,0.011123670756444335
1761412860544132600,4.609132568359375,0.02401741992533207,0.0006647475190460681,0.021183968331385403
1761412860554145800,4.619145751953125,0.02015782188773155,0.003679273034632206,0.000795059367828071
1761412860564157700,4.62915771484375,0.02408522446453571,0.006791559836268424,-0.013020846147276461
1761412860574171000,4.6391708984375,0.03935936596393585,0.021367197677493094,-0.007123312541283667
1761412860584183800,4.649183837890625,0.03877250598669052,0.001237140579521656,-0.0024841997648589313
1761412860594196700,4.65919677734375,0.023655016353726386,0.012774872029572724,-0.009249035990983248
1761412860604209700,4.669209716796875,0.027369068440794942,0.004230623307079077,0.004167787203937769
1761412860614222800,4.679222900390625,0.030358313384652134,0.0037760114073753354,0.0003949906669557094
1761412860624235500,4.689235595703125,0.02407528759241104,-0.004021948992460966,0.0004797828735783696
1761412860634248700,4.699248779296875,0.02378770282268524,0.006850158155709505,0.017468838532082736
1761412860644261600,4.70926171875,0.031282442492246626,0.0045564942605793475,-0.02041070067025721
1761412860654274000,4.719274169921875,0.03876607624590397,0.007986322578787803,-0.012656469814293086
1761412860664287000,4.729286865234375,0.024231939458847045,-0.00029839842468500137,-0.012848266059346497
1761412860674300000,4.7392998046875,0.01374912388920784,0.011703443405777215,0.01893726711682975
1761412860684312800,4.749312744140625,0.010434884774684905,0.004020049296319484,0.003841112532839179
1761412860694326000,4.759325927734375,0.027327567386627196,0.009791910696029662,0.006533895280770957
1761412860704338700,4.769338623046875,0.031764673051238056,0.013498363998532294,-0.01133453702814877
1761412860714350800,4.779350830078125,0.022724457505345342,0.024431699814647434,0.0044250499006360765
1761412860724363800,4.78936376953125,0.024948563295602796,0.010325433050841092,0.0005559716486372053
1761412860734377000,4.799376953125,0.03047930941581726,0.005135170931369066,0.011175857601407914
1761412860744390000,4.809389892578125,0.026282442247867584,0.009822013573348522,0.0027232509514316917
1761412860754402800,4.81940283203125,0.01520692148208618,-0.013507424087822437,0.013501140477508305
1761412860764416000,4.829416015625,0.014299158987402916,0.00869344793483615,-0.0024683628749102354
1761412860774429000,4.839428955078125,0.021771102303266524,-0.001725216357409954,-0.01440234536724165
1761412860784441900,4.84944189453125,0.025668109741806982,-0.005946195053309202,0.010731474834773689
1761412860794454800,4.859454833984375,0.028546295526623723,0.003147650375962257,0.00758280154550448
1761412860804468000,4.869468017578125,0.026912556844949722,0.0008333820842206477,-0.008471950671263039
1761412860814481000,4.87948095703125,0.03230886293053627,-0.0017668635420501231,0.007652852840721607
1761412860824493800,4.889493896484375,0.03067278616130352,-0.014072072233259677,0.002395388970244676
1761412860834507000,4.899507080078125,0.04386778329908848,0.013329875563830137,-0.0045957120261155065
1761412860844520000,4.90952001953125,0.042537411478161806,0.018328560633957384,0.007347403620742261
1761412860854532900,4.919532958984375,0.036274843952059745,-0.0012405015803873538,0.0030186719677411018
1761412860864544800,4.929544677734375,0.025372926187515257,-0.0014991525165736674,-0.015664273328147828
1761412860874558000,4.939557861328125,0.033004443979263304,0.0014905308187007902,-0.012984076067153363
1761412860884571000,4.94957080078125,0.020485154145956037,0.008257540735602378,0.0009044928253628313
1761412860894584000,4.959583984375,0.029624738413095472,0.016561989352852104,0.008265961504075676
1761412860904596700,4.9695966796875,0.03278291018307209,0.011858780097961425,-0.000864964532572776
1761412860914610000,4.97960986328125,0.024726444977521893,0.003810790459811687,-0.010553579250909387
1761412860924622800,4.989622802734375,0.03176993374824524,0.0021202070243656634,-0.012691796856001018
1761412860934635800,4.9996357421875,0.030285832670331,0.002210077264904976,-0.007889054483082145
1761412860944649000,5.00964892578125,0.03149170132875442,0.015169950472563504,-0.0006608385289087891
1761412860954662000,5.019661865234375,0.02672960149347782,0.017708821300417184,-0.009004925036802888
1761412860964675000,5.029675048828125,0.01852349868416786,-0.0047153380841016765,-0.0020058051307685672
1761412860974687700,5.039687744140625,0.02410100655555725,0.007493570625782013,-0.012769026810675859
1761412860984701000,5.049700927734375,0.019365210205316542,0.010355682058632373,-0.0038360527652315794
1761412860994713900,5.0597138671875,0.02939092965722084,0.011419365767389535,-0.0014774156088009475
1761412861004726800,5.069726806640625,0.03627367490828037,0.016803396893292664,0.0037249936061911283
1761412861014738700,5.07973876953125,0.029093992537260055,0.013499533042311667,-0.00433501526331529
1761412861024751900,5.089751953125,0.01367547413110733,-0.0030778000101447105,0.02307730779731646
1761412861034764800,5.099764892578125,0.0162257431358099,0.003028115649521351,0.013979973503015934
1761412861044778000,5.109778076171875,0.02057692408263683,0.009709054718166589,0.002374967236723751
1761412861054791000,5.119791015625,0.02535539053082466,-0.014906184969842433,0.013468005392886697
1761412861064803800,5.129803955078125,0.02966623946726322,0.003056026569753885,-0.0006817534527741372
1761412861074817000,5.139817138671875,0.011384732845425604,0.003494856378436088,-0.0007964110746979713
1761412861084829700,5.14982958984375,0.028881811091303822,-0.000045592707395553586,0.00501077736672014
1761412861094843000,5.1598427734375,0.025128596037626266,0.0021202070243656634,-0.003475147030968219
1761412861104855800,5.169855712890625,0.03243511965870857,0.002686462604999542,-0.00779160372428596
1761412861114869000,5.179868896484375,0.03331891675591469,0.018317162457108495,-0.02041042667562142
1761412861124882000,5.1898818359375,0.028062311401963233,0.023982056351006028,0.008247530798241495
1761412861134894800,5.199894775390625,0.028183891955018043,0.005423486353456974,0.006751465287897735
1761412861144908000,5.209907958984375,0.024131401693820952,0.003094458884000778,-0.006858688522037118
1761412861154920700,5.219920654296875,0.014393267011642456,-0.009857961669564246,-0.014304967673681675
1761412861164934000,5.229933837890625,0.03623801907300949,-0.0029591420665383335,-0.003342588426172733
1761412861174945800,5.23994580078125,0.03011106062531471,-0.00030599720925092693,0.013878193628974259
1761412861184959000,5.249958984375,0.040429625543951984,0.014846709867566824,-0.01255293637458235
1761412861194972000,5.259971923828125,0.03475917869210243,0.010717062716931104,-0.006780344322510064
1761412861204984800,5.26998486328125,0.019659224715828896,0.013330313955247402,-0.001013834951352328
1761412861214997800,5.279997802734375,0.022912673553824422,-0.0008447802610695362,0.005609510444849729
1761412861225011000,5.290010986328125,0.04984744223058223,-0.0012840484611690043,-0.005982563274633139
1761412861235024000,5.30002392578125,0.027123569247126576,0.011775339598208666,-0.010904073189012705
1761412861245036800,5.310036865234375,0.02172083342075348,0.006021744507551193,-0.0046188919723033905
1761412861255050000,5.320050048828125,0.02096387757360935,0.012636340341717005,-0.002480857030302286
1761412861265063000,5.33006298828125,0.026777532288432118,0.008116670960187911,-0.005748681453522295
1761412861275075800,5.340075927734375,0.02437806993126869,0.007550269249081611,-0.005871211854647845
1761412861285088800,5.3500888671875,0.030330840855836868,0.003676204294711351,-0.00845163853559643
1761412861295102000,5.36010205078125,0.016563596788048744,0.00832066909968853,-0.00275881545515731
1761412861305115000,5.370114990234375,0.030914778223633765,0.011232026501744985,-0.002792297599650919
1761412861315127800,5.3801279296875,0.04362929836809635,0.0066198565311729905,-0.016385518541093914
1761412861325141000,5.39014111328125,0.018501286852359772,-0.004498334332555532,-0.0031208537005819378
1761412861335153000,5.40015283203125,0.003555646654963493,0.005130640886723995,0.0028457996188662946
1761412861345166000,5.410166015625,0.021527941197156904,-0.007815934447944164,0.0000519859155640006
1761412861355178800,5.4201787109375,0.029774960538744923,0.002729717224836349,0.005805982865020633
1761412861365192000,5.43019189453125,0.03607318390011787,0.004610708665847778,-0.0037157325875014063
1761412861375204900,5.440204833984375,0.023808745610713958,0.012964987774193287,0.0018456096003763376
1761412861385217800,5.4502177734375,0.02635433844029903,-0.006196808813512325,0.006181976570561528
1761412861395230700,5.460230712890625,0.024577391895651817,0.019011866723001,-0.0054905054413713515
1761412861405244000,5.470243896484375,0.027250410497188567,0.011927461419999598,-0.012572992781922221
1761412861415257000,5.480257080078125,0.027246903365850447,-0.005729629693180322,0.0005815810139290988
1761412861425269800,5.490269775390625,0.030527824732661246,0.012445201683789492,-0.003663107351120561
1761412861435283000,5.500282958984375,0.023618775996565818,0.02201309436559677,-0.013503423766139893
1761412861445295900,5.5102958984375,0.024048399585485457,0.014324293428659438,-0.004433890794217586
1761412861455308800,5.520308837890625,0.022243395990133284,-0.005967091710865497,0.005383337006159126
1761412861465321700,5.53032177734375,0.031221652215719223,-0.006415712261199951,0.017352043751999734
1761412861475335000,5.5403349609375,0.04261339932382106,0.007091419565677643,0.01594667046610266
1761412861485346800,5.550346923828125,0.02346621578335762,0.008700462197512387,-0.005787150300387293
1761412861495360000,5.560360107421875,0.02110240926146507,0.016319412768632174,-0.019751597440708427
1761412861505373000,5.570373046875,0.04039104709923267,0.011315759262442588,0.00591229278370738
1761412861515385900,5.5803857421875,0.03187748577594757,0.017367752777785062,-0.0024760347247123715
1761412861525399000,5.59039892578125,0.028601240584254263,0.006970277404040098,0.0010483948080800473
1761412861535411700,5.60041162109375,0.0282990427672863,0.0029356150604784486,-0.003066584496386349
1761412861545425000,5.6104248046875,0.02093815861046314,0.015180325736105442,-0.016294314859993754
1761412861555437800,5.620437744140625,0.017804536759853364,-0.0004617722928524017,-0.0026251608718186616
1761412861565451000,5.630450927734375,0.03201777102947235,0.016159984423220156,-0.0008270254086703062
1761412861575463700,5.640463623046875,0.04415302998125553,0.009663754271715879,-0.007769958148058503
1761412861585476900,5.650476806640625,0.031280688926577566,0.014022241742163896,0.008559354960080236
1761412861595490000,5.660489990234375,0.01227203707396984,0.013453794204443693,0.00500807395298034
1761412861605502700,5.670502685546875,0.03033551703095436,0.003348725906014442,0.0015355938031338153
1761412861615516000,5.680515869140625,0.021963994526863095,-0.0003038052521646023,0.006954951970744878
1761412861625528800,5.69052880859375,0.02855097170174122,0.0005858370639383793,-0.004994995275698602
1761412861635541000,5.700541015625,0.036653614136576654,0.02231836092248559,-0.012759309134259818
1761412861645554000,5.710553955078125,0.03441840243041515,0.008827157317101954,-0.001189885638002306
1761412861655566800,5.72056689453125,0.022744915771484374,0.009268471343815326,0.005427596272993832
1761412861665579800,5.730579833984375,0.01929506757855415,0.026348054829984903,-0.009852500043157488
1761412861675593000,5.740593017578125,0.02799918303787708,0.006903788039088248,0.007871591891627758
1761412861685606000,5.75060595703125,0.023240590333938597,0.005554273126274347,-0.0010758673368953169
1761412861695618800,5.760618896484375,0.029672669208049774,-0.0076095982208848,-0.004451462983526289
1761412861705631700,5.7706318359375,0.033383798685669895,0.0069030573867261405,-0.00016996800573542713
1761412861715645000,5.78064501953125,0.02872983539998531,0.014154343689233065,0.020858133910503236
1761412861725657900,5.790657958984375,0.028255203625559805,0.003514437861740589,0.008135357394348829
1761412861735670800,5.8006708984375,0.03226034761369228,0.01223199732452631,-0.0031992161664180455
1761412861745684000,5.81068408203125,0.028830957686901092,0.01426233410835266,0.00008897519139572977
1761412861755697000,5.82069677734375,0.04036766622364521,-0.0036430326774716374,-0.006514076335448771
1761412861765709800,5.830709716796875,0.03845218799114227,-0.004692395599931478,-0.006796619603876024
1761412861775722800,5.84072265625,0.033978257447481154,-0.002366436870396137,-0.005362787408474833
1761412861785735000,5.85073486328125,0.032898060995340345,0.003339811947196722,-0.012090616092458366
1761412861795747800,5.860747802734375,0.015126257461309432,0.0015064590401947498,-0.0024105500067584215
1761412861805760800,5.8707607421875,0.018543956950306893,0.004751578441262245,0.002216397407837212
1761412861815773700,5.880773681640625,0.019146014496684072,0.00531213493347168,-0.006324234585464
1761412861825787000,5.890786865234375,0.03143734079301357,-0.0021304361574351785,-0.007974723472539335
1761412861835799800,5.9007998046875,0.02813128498494625,-0.0008382043898105621,-0.006755027218163013
1761412861845812700,5.910812744140625,0.024067688807845114,0.016045272002369163,-0.003438924940116703
1761412861855826000,5.920825927734375,0.01849485711157322,0.00740457716807723,0.01211257219593972
1761412861865838800,5.9308388671875,0.03391045290827751,0.0014008067086338997,0.0038543921395204957
1761412861875851800,5.940851806640625,0.03720189566910267,0.004533551776409149,-0.004773443213198334
1761412861885864700,5.95086474609375,0.03153261786103249,0.010422609815001488,-0.00946940074339509
1761412861895878000,5.9608779296875,0.016570611050724982,0.004558247826248407,-0.0033338936630636453
1761412861905890800,5.970890869140625,0.021216391029953954,0.012014847442507743,0.0033317199722863733
1761412861915903700,5.98090380859375,0.03228840466439724,0.017566051828861236,0.01581219389885664
1761412861925917000,5.9909169921875,0.02557809337079525,0.012341156787425278,0.007006791755836457
1761412861935928800,6.0009287109375,0.03020341508388519,0.006563596299290657,-0.015659725017193704
1761412861945942000,6.01094189453125,0.026021745485067367,0.01190714928433299,0.0009329517348669469
1761412861955954700,6.02095458984375,0.02020575268268585,-0.0018200550340116022,0.005063146874774247
1761412861965968000,6.0309677734375,0.02306055759191513,-0.00039528292790055273,-0.00039530119420960546
1761412861975980800,6.040980712890625,0.02756488327383995,-0.009323124140501023,0.0033296010804362594
1761412861985994000,6.050993896484375,0.03010404636263847,0.00715513245165348,0.011679660671390592
1761412861996006700,6.061006591796875,0.02952420064806938,0.0010831190615892409,0.019398053028993306
1761412862006019800,6.071019775390625,0.034894787770509715,0.005957008708268404,0.0014340879237279296
1761412862016033000,6.081032958984375,0.029221418309211728,0.008274053478986024,0.0021017763185314834
1761412862026045700,6.091045654296875,0.031164369070529937,0.009021656975895166,-0.005475125209148973
1761412862036059000,6.101058837890625,0.03326806335151195,0.015563333704322576,-0.01052760455943644
1761412862046071800,6.11107177734375,0.021461305701732634,0.0006546645164489745,0.0012946429204195736
1761412862056085000,6.1210849609375,0.037301264390349385,-0.003872895910590887,-0.0059004196828231215
1761412862066097700,6.13109765625,0.02594868024885654,-0.0003875380128622055,-0.011752872038073837
1761412862076110800,6.14111083984375,0.020115736311674116,-0.0033998715713620185,0.010948971776664257
1761412862086122800,6.151122802734375,0.01936053403019905,0.0020152853451669214,-0.01995468226475641
1761412862096136000,6.161135986328125,0.012613397857546806,0.012259908244758843,-0.022792426441330463
1761412862106148900,6.17114892578125,0.026374796706438063,-0.001784253068268299,-0.00024575492199510336
1761412862116161800,6.181161865234375,0.019918752434849737,0.002069207489490509,0.004398052295856178
1761412862126175000,6.191175048828125,0.03053542351722717,0.01795885053873062,-0.0016794957858510314
1761412862136188000,6.20118798828125,0.020064882907271386,-0.00002586509361863136,-0.008156674177013337
1761412862146200800,6.211200927734375,0.020669863063097,-0.010683014316856861,0.011743263959512114
1761412862156213800,6.2212138671875,0.028767244800925254,0.01002250458151102,-0.0028126828005537387
1761412862166227000,6.23122705078125,0.030130934369564055,0.014136077380180358,-0.016186379239801315
1761412862176239600,6.241239501953125,0.02865677016377449,0.0017706629343330858,0.0044705878091044725
1761412862186252800,6.251252685546875,0.024589666855335233,-0.0021130466312170026,0.006836677619628608
1761412862196266000,6.261265869140625,0.03207739226222038,0.007580664387345314,-0.019512473188899458
1761412862206279000,6.27127880859375,0.023698270973563192,-0.0018560031302273271,-0.006708575994241983
1761412862216291800,6.281291748046875,0.03672317224144935,0.004693856904655695,-0.016573752855882046
1761412862226304800,6.2913046875,0.016668226206302643,-0.004424392313510179,-0.004214256694167852
1761412862236317000,6.30131689453125,0.023386136284470557,-0.0023902561374008653,0.007638075396697968
1761412862246329900,6.311329833984375,0.028925650233030318,0.018996230762451886,-0.001585972283501178
1761412862256342800,6.3213427734375,0.023684242448210716,0.0016489362508058548,-0.00048718072874471543
1761412862266355700,6.331355712890625,0.029801848545670508,-0.01069178214520216,-0.021822631561104207
1761412862276369000,6.341368896484375,0.029372809478640554,0.012409691978991031,-0.009922295610047876
1761412862286382000,6.351382080078125,0.044509003812074656,0.012889584450423716,-0.011271006805263458
1761412862296394800,6.361394775390625,0.036548984718322755,0.001057546228915453,0.005545121705438942
1761412862306408000,6.371407958984375,0.03952420113682747,-0.00439165908768773,-0.0024212357975542543
1761412862316420900,6.3814208984375,0.04103869735300541,-0.011216682802140712,0.011957600829936563
1761412862326433800,6.391433837890625,0.008851999497413634,-0.002463905895501375,-0.012750961431022733
1761412862336446700,6.40144677734375,0.02246200717687607,0.014482406599819659,-0.008101984847709536
1761412862346460000,6.4114599609375,0.030516134294867513,0.0009825812965631483,-0.008094842720869928
1761412862356472800,6.421472900390625,0.0490472317636013,-0.007440817525237798,0.01570473320269957
1761412862366485800,6.43148583984375,0.026015315744280815,-0.007196633505821228,-0.003552011659462005
1761412862376497700,6.44149755859375,0.02315583465993404,-0.007837561757862568,-0.018938253497518598
1761412862386510800,6.4515107421875,0.03197977710664272,0.0013264262981712818,-0.005518763421475887
1761412862396524000,6.46152392578125,0.029423662883043288,0.010965776780992746,0.007494009017199278
1761412862406536700,6.47153662109375,0.0201730194568634,0.006790829183906316,0.002583860747050494
1761412862416550000,6.4815498046875,0.028138299247622487,0.009173194275796413,0.008250910065416246
1761412862426562800,6.491562744140625,0.011978022563457489,0.003794716107845306,-0.0025711473959498105
1761412862436576000,6.501575927734375,0.010313304221630095,0.009738719204068184,-0.004592643286194652
1761412862446588700,6.511588623046875,0.023501287096738814,0.013234452365338802,-0.007210187107138335
1761412862456601900,6.521601806640625,0.038166356787085534,0.004402618873119354,0.00041974151572212576
1761412862466614800,6.53161474609375,0.02199380514323711,-0.008702215763181448,-0.007640998006146401
1761412862476627700,6.541627685546875,0.020229718080163002,0.002646861246973276,-0.008003237180970608
1761412862486641000,6.551640869140625,0.009757423904538154,0.010095862078666687,0.006953709861729294
1761412862496653800,6.56165380859375,0.013226561319828033,0.009943301865458488,-0.014523706724587826
1761412862506667000,6.5716669921875,0.021322189491987227,0.007912234429270028,-0.004850874097272753
1761412862516679700,6.5816796875,0.021632570615410802,0.003358808908611536,-0.0005725939898751675
1761412862526692900,6.59169287109375,0.027331659039855002,0.004940963533520699,-0.003677957860380411
1761412862536704800,6.601704833984375,0.039892449927330015,0.0036298809349536894,-0.007501151144038885
1761412862546718000,6.611718017578125,0.015187047737836837,-0.00003112579062581062,-0.01048926357673481
1761412862556730600,6.621730712890625,0.032249241697788235,0.004586597137898206,-0.001068085889238864
1761412862566743800,6.631743896484375,0.024933950248360634,-0.009121171827614306,-0.005148194809723645
1761412862576757000,6.641757080078125,0.038843233135342596,0.006636077013611793,-0.01345094466023147
1761412862586770000,6.65177001953125,0.03555938915908336,0.008101181130111218,-0.005140431628376245
1761412862596782800,6.661782958984375,0.038407179805636404,0.012704875533282756,-0.0025327150817029175
1761412862606795800,6.671795654296875,0.02841010192632675,0.006121405489742756,0.007216415918525308
1761412862616809000,6.68180908203125,0.038165187743306156,0.008823942446708678,0.0011435257456265389
1761412862626821600,6.691821533203125,0.038187984097003934,0.013624766857177019,0.005640088246203959
1761412862636834800,6.701834716796875,0.018002689680457113,0.01805105886682868,0.015809106892626733
1761412862646847700,6.71184765625,0.02700023512840271,0.0015124503895640373,0.014025675808265805
1761412862656861200,6.721861083984375,0.009656301617622374,0.0023394027329981327,-0.006748981069866568
1761412862666874000,6.7318740234375,0.02270809089243412,0.0074142217792570585,-0.01398136174250394
1761412862676887000,6.741886962890625,0.025385201147198676,0.003162263423204422,-0.018775263221841306
1761412862686899200,6.751899169921875,0.030312720677256582,0.000374094009399414,-0.018764486099500207
1761412862696912100,6.761912109375,0.039111528682708736,0.00007175006195902824,-0.010891505968384445
1761412862706925000,6.771925048828125,0.027460838377475736,-0.0013978840991854668,-0.009818378577847033
1761412862716938000,6.78193798828125,0.02132686566710472,0.015029665219038724,-0.005066087750531733
1761412862726951200,6.791951171875,0.014593173497915267,0.00799932819083333,-0.011499920190311968
1761412862736964000,6.801964111328125,0.02314414422214031,0.000552519316226244,0.013647873738128691
1761412862746977000,6.81197705078125,0.03693009299039841,-0.0011911094807088374,0.007975545456446707
1761412862756990200,6.821990234375,0.026425065588951108,0.004951192666590214,0.0018370975003577767
1761412862767003100,6.832003173828125,0.01908522422015667,0.0057509647421538825,-0.02830302482265979
1761412862777016000,6.84201611328125,0.038811084431409834,0.005722177039086818,0.01213052797773853
1761412862787029000,6.852029052734375,0.028483167162537574,0.0039307635776698584,0.010990947754867374
1761412862797042200,6.862042236328125,0.023743863680958748,0.0017556114956736564,-0.001240866906568408
1761412862807055000,6.87205517578125,0.0156897365629673,0.0046039866641163826,-0.01581279668705538
1761412862817068000,6.882068115234375,0.02108545812666416,0.003938216231763362,0.0028914836578071115
1761412862827081200,6.892081298828125,0.035169513058662415,-0.0027317630514502524,0.008802771794516592
1761412862837093000,6.902093017578125,0.018569675913453102,0.013065233278274536,0.017518175832834094
1761412862847106000,6.91210595703125,0.03115677028596401,0.008495295014232396,0.026726861547119913
1761412862857119000,6.922118896484375,0.023068740898370743,0.006584785217791795,-0.00023477687025442719
1761412862867132200,6.932132080078125,0.036081367206573484,0.012004033787548541,-0.008766312241647391
1761412862877145000,6.94214501953125,0.032661914151906966,0.011585077723115681,-0.0005573233555071056
1761412862887158300,6.952158203125,0.020851064848899842,0.005095423442870378,0.0067873585851863025
1761412862897171000,6.9621708984375,0.0196457807123661,-0.003388035003095865,-0.012221457664202897
1761412862907184000,6.97218408203125,0.015607903498411178,-0.0044505496680736535,-0.018523663080949337
1761412862917197000,6.982197021484375,0.018163433200120926,-0.004373246648162603,-0.005427596272993832
1761412862927210000,6.9922099609375,0.018336451679468155,-0.011093787074834108,-0.009732581724226474
1761412862937223200,7.00222314453125,0.031793899145722386,0.010661094745993614,-0.004144241931568831
1761412862947236000,7.012236083984375,0.026404022800922394,0.0037855098880827426,-0.007644943528901785
1761412862957249300,7.022249267578125,0.036892099067568775,0.007898936556279658,0.0066508361913263795
1761412862967262000,7.032261962890625,0.026415713238716124,-0.011114537601917981,-0.00499795441776514
1761412862977275100,7.042275146484375,0.03781798174083233,0.0099994159668684,-0.005599518773797899
1761412862987287000,7.052287109375,0.031117022797465324,-0.0007817980274558067,0.007238792147114872
1761412862997300200,7.06230029296875,0.03397241222858429,0.009489712879061698,-0.009149247144628316
1761412863007313000,7.07231298828125,0.022301848179101944,0.004839402855187654,-0.002896031968761235
1761412863017326000,7.082326171875,0.021866379371285438,0.009264525821059941,0.0022221512951888143
1761412863027339000,7.092339111328125,0.022166239100694655,-0.0010495090529322624,-0.0036409868508577347
1761412863037352200,7.102352294921875,0.027837854996323585,-0.005468348408490419,0.01711834459397942
1761412863047365000,7.112365234375,0.02903846295773983,0.004536912777274847,0.005114182942267507
1761412863057378000,7.1223779296875,0.025631284862756728,0.002708382175862789,-0.02676485546994954
1761412863067391200,7.13239111328125,0.0290659354865551,0.001827215427160263,-0.01105572008676827
1761412863077404000,7.14240380859375,0.028118425503373144,0.00014393851533532143,-0.017768168538529423
1761412863087417000,7.1524169921875,0.021858196064829825,0.002853781995922327,-0.010775460106972605
1761412863097430000,7.162429931640625,0.027274375894665717,0.0010419102683663368,-0.006237981074117124
1761412863107443200,7.172443115234375,0.024895371803641316,0.01279839903563261,-0.010786091098841278
1761412863117456100,7.1824560546875,0.03687514793276787,0.006922200478613376,0.0073765383836813265
1761412863127469000,7.192468994140625,0.03118424281477928,0.018475567889213562,0.010859868721105158
1761412863137481000,7.20248095703125,0.020713117682933806,0.006643675798177718,0.01601608244050294
1761412863147494100,7.212494140625,0.03715221130847931,0.008571136729419232,0.0034774120532907542
1761412863157507000,7.222507080078125,0.01976560769975185,-0.002344225038588047,-0.008433025166671722
1761412863167520000,7.23252001953125,0.02262216617465019,0.012403992890566587,-0.0010763970598578452
1761412863177533200,7.242533203125,0.009437690430879593,-0.0006688391722738743,-0.009229600638151168
1761412863187546000,7.252546142578125,0.013927987587451934,0.008461246614158154,0.007739672607649117
1761412863197559000,7.26255908203125,0.0314274039208889,0.019281915836036206,-0.0017898060262203216
1761412863207572000,7.272572021484375,0.0453916318655014,-0.004599456619471311,-0.005910594016965478
1761412863217585200,7.282585205078125,0.03747895904481411,0.00967544470950961,0.013272976011130958
1761412863227598000,7.29259814453125,0.03763853352069855,0.010666501573473215,-0.007831771337892859
1761412863237611000,7.302611083984375,0.03629004152119159,0.004847732292115688,-0.012572645722050219
1761412863247624200,7.312624267578125,0.019992986714839935,0.0017922902442514895,0.004839147126860916
1761412863257637000,7.32263720703125,0.03168050189912319,0.0006564180821180344,0.010783351152483373
1761412863267650000,7.332650146484375,0.028369769915938377,0.0009035247109830379,0.0033030601333826778
1761412863277663000,7.3426630859375,0.022817981007695196,-0.004229600393772125,-0.014159056396968663
1761412863287675100,7.352675048828125,0.04539513899683952,-0.0024852409444749354,-0.011881558185350149
1761412863297688000,7.36268798828125,0.03521452124416828,0.016556436394900082,0.003462214484158903
1761412863307701000,7.372700927734375,0.031794483667612075,0.006883037512004375,0.005231142119131982
1761412863317714000,7.3827138671875,0.017165654334425927,0.013137129470705985,0.016045399866532535
1761412863327727000,7.39272705078125,0.030192893689870832,0.010242869333922863,-0.006748944537248462
1761412863337740300,7.402740234375,0.03528641743659973,-0.002501899818331003,0.0013797639206051826
1761412863347753000,7.4127529296875,0.041245033580064774,0.0021387655943632127,0.006409519982431083
1761412863357766100,7.42276611328125,0.022541502153873443,0.004379676388949156,-0.01333597651105374
1761412863367779000,7.432779052734375,0.02884498621225357,-0.003958820628374815,-0.005938705866597592
1761412863377792000,7.4427919921875,0.031108254969120022,0.0017753391094505785,-0.004923464409448206
1761412863387805000,7.452804931640625,0.031283027014136315,-0.006432225004583597,-0.003239420312643051
1761412863397818000,7.462818115234375,0.03922901758253574,0.006821954974532127,-0.012247158361040055
1761412863407831300,7.472831298828125,0.0441717346817255,0.005606880096346139,-0.0033551008478738364
1761412863417844000,7.482843994140625,0.01801028846502304,0.016555705742537976,-0.012146291802451014
1761412863427856100,7.492856201171875,0.03196633310317993,0.014101298327744006,0.019277221394609658
1761412863437869000,7.502869140625,0.021509236496686936,0.012830840000510215,-0.01576068290732801
1761412863447882200,7.51288232421875,0.018367431339621543,-0.0027428689673542977,-0.01612847504010424
1761412863457895200,7.522895263671875,0.027937223717570302,0.006562865646928548,-0.007649272644147277
1761412863467908000,7.532908203125,0.0318324775904417,0.01193023789897561,-0.009121153561305254
1761412863477921000,7.542921142578125,0.03305003668665886,0.004060381306707859,0.004049604184366762
1761412863487934200,7.552934326171875,0.02589431971311569,-0.0020773907959461212,0.0017155717462301254
1761412863497947000,7.56294677734375,0.020367665246129034,-0.0018425591267645358,-0.005726743616349995
1761412863507960000,7.5729599609375,0.03170797442793846,-0.0001955225721001625,0.005656600989587605
1761412863517973200,7.58297314453125,0.021201777982711792,-0.0002009293995797634,0.008051679432578384
1761412863527986200,7.592986083984375,0.028527590826153755,0.011504559832811356,-0.018884824543539434
1761412863537999000,7.6029990234375,0.040946927416324615,0.004758446573466062,-0.00240108805866912
1761412863548012000,7.613011962890625,0.02479775664806366,-0.014764146150648593,-0.0015728753399103879
1761412863558025200,7.623025146484375,0.022568390160799024,-0.014251374322921036,0.0012295965938828885
1761412863568038000,7.633037841796875,0.0382809230774641,0.012683394353836775,0.0012490867456421255
1761412863578051000,7.643051025390625,0.03423953873217106,0.014944471153616905,0.007769903349131345
1761412863588063000,7.65306298828125,0.021513912671804428,0.007793284224718809,0.007897804045118391
1761412863598076200,7.663076171875,0.035136195310950274,0.0013313947342336178,0.006241579537000507
1761412863608089000,7.673089111328125,0.03094984953701496,0.0018991116195917128,0.0018286767318844795
1761412863618102000,7.68310205078125,0.042775896409153934,-0.009956599738448858,0.008176913247443735
1761412863628115200,7.693115234375,0.03332183936536312,0.01039265306815505,0.00883718552077189
1761412863638128000,7.703128173828125,0.022103110736608506,0.009480068267881869,-0.006088179073575884
1761412863648141000,7.71314111328125,0.03633212709724903,0.01315349608361721,-0.006661028791777789
1761412863658155000,7.723155029296875,0.01526362010538578,0.009536182369291782,0.0003828801040537655
1761412863668168000,7.73316796875,0.024704233145713805,0.004515723858773708,-0.0007584902171045542
1761412863678180900,7.743180908203125,0.018402502653002736,0.009527852932363749,0.010966470900736748
1761412863688193800,7.75319384765625,0.020621932268142698,0.0036892099067568776,-0.011949855914898217
1761412863698207000,7.76320703125,0.034846272453665735,0.015919307535141706,0.0034883353061042725
1761412863708219600,7.7732197265625,0.01852700581550598,0.011626724907755851,-0.01055352445198223
1761412863718232800,7.78323291015625,0.017167992421984673,-0.012244126153737305,0.005516443600226194
1761412863728246000,7.79324609375,0.02744856341779232,-0.001827946079522371,0.01394950529951602
1761412863738258000,7.8032578125,0.0010334347009658812,0.029422055447846648,-0.011598941851686686
1761412863748271000,7.81327099609375,-0.1878372782945633,0.22880744045600293,-0.1696599626995623
1761412863758283800,7.82328369140625,0.3989455420613289,0.1200469137467444,-0.17700617901021615
1761412863768297000,7.833296875,0.24672084441781042,-0.12407704604566097,0.2783042243517004
1761412863778310000,7.843309814453125,-0.2716132936120033,-0.48309667430147524,0.23575903142588212
1761412863788322800,7.85332275390625,-0.23041209917366504,-0.22679288576319812,-0.042860414621140805
1761412863798335700,7.863335693359375,0.013830372431874275,0.2143332171626389,-0.00011818301957100629
