time,seconds_elapsed,z,y,x
1761412914523805400,0.062805419921875,-0.03139583973884583,0.005207797776162624,-0.08119915056675672
1761412914533818400,0.072818359375,0.11736731927394867,-0.007046703641116619,-0.06906213804930449
1761412914543831600,0.08283154296875,0.12286065599322318,-0.03459346673637628,0.028471257529035208
1761412914553844500,0.092844482421875,0.036081367206573484,-0.027832448168843983,0.09301416458822787
1761412914563857700,0.102857666015625,-0.04262625880539417,0.0030256314314901825,0.029188977344334125
1761412914573870300,0.112870361328125,-0.03187047151327133,0.016121552108973265,-0.02213094859160483
1761412914583883500,0.122883544921875,0.020085341173410414,-0.0029233401007950303,-0.05782696974240243
1761412914593895400,0.1328955078125,0.08152969769537448,-0.008578881644457578,0.010821619069948793
1761412914603908600,0.14290869140625,0.07639584193825721,-0.004054536087810993,0.07577997506223619
1761412914613921300,0.15292138671875,0.04824351416528225,0.003713321434706449,0.06330671632774174
1761412914623934500,0.1629345703125,0.003040098348259926,-0.019170856676995755,0.019824644410610198
1761412914633947600,0.17294775390625,0.0006768763482570648,-0.017976970717310903,-0.02883278431780636
1761412914643960600,0.182960693359375,-0.0011848258703947066,-0.005156944371759891,-0.01520253756791353
1761412914653973500,0.192973388671875,0.034332477712631225,-0.0022856267191469666,0.03498721529431641
1761412914663986400,0.202986328125,0.06736965491771697,-0.0006464812099933624,0.026431933721154925
1761412914673998600,0.21299853515625,0.04883738840520382,-0.025476824953407046,0.017739070308208465
1761412914684011500,0.223011474609375,0.024342998617887496,-0.011401683980226516,0.00056282151453197
1761412914694024400,0.2330244140625,-0.005861000987887382,0.0032281682662665843,-0.013645955775678157
1761412914704037400,0.243037353515625,0.010167758271098136,0.0022075930468738077,0.012023176879435778
1761412914714051600,0.253051513671875,0.028967735809087753,-0.01904635351449251,0.020432839436829088
1761412914724064300,0.263064208984375,0.05758826561570167,-0.016502368120104072,0.03781294023953378
1761412914734077400,0.273077392578125,0.029052491483092305,-0.005406827479600906,0.010069120202213525
1761412914744090400,0.28309033203125,0.025184710139036177,-0.023710253672301767,0.0040524171959608795
1761412914754102500,0.2931025390625,0.013005612045526504,-0.006213613817840814,0.007717734770476817
1761412914764115500,0.303115478515625,0.020463526836037634,-0.006287117445468902,0.00731309949234128
1761412914774128400,0.31312841796875,0.03156301299929619,-0.010999094528704881,0.008205664417892694
1761412914784141300,0.323141357421875,0.030588030487298964,-0.013981471340358256,0.011394377456605433
1761412914794154500,0.333154541015625,0.028663784426450727,0.0019185469724237918,-0.004478460588306189
1761412914804167400,0.34316748046875,0.016496961292624474,-0.012171060917526483,0.012024418988451361
1761412914814180400,0.353180419921875,0.013003273957967758,-0.016461013196408747,0.0099177290327847
1761412914824193500,0.363193603515625,0.03478080600202083,0.016389847656339405,0.008281506133079528
1761412914834206500,0.37320654296875,0.04107902936339378,-0.002252601232379675,0.0016559505134820937
1761412914844218400,0.38321826171875,0.04889291798472404,-0.015386954224109649,0.006861337136849761
1761412914854231300,0.393231201171875,0.04750877014994621,-0.009682020580768584,0.018479367281496524
1761412914864244500,0.403244384765625,0.024134324303269384,-0.00857376707792282,0.0106225163012743
1761412914874257400,0.41325732421875,0.02772211966216564,-0.0018530805207788944,0.00830203746445477
1761412914884270300,0.423270263671875,0.017672434812784195,-0.019479045843333005,0.020959712855145335
1761412914894283300,0.433283203125,0.017062778481841085,0.0006102408528327941,0.02451367900967598
1761412914904296400,0.44329638671875,0.025614918249845502,-0.006111760878562927,0.028507205625250935
1761412914914309400,0.453309326171875,0.028907530054450032,-0.012704729402810335,0.01262896075285971
1761412914924321500,0.463321533203125,0.025873276925086973,-0.014889379965513944,0.011866890339180827
1761412914934334500,0.47333447265625,0.014915829581022262,-0.013911474844068288,0.0007344517543911934
1761412914944347400,0.483347412109375,0.03199497467577457,-0.02002104376554489,0.0009869652107357978
1761412914954360600,0.493360595703125,0.038273908814787864,-0.010539806453883646,0.01421440331339836
1761412914964373200,0.503373291015625,0.02884849334359169,-0.0076170508749783036,0.012724310886114835
1761412914974386400,0.513386474609375,0.027343349477648732,-0.006277911225706339,0.007212561727315187
1761412914984399400,0.5233994140625,0.014275193589925765,-0.01316679395660758,-0.002462736851722002
1761412914994412500,0.53341259765625,0.022462591698765754,-0.01842398383244872,0.013638137795403599
1761412915004424400,0.543424560546875,0.02032031897306442,-0.014365063830465078,0.020051000512391327
1761412915014437400,0.553437255859375,0.02944704375863075,-0.013425883284211158,0.01654211560860276
1761412915024450300,0.5634501953125,0.02973813565969467,-0.01192936111614108,0.01718757390528917
1761412915034463500,0.57346337890625,0.02462473816871643,-0.0085648531191051,0.0127105746217072
1761412915044476400,0.583476318359375,0.02224398051202297,-0.02059621330499649,0.008395414836332202
1761412915054489300,0.5934892578125,0.014900047490000724,-0.006272650528699159,0.007152721298858523
1761412915064502500,0.60350244140625,0.04074760545194149,0.0009070318423211574,0.011660992503538727
1761412915074515500,0.613515380859375,0.02608604289293289,-0.011435586249828338,0.013776596418023108
1761412915084527600,0.623527587890625,0.04089782757759094,-0.01084726496785879,0.0060930561780929565
1761412915094540300,0.633540283203125,0.03636135319173336,-0.004137392065674066,0.0023836802661418915
1761412915104553500,0.643553466796875,0.025810148561000824,0.000516571220010519,0.015811828572675584
1761412915114566400,0.65356640625,0.027674773389101025,-0.003200549606978893,0.006774681766703724
1761412915124579300,0.663579345703125,0.03239595669209957,0.00017608721926808357,0.009846855753660202
1761412915134592300,0.67359228515625,0.027603461718559263,-0.00852042945548892,0.004078939876705408
1761412915144605400,0.68360546875,0.018440496575832365,0.006545768381655216,0.010781944646686316
1761412915154618600,0.69361865234375,0.020609657308459282,-0.019527707290649413,0.0010690905362367629
1761412915164631300,0.70363134765625,0.02834989617168903,-0.01141527411416173,0.02015314571261406
1761412915174643500,0.7136435546875,0.03776771285831928,0.006493892063945531,0.02461333999186754
1761412915184656400,0.723656494140625,0.032682956939935684,-0.010600304469466209,0.024572131198644636
1761412915194669600,0.733669677734375,0.014289222115278243,-0.013002981697022914,0.008822481141984462
1761412915204682200,0.74368212890625,0.0036731355547904966,-0.003359101169556379,0.023846008881181477
1761412915214695400,0.7536953125,0.021454291439056396,0.0009298281960189342,0.013298457512259483
1761412915224708400,0.763708251953125,0.03310322817862034,0.009850509015470743,0.006802154295518994
1761412915234721500,0.773721435546875,0.027208909443020818,-0.011250292810797691,0.0009635112699121236
1761412915244734500,0.783734375,0.034978958922624585,-0.0038826866522431373,0.008689794673025608
1761412915254746400,0.793746337890625,0.030904256829619406,0.001845773997157812,-0.009873962956294417
1761412915264759300,0.80375927734375,0.03008183453083038,-0.003605769407004118,0.005499839525297283
1761412915274772500,0.8137724609375,0.01582125398814678,-0.007389964120835066,0.012247560219839214
1761412915284785400,0.823785400390625,0.025222119539976117,-0.0007838438540697097,0.01618438821211457
1761412915294798300,0.83379833984375,0.019114450314641,-0.009764730428159236,0.01885382661707699
1761412915304811500,0.8438115234375,0.015983166551589965,0.0009874036021530629,0.010401201700791715
1761412915314824400,0.853824462890625,0.02841711618900299,-0.010970891347527503,0.009698679454624652
1761412915324837400,0.86383740234375,0.02211597021818161,-0.002297171026468277,0.009944032517820596
1761412915334849300,0.873849365234375,0.022832009533047676,0.006574117693305015,0.007419920867681503
1761412915344862500,0.883862548828125,0.023390227937698363,-0.006776216136664152,0.013798735184594988
1761412915354875400,0.89387548828125,0.020533669462800025,0.00044511341899633407,0.00968596610352397
1761412915364888300,0.903888427734375,0.020374094986915586,-0.015804887375235558,0.023322204202786086
1761412915374901200,0.9139013671875,0.03143324913978576,-0.017306962501257656,0.008183890977501869
1761412915384914400,0.92391455078125,0.03680325174033642,-0.01051686396971345,0.026520415722206234
1761412915394927600,0.933927734375,0.019150106149911878,-0.009438713344186543,0.015864070216566325
1761412915404940300,0.943940185546875,0.031284196057915686,0.0008145312532782554,0.005533376468718052
1761412915414952400,0.953952392578125,0.03908931685090065,-0.023346242665499447,0.012537190816178918
1761412915424965400,0.96396533203125,0.02651566648185253,-0.0025528993532061574,-0.00039024142660200594
1761412915434978600,0.973978515625,0.03475567156076431,0.007417144388705492,0.013811594666168093
1761412915444991200,0.9839912109375,0.033822774624824525,0.001295300507545471,0.0363663216277957
1761412915455004400,0.99400439453125,0.02056055746972561,0.005422901831567287,0.02551876439899206
1761412915465017300,1.004017333984375,0.030233225700259207,-0.006235094997286797,0.002815203551203012
1761412915475030500,1.014030517578125,0.027480127599835393,-0.013486235169321297,0.0051829555958509445
1761412915485043500,1.02404345703125,0.04337386230230331,-0.019824790541082618,0.0001591360844671726
1761412915495055400,1.034055419921875,0.02839431983530521,-0.023496464791148898,0.00970832406580448
1761412915505068300,1.044068359375,0.025576924327015874,-0.0023540157802402974,0.006183584005758166
1761412915515081500,1.05408154296875,0.008043021202087402,-0.002002279733121395,-0.001937470868602395
1761412915525094400,1.064094482421875,0.019361118552088736,-0.01279752225279808,0.002208835155889392
1761412915535107300,1.074107421875,0.020235563299059865,-0.022006664624810216,0.014654475231096148
1761412915545120500,1.08412060546875,0.035660511445999146,-0.03159749979078769,0.009379019046202301
1761412915555133400,1.094133544921875,0.03598433657288551,-0.010570639983564615,0.019981661603227258
1761412915565146400,1.104146484375,0.02713701325058937,0.0018844985723495483,-0.00020969722792506216
1761412915575158300,1.114158203125,0.0303729264318943,-0.009148644356429576,0.010639321305602788
1761412915585171500,1.12417138671875,0.016737784311175345,-0.007712912464886903,0.007933058021590113
1761412915595184400,1.134184326171875,0.024955577558279037,-0.012728548669815062,0.014238734037056564
1761412915605197300,1.144197265625,0.03425707438886166,-0.01711363188624382,0.0322186273638159
1761412915615210200,1.154210205078125,0.028302549898624418,-0.008288082004338502,0.024604718293994663
1761412915625223400,1.164223388671875,0.02168985376060009,-0.016576017878204584,0.005777925814315676
1761412915635236600,1.174236572265625,0.01864683280289173,-0.01142871811762452,0.0044634822148829694
1761412915645249300,1.184249267578125,0.024759178203344345,-0.01833236002624035,0.007780643938854337
1761412915655262500,1.194262451171875,0.03356441594958305,-0.004630290149152279,0.017582856833189726
1761412915665274400,1.2042744140625,0.029540567260980605,-0.008122370048612356,0.0008940992955118418
1761412915675287600,1.21428759765625,0.02552665544450283,-0.013760229805111884,-0.0027639117553830144
1761412915685300200,1.22430029296875,0.027478374034166333,-0.0184238377019763,-0.004097571511939168
1761412915695313400,1.2343134765625,0.01653670878112316,-0.023738456853479147,-0.0003976940806955099
1761412915705326300,1.244326416015625,0.02686345700621605,-0.008619359785318375,0.0024753771375864743
1761412915715339000,1.254339111328125,0.031058570608496663,0.0017559037566184997,0.009346431950852274
1761412915725352000,1.26435205078125,0.019217910689115523,-0.0048408641599118705,-0.0035869185760617254
1761412915735364900,1.27436474609375,0.034328386059403415,-0.007519435719400644,0.012424231960996984
1761412915745377000,1.284376953125,0.028700609305500984,0.004390782304853201,0.004546484323218465
1761412915755390000,1.294389892578125,0.019207389295101164,0.0009163841925561427,0.0004326192636042833
1761412915765403100,1.304403076171875,0.01115267765522003,-0.007933861739188433,0.006067118019238114
1761412915775415800,1.314415771484375,0.04404489343166351,0.0014025602743029594,0.0027286943115293976
1761412915785429000,1.324428955078125,0.045647652453184126,0.010831921268254517,0.0070651160806417465
1761412915795442200,1.334442138671875,0.04560556687712669,0.0009404957205057144,0.008823504055291413
1761412915805454800,1.344454833984375,0.027061025404930113,-0.023940993688255547,0.015728607268631456
1761412915815468000,1.354468017578125,0.019250059393048285,0.004349427381157875,0.0102053138025105
1761412915825480000,1.36447998046875,0.027163316735625265,-0.006394961734116077,-0.001901084380969405
1761412915835493000,1.3744931640625,0.02787935605049133,-0.009892156200110911,0.007661036147177219
1761412915845506000,1.384506103515625,0.04057926314771175,0.004818213936686516,0.011575798438116907
1761412915855519000,1.39451904296875,0.03282441123723984,-0.010103460863232612,0.013733853254839777
1761412915865532000,1.404531982421875,0.01851882250905037,-0.010935820034146308,0.007470116684958338
1761412915875545000,1.414545166015625,0.022723872983455656,0.008672843538224697,0.010807079087942838
1761412915885558000,1.42455810546875,0.007753098344802856,-0.009545680849999188,0.0043685704730451105
1761412915895571000,1.434571044921875,0.01628361080288887,-0.018588819005340335,-0.0048879181720316404
1761412915905582800,1.444582763671875,0.046369536986947055,-0.01880304627791047,0.01287292557656765
1761412915915596000,1.454595947265625,0.04215571868419647,-0.004736234741657972,0.011436243836954236
1761412915925609200,1.464609130859375,0.03763151925802231,0.005099222835153341,0.023397607526555658
1761412915935622000,1.474621826171875,0.029378070175647735,-0.009638619830459355,0.032274595334753395
1761412915945635000,1.484635009765625,0.02021276694536209,-0.0063648588567972175,0.004302446434274316
1761412915955648000,1.49464794921875,0.025241408762335774,-0.003912058877199888,0.012170476395636795
1761412915965661000,1.504660888671875,0.03220423351228237,0.00023980010524392127,0.011341185964643955
1761412915975673900,1.514673828125,0.0311398191511631,-0.0010115151301026343,0.013456278422474861
1761412915985686000,1.52468603515625,0.023471476480364798,-0.023747370812296865,0.022814327745884655
1761412915995699000,1.534698974609375,0.0013198504269123076,-0.019718553687632083,0.017191300232335924
1761412916005712100,1.544712158203125,0.017173837640881536,-0.0065155193738639355,0.012389891299977899
1761412916015724800,1.554724853515625,0.029548750567436218,-0.007163461888581514,0.01448598679639399
1761412916025738000,1.564738037109375,0.03340659503936767,-0.0015086509972810744,0.00239865863956511
1761412916035751200,1.574751220703125,0.030424948880076408,-0.0011703589536249637,0.01144822653569281
1761412916045764000,1.58476416015625,0.0292705181479454,0.00663578475266695,0.019744126520305872
1761412916055777000,1.594777099609375,0.012813304343819618,-0.011914601938426493,0.003032499563694
1761412916065789000,1.604788818359375,0.025488076999783515,-0.010939034904539584,-0.011940540097281335
1761412916075802000,1.614802001953125,0.04312777858674526,-0.00040638884380459785,0.009539178043976426
1761412916085815000,1.62481494140625,0.041458384069800375,0.0008751753993332385,0.001821370208263397
1761412916095828000,1.634827880859375,0.037680034574866295,-0.007272475221008062,-0.0000713116705417633
1761412916105841000,1.6448408203125,0.034221418553590774,-0.00989741689711809,0.00018690087422728536
1761412916115854000,1.65485400390625,0.0241729027479887,0.0031558336824178694,0.007478738382831215
1761412916125867000,1.664866943359375,0.018003858724236488,-0.0020186463460326195,-0.007736731731891632
1761412916135880000,1.6748798828125,0.015268296280503272,-0.005635813929885626,0.014348770282790064
1761412916145891800,1.684891845703125,0.028117256459593773,-0.011724632324278355,0.01796674158424139
1761412916155905000,1.694905029296875,0.028558570486307142,-0.0003071662530303001,0.01154218842945993
1761412916165918200,1.704918212890625,0.026735446712374687,-0.011290624821186064,0.014871552047878503
1761412916175931000,1.714930908203125,0.02148760918676853,-0.005465571929514408,0.01591258553341031
1761412916185944000,1.724944091796875,0.012043489015102386,-0.004779781622439623,0.008737579337507486
1761412916195957000,1.73495703125,0.03331424058079719,0.008873042285442351,-0.007428688696026801
1761412916205970200,1.74497021484375,0.021945289826393127,-0.003124123369902372,0.010662994442135094
1761412916215982800,1.75498291015625,0.030746435919404028,-0.004849778118729591,-0.001467588334530592
1761412916225995000,1.7649951171875,0.02547872464954853,0.003066401833295822,0.003123831108957529
1761412916236008000,1.775008056640625,0.03129121032059193,-0.0017914134614169597,0.007367752289026975
1761412916246021000,1.785021240234375,0.02034253080487251,-0.007542962725460529,0.016098317363858222
1761412916256033800,1.79503369140625,0.016125205370783807,0.0022547931894659995,-0.0003716828566044569
1761412916266047000,1.805046875,0.009675006318092346,-0.007438479437679052,0.005655468478426337
1761412916276060200,1.81506005859375,0.022080898904800413,-0.0010913023680448532,0.015660437403246758
1761412916286073000,1.825072998046875,0.03032148850560188,-0.011902326978743076,0.0050691930230706925
1761412916296086000,1.8350859375,0.015970891591906546,-0.013131284251809119,-0.019524273224547504
1761412916306098000,1.845097900390625,0.008600655084848403,-0.0005647942759096622,0.02092398395463824
1761412916316111000,1.855111083984375,0.014980126988887786,0.0010180910013616084,0.007947378807887434
1761412916326124000,1.8651240234375,0.04386369164586067,-0.004512655118852854,-0.006211202665045857
1761412916336137000,1.875136962890625,0.027414661148190498,0.002011924344301224,-0.0006873977422714233
1761412916346150000,1.88514990234375,0.024731705674529075,-0.002511106038093567,0.02704122472591698
1761412916356163000,1.8951630859375,0.032681787896156306,-0.0064554597496986384,0.005000219440087676
1761412916366176000,1.905176025390625,0.014583236625790596,-0.000031710312515497204,-0.0013669044390320778
1761412916376189000,1.91518896484375,0.013557400709390639,0.0010598843164741991,0.0128597738340497
1761412916386200800,1.925200927734375,0.002907411879301071,0.00981558383256197,0.017521993491426108
1761412916396214000,1.935214111328125,0.03436521093845367,0.00286561856418848,0.005161109090223908
1761412916406227200,1.945227294921875,0.03815291278362274,-0.0034729368075728413,0.01511361717544496
1761412916416239900,1.955239990234375,0.020220365729928014,0.007415975344926118,-0.004280819124355912
1761412916426253000,1.965253173828125,0.015293430721759795,-0.0014222878880798815,0.015578019816800952
1761412916436266000,1.975265869140625,0.00985036288499832,0.0012101064421236513,0.009628390697389841
1761412916446279200,1.985279052734375,0.02107552125453949,0.008983516922593117,-0.00960617886558175
1761412916456291800,1.995291748046875,0.0300461786955595,-0.004887479780614375,0.0062962505999952555
1761412916466304000,2.005303955078125,0.0401718513906002,-0.02186038802191615,0.01817972674779594
1761412916476317000,2.01531689453125,0.018683657681941985,-0.03357581412643194,0.00212079154625535
1761412916486330000,2.025330078125,-0.0020171850413084028,-0.00744900083169341,0.02146868529058993
1761412916496342800,2.0353427734375,0.015623685589432716,-0.0036773733384907244,0.012367679468169808
1761412916506356000,2.04535595703125,0.028286183285713196,0.0032562253169715403,0.006023351942747831
1761412916516369200,2.055369140625,0.054958501634001726,0.0016278934627771376,-0.014195406351983547
1761412916526382000,2.065382080078125,0.05851648637652397,0.016279519149661064,0.00047558162249624724
1761412916536395000,2.07539501953125,0.01776888092458248,-0.0013416238673031329,0.013762056436017155
1761412916546407000,2.085406982421875,0.004900631523132324,0.008895546378195285,0.0001438654500991106
1761412916556420000,2.095420166015625,0.012145195823907851,0.010633037695288658,0.002248363448679447
1761412916566433000,2.10543310546875,0.028830957686901092,0.007673749498277902,0.011086334420740604
1761412916576446000,2.115446044921875,0.04033844012916088,-0.0020274141743779183,0.00035217443853616714
1761412916586459000,2.125458984375,0.032786417314410204,-0.011900281152129173,0.01631385981068015
1761412916596472000,2.13547216796875,0.01160802020728588,-0.00731046914383769,0.012044804189354181
1761412916606485000,2.145485107421875,0.01646831972002983,-0.019381430687755344,-0.011324380960315465
1761412916616498000,2.155497802734375,0.014213818791508674,-0.0003862228386104107,0.00035867724455893035
1761412916626509800,2.165509765625,0.028386721050739288,0.0001426233410835266,-0.020303879294916987
1761412916636523000,2.17552294921875,0.03771393684446812,-0.008488426882028579,0.01846058951579034
1761412916646536200,2.1855361328125,0.04953647658526897,0.0012798106774687765,0.022763035950064656
1761412916656548900,2.195548828125,0.03232347597777843,-0.004809592238813639,-0.0020283640224486588
1761412916666562000,2.20556201171875,0.021055647510290144,-0.00449190459176898,-0.006669175565615296
1761412916676575000,2.215574951171875,0.01938917560279369,-0.0002982522942125797,0.00492781179100275
1761412916686588200,2.225588134765625,0.030461773759126662,0.00300941094905138,-0.004473126826062798
1761412916696600800,2.235600830078125,0.025353052443265914,-0.006604366701096296,0.021277838893607258
1761412916706613200,2.24561328125,0.03210486479103565,0.004026479037106037,0.007135258707404136
1761412916716626400,2.25562646484375,0.029396774876117703,0.008453355568647384,0.00656834553964436
1761412916726639400,2.265639404296875,0.025344284614920616,-0.007399462601542473,0.024701529731974006
1761412916736652300,2.27565234375,0.031022914773225784,-0.015012129562348127,0.01732493654936552
1761412916746665200,2.285665283203125,0.02030687496960163,-0.004855184946209192,0.017313246111571787
1761412916756678400,2.295678466796875,0.014038462224602699,-0.014723814140260218,0.017068915961682796
1761412916766691300,2.30569140625,0.023922142857313155,0.012139496735483406,0.0032370822250843046
1761412916776704300,2.315704345703125,0.014171733215451239,0.0021691607326269147,-0.0008108049262315034
1761412916786716200,2.325716064453125,0.024649872609972954,0.001544745223969221,-0.00846007757037878
1761412916796729300,2.335729248046875,0.016021160474419593,0.0010158990442752838,0.016895824417099355
1761412916806742300,2.3457421875,0.01631926663815975,-0.009072218119353055,0.016290478935092688
1761412916816755200,2.355755126953125,0.033251696738600726,0.0006894435688853263,0.005381546907871962
1761412916826768400,2.365768310546875,0.038788872599601745,-0.005663140328228474,-0.005388780366256833
1761412916836781300,2.37578125,0.0070341364204883575,-0.004393997175246477,-0.006191548116505146
1761412916846794200,2.385794189453125,0.03664835343956947,-0.00672901599407196,0.015177476191893219
1761412916856807200,2.39580712890625,0.023782442125678063,-0.005458265405893325,0.017473989631235597
1761412916866819300,2.4058193359375,0.01916179658770561,-0.013183452830463648,0.014327581364288926
1761412916876832300,2.415832275390625,0.03173369339108467,0.0024067688807845114,-0.003392857308685779
1761412916886845400,2.425845458984375,0.01826397096514702,0.005767477485537529,0.00002681494168937206
1761412916896858000,2.435858154296875,0.019618308183550835,0.008712737157195807,0.007495324191451072
1761412916906871300,2.445871337890625,0.015430208843946455,0.008748100731521845,0.01148629352375865
1761412916916884200,2.45588427734375,0.02275602168738842,-0.0028666414774954317,0.007046703641116619
1761412916926897400,2.4658974609375,0.016311667853593826,-0.00518792403191328,-0.0008326514318585395
1761412916936910300,2.475910400390625,0.021366613155603408,0.0008874503590166568,0.010362257929891348
1761412916946922200,2.485922119140625,0.01968260559141636,-0.006630670186132192,0.02394479308053851
1761412916956935400,2.495935302734375,0.021654782447218895,-0.010490122093260288,0.023537015997245905
1761412916966948400,2.5059482421875,0.0369388608187437,0.0088436700604856,0.014840280126780271
1761412916976961300,2.515961181640625,0.026627894684672353,-0.009088000210374593,0.020741759255528448
1761412916986974200,2.52597412109375,0.017961188626289367,-0.004567600176483393,0.012424524221941829
1761412916996987400,2.5359873046875,0.020520225459337234,0.008377075462043285,-0.008661153100430965
1761412917007000300,2.546000244140625,0.024851532661914824,-0.0017928747661411762,0.02088189837858081
1761412917017013200,2.55601318359375,0.028180969345569608,-0.001464227333664894,0.011731646586954593
1761412917027025200,2.566025146484375,0.02505436175763607,-0.0035576924815773963,0.00903173997849226
1761412917037038300,2.576038330078125,0.04300678255558014,-0.0035902795769274234,0.018642668084427712
1761412917047051300,2.58605126953125,0.02849778020977974,-0.0014230185404419898,0.007462152574211359
1761412917057064200,2.596064208984375,0.027719781574606892,0.007266922263056039,0.0026884353663772344
1761412917067077400,2.606077392578125,0.025175357788801193,-0.012271452552080155,-0.002260053886473179
1761412917077090300,2.61609033203125,0.03474631921052933,0.0007834054626524448,0.0019391513690352438
1761412917087103500,2.626103515625,0.01842471448481083,-0.007696984243392944,-0.0022642186049371955
1761412917097115400,2.636115478515625,0.02798690807819366,-0.013153788344562052,0.008818681749701499
1761412917107128300,2.64612841796875,0.020201661029458046,-0.00254515443816781,-0.0005418517917394638
1761412917117141200,2.656141357421875,0.018546879559755324,-0.006117313836514949,0.010769377426058054
1761412917127154400,2.666154541015625,0.021702713242173193,-0.0010848726272583008,0.004517404359206557
1761412917137167000,2.6761669921875,0.03472761451005935,0.007577449516952038,-0.0012808335907757281
1761412917147180300,2.68618017578125,0.0508989971101284,0.0008379121288657188,0.011991612697392701
1761412917157193200,2.696193115234375,0.028594226321578025,0.002985883942991495,0.000943126069009304
1761412917167206400,2.706206298828125,0.030975568500161168,-0.00020998948886990547,0.009687719669193028
1761412917177219300,2.71621923828125,0.03364098831713199,-0.015212912831455469,-0.011336582854762673
1761412917187231200,2.726231201171875,0.015827099207043647,-0.007244564300775528,0.0024290537778288127
1761412917197244400,2.736244384765625,0.025720716711878776,-0.0005973813712596892,0.005129837169125676
1761412917207257300,2.74625732421875,0.018250526961684225,-0.010775953297317028,0.004362579123675823
1761412917217270300,2.756270263671875,0.02993336597084999,-0.000520662873238325,0.006729235189780592
1761412917227283200,2.766283203125,0.00971533832848072,0.000034048400074243547,-0.0005572685565799475
1761412917237296400,2.77629638671875,0.02840834836065769,-0.008729688291996716,-0.0030945319492369887
1761412917247309300,2.786309326171875,0.03570551963150501,-0.0035744974859058857,0.0012871902663260698
1761412917257321500,2.796321533203125,0.030293431454896925,-0.0033228608123958107,0.0022755437165498734
1761412917267334100,2.806334228515625,0.03671908058822155,-0.010147884526848793,-0.0038285453122109173
1761412917277347300,2.816347412109375,0.02176642612814903,-0.010621639518439769,-0.013482289646565913
1761412917287360300,2.8263603515625,0.02238251219987869,-0.00230009363591671,0.006339505219832063
1761412917297373200,2.836373291015625,0.023268647384643553,-0.00645911301150918,-0.000010375263541936875
1761412917307386400,2.846386474609375,0.043645080459117885,0.004031447473168373,-0.008543152743950486
1761412917317399300,2.8563994140625,0.03151274411678314,0.002977700636535883,-0.0021069822166115046
1761412917327412500,2.86641259765625,0.033436990177631375,0.0006745382606983184,0.005336392591893673
1761412917337424400,2.87642431640625,0.037030630755424496,-0.0038283261165022848,0.013856968177855014
1761412917347437300,2.886437255859375,0.03072422408759594,-0.0024852409444749354,0.011993950784951447
1761412917357450200,2.8964501953125,0.03414484618604183,-0.004326338766515255,0.00614843962714076
1761412917367463400,2.90646337890625,0.03506429911851883,-0.0028019056782126427,0.009421031557023524
1761412917377476000,2.91647607421875,0.019943302354216576,-0.009347235668450594,0.01165682778507471
1761412917387489300,2.9264892578125,0.025792028382420538,-0.013186959961801767,0.0005154021762311459
1761412917397502200,2.936502197265625,0.021878654330968854,0.004203735300153493,-0.0049169981360435485
1761412917407515400,2.946515380859375,0.030528409254550932,-0.005673953983187675,0.006153700324147939
1761412917417527300,2.95652734375,0.029764439144730565,-0.013531827876716852,0.0026952304333448408
1761412917427540200,2.966540283203125,0.018812252497673033,-0.010405804810672999,-0.00168313078135252
1761412917437553400,2.976553466796875,0.009071195206046104,-0.009543635023385285,0.0018501579113304615
1761412917447566300,2.98656640625,0.018638649496436118,0.00967281436100602,-0.0053013943437486884
1761412917457579300,2.996579345703125,0.04182020311951637,0.007873655984550714,0.018190028946101663
1761412917467592200,3.00659228515625,0.024921675288677215,0.0047726212292909615,-0.0021321897231042384
1761412917477605400,3.01660546875,0.013089198675751685,-0.0004161795854568481,-0.0003512245904654264
1761412917487618300,3.026618408203125,0.02848375168442726,0.01088102110698819,-0.013710910770669578
1761412917497630500,3.03663037109375,0.03672200319766998,0.00915697379335761,0.001767301933467388
1761412917507643100,3.04664306640625,0.008754968863725662,0.0015437223106622695,0.01227021044306457
1761412917517656300,3.05665625,0.02865677016377449,0.012123130122572183,-0.00009593465514481067
1761412917527669200,3.066669189453125,0.020285247659683227,-0.002907850270718336,-0.000010009937360882758
1761412917537682200,3.07668212890625,0.02759703197777271,0.0062467854350805275,0.0028102351151406764
1761412917547695400,3.0866953125,0.02143500221669674,0.0015494213990867138,-0.0026821517560631034
1761412917557708300,3.096708251953125,0.01695288836658001,0.0006385901644825935,0.001256502867117524
1761412917567721500,3.106721435546875,0.03369242624342442,0.006367781466245651,0.02267470007948577
1761412917577733400,3.1167333984375,0.016917817053198815,-0.009106558780372143,-0.01456584709957242
1761412917587746300,3.126746337890625,0.029648119288682936,-0.005293868624418973,0.005287438883632421
1761412917597759200,3.13675927734375,0.027990999731421468,-0.0030566110916435715,0.02175027871094644
1761412917607772400,3.1467724609375,0.04354512721598148,0.002837269252538681,0.01176416061706841
1761412917617785000,3.15678515625,0.030099370187520978,-0.0024956162080168724,-0.0007716419596225023
1761412917627798300,3.16679833984375,0.032198388293385505,0.01243365737646818,0.0005455050535500049
1761412917637811200,3.176811279296875,0.015861585998535155,-0.006772270613908767,-0.010761486380547284
1761412917647824400,3.186824462890625,0.038269817161560055,0.013587941978126763,-0.012825360107794403
1761412917657836300,3.196836181640625,0.030324411115050316,-0.002892068179696798,0.01270334116332233
1761412917667849200,3.20684912109375,0.023597148686647414,-0.0023508009098470208,0.011751228070259094
1761412917677862100,3.216862060546875,0.008937924215197563,0.009620791912823915,-0.0027025369569659233
1761412917687875300,3.226875244140625,0.0189618901014328,0.00007072714865207672,0.017839315812289713
1761412917697888300,3.23688818359375,0.03328092283308506,-0.012935469418764113,-0.01600157899111509
1761412917707901000,3.24690087890625,0.016633154892921446,-0.0017877601996064184,-0.0014586743757128715
1761412917717914000,3.2569140625,0.03247428262531757,-0.009385375721752643,-0.013441592309996486
1761412917727927300,3.26692724609375,0.03143032653033733,-0.0207927587904036,0.005676219005510211
1761412917737939200,3.276939208984375,0.031578795090317725,-0.0059686991460621355,0.006578720803186297
1761412917747952000,3.2869521484375,0.014875497570633887,0.005871522381901741,0.0016606266885995863
1761412917757965000,3.296965087890625,0.018050035953521726,-0.0007521335415542125,-0.0013884586837142705
1761412917767978200,3.306978271484375,0.013987024298310278,-0.007576864995062351,0.011649886587634682
1761412917777991200,3.3169912109375,0.03369067267775536,0.005705810426175594,0.004052782522141933
1761412917788004000,3.327004150390625,0.031575287958979605,0.008813713313639164,0.00347812443934381
1761412917798017000,3.33701708984375,0.04725450312793254,0.009755085816979408,-0.0045505759764462705
1761412917808030200,3.3470302734375,0.04360767105817794,0.006139817929267883,-0.004575856548175216
1761412917818042000,3.3570419921875,0.020205168160796164,0.02790317531749606,-0.0041743630751967424
1761412917828055000,3.367054931640625,0.026307576689124104,0.005077595525234937,0.014755378322303295
1761412917838068000,3.37706787109375,0.02660626737475395,-0.000246522106975317,0.01725048307366669
1761412917848081200,3.3870810546875,0.025135610300302504,-0.01485883869677782,0.014934315085783599
1761412917858094300,3.39709423828125,0.023346388795971867,-0.01024082350730896,0.0007462883226573467
1761412917868107000,3.40710693359375,0.008694763109087943,0.006643091276288032,-0.004246332332864404
1761412917878120200,3.4171201171875,0.02241173829436302,-0.006643091276288032,-0.0033713761292397974
1761412917888132000,3.427132080078125,0.028252281016111373,-0.005949117662757635,0.0007534487158060073
1761412917898145300,3.437145263671875,0.027404724276065825,0.005607903009653091,0.0058215457603335375
1761412917908158000,3.447157958984375,0.03026654344797134,0.01115603865608573,0.0028918489839881655
1761412917918171100,3.457171142578125,0.021442601001262662,-0.005062982477992773,-0.0001771101325750351
1761412917928184000,3.46718408203125,0.03118891898989677,-0.0036786885127425193,-0.016511501274630427
1761412917938197200,3.477197265625,0.03998948056101799,0.00017447978407144545,-0.007758139846101403
1761412917948210000,3.4872099609375,0.035629531785845756,0.0009790741652250289,-0.0006802373491227626
1761412917958223000,3.49722314453125,0.031743045741319656,-0.0025983459301292893,0.002835588752105832
1761412917968235000,3.507235107421875,0.030264205360412594,0.009608078561723231,-0.0033911768082529304
1761412917978248200,3.517248291015625,0.013960136291384696,-0.012005641222745179,0.013893281600251793
1761412917988261000,3.52726123046875,0.027245149800181386,-0.00007540332376956939,0.00014437690675258636
1761412917998274000,3.537274169921875,0.012233458629250526,0.009185469235479832,-0.0072945409223437304
1761412918008287200,3.547287353515625,0.010727730241417884,0.0037114217385649678,0.02191277579627931
1761412918018300200,3.557300048828125,0.02612228325009346,-0.006519318766146898,0.006361790116876364
1761412918028313000,3.56731298828125,0.03071662530303001,-0.004329992028325796,-0.016050021242722867
1761412918038326000,3.577325927734375,0.025173604223132133,-0.0053555356837809084,-0.0032103403486311434
1761412918048338200,3.587338134765625,0.017716858476400376,-0.0007781447656452655,-0.005745704045146703
1761412918058351000,3.59735107421875,0.013811083209514618,-0.009110065911710262,-0.01749284046217799
1761412918068364000,3.607364013671875,0.042996845683455465,0.005049538474529981,0.01058963694497943
1761412918078377000,3.617376953125,0.027870588222146032,-0.0010395721808075904,-0.006811360515281558
1761412918088390100,3.62739013671875,0.021285364612936973,-0.003644493982195854,0.004854673489555717
1761412918098403300,3.6374033203125,0.012900398105382918,0.0019338906720280647,0.0033932226348668336
1761412918108416000,3.647416015625,0.03564882100820541,-0.0010452712692320346,0.01573511007465422
1761412918118429200,3.65742919921875,0.020073066213726995,0.006915332346409559,-0.0012608137160539626
1761412918128441000,3.667441162109375,0.032331074762344356,0.010251052640378474,0.004827639352157712
1761412918138454300,3.677454345703125,0.010464110869169235,-0.019681436547636984,-0.0013577712845057248
1761412918148467000,3.687467041015625,0.014936287847161292,-0.018141221368312834,0.01874466715417802
1761412918158480100,3.697480224609375,0.02312894665300846,0.009146598529815673,0.011888152322918176
1761412918168493000,3.7074931640625,0.028652093988656997,-0.01403232474476099,-0.010978490132093429
1761412918178506200,3.71750634765625,0.02385609188377857,-0.005784720881283283,0.008573036425560713
1761412918188519000,3.727518798828125,0.03164016988873482,-0.00939472807198763,0.0015321049381047487
1761412918198532000,3.737531982421875,0.032583588218688966,-0.004952946232259273,0.009699848498404025
1761412918208544000,3.7475439453125,0.029188100561499595,-0.015146861857920885,0.0002769903104752302
1761412918218557200,3.75755712890625,0.023497779965400693,0.003311316505074501,-0.00818038384616375
1761412918228570000,3.767570068359375,0.04187281008958816,0.002694353650510311,-0.0071918112002313135
1761412918238583000,3.7775830078125,0.027357962524890898,-0.010914338854700327,0.0021017215196043252
1761412918248596200,3.78759619140625,0.04395663062632084,0.005609218183904886,-0.006108399877697229
1761412918258609200,3.797609130859375,0.03440612747073173,0.005280716881901026,-0.007966960291191936
1761412918268622000,3.8076220703125,0.018798808494210242,0.01895925975292921,0.02086801598370075
1761412918278635000,3.817635009765625,0.021485855621099472,0.009416939903795718,-0.00022898645028471946
1761412918288647200,3.827647216796875,0.028182722911238668,-0.004519815512001514,-0.014429434303566812
1761412918298660000,3.83766015625,0.03593991290926933,0.014562193837761878,-0.007500731018930673
1761412918308673000,3.847673095703125,0.019931027394533157,0.00995674586892128,-0.021164076320827008
1761412918318686000,3.85768603515625,0.025869185271859167,0.006631254708021879,-0.0021085896518081427
1761412918328699100,3.86769921875,0.029288638326525687,-0.013658084604889154,-0.0008837240319699048
1761412918338712300,3.87771240234375,0.023875381106138228,0.0006700082160532474,0.005951601880788803
1761412918348725000,3.88772509765625,0.02520458388328552,0.006283171922713518,0.007415536953508854
1761412918358738200,3.89773828125,0.03015782237648964,-0.0038267186813056467,0.011144202087819575
1761412918368750000,3.90775,0.01869476359784603,0.006556143645197153,-0.0011333879441022873
1761412918378763300,3.91776318359375,0.03068915277421474,0.0040418227367103095,-0.0048789311479777095
1761412918388776000,3.92777587890625,0.025311551389098165,-0.001092617542296648,0.009345701298490166
1761412918398789000,3.9377890625,0.029049568873643874,0.01721226995512843,0.016899477678909897
1761412918408802000,3.947802001953125,0.03172141843140125,0.005083879135549068,0.01861329585947096
1761412918418815200,3.957815185546875,0.039817046603560446,0.003144435505568981,-0.00019720307253301143
1761412918428828000,3.967827880859375,0.024696634361147878,0.006676262893527746,-0.006811798906698823
1761412918438840000,3.977840087890625,0.01812836188673973,0.020630553966015576,-0.01046988302282989
1761412918448853000,3.98785302734375,0.030721301478147504,-0.007910334733128547,0.006910290845111012
1761412918458866200,3.9978662109375,0.018282675665616987,-0.006572217997163534,-0.000919160671532154
1761412918468879000,4.007879150390625,0.031153847676515578,0.010532646060734986,-0.002736512291803956
1761412918478892000,4.01789208984375,0.025927052938938138,0.003899637787044048,-0.010501154943928122
1761412918488905200,4.0279052734375,0.008906944555044174,-0.001210252572596073,0.004222878392040729
1761412918498918100,4.037918212890625,0.020889643293619156,-0.020805326011031865,0.0013822481386363506
1761412918508931000,4.04793115234375,0.022871172499656676,-0.001240793841332197,0.0009304127179086208
1761412918518943000,4.05794287109375,0.031007132682204244,0.0025606442682445047,-0.002856631540134549
1761412918528956200,4.0679560546875,0.04241524640321731,0.0007043488770723343,-0.003176145818084478
1761412918538969000,4.077968994140625,0.03245090174973011,-0.02314414422214031,-0.0036847529273480173
1761412918548982000,4.08798193359375,0.022907412856817244,-0.007977700880914927,0.014443755089864134
1761412918558995000,4.097994873046875,0.016191256344318387,0.01242737376615405,-0.007262319153174757
1761412918569008000,4.108008056640625,0.02577449272572994,-0.006374065076559782,0.013241831954196094
1761412918579021300,4.118021240234375,0.030267712491750715,0.012050357147306203,0.014380480595305561
1761412918589034000,4.128033935546875,0.019514847809076308,-0.00318608269020915,0.00940904885828495
1761412918599046100,4.138046142578125,0.015468787288665771,-0.014252251105755566,-0.004411532831937074
1761412918609059000,4.14805908203125,0.014584405669569969,-0.000540536617487669,0.001157864798232913
1761412918619072300,4.158072265625,0.014240706798434257,-0.002291325807571411,0.006167217392846942
1761412918629085200,4.168085205078125,0.03685001349151134,-0.00802417037114501,0.011911752394214272
1761412918639098000,4.17809814453125,0.02893909423649311,0.0020642390534281727,0.001471679987758398
1761412918649111000,4.188111083984375,0.03090367230772972,-0.0009659224227070807,-0.009463409394025802
1761412918659124200,4.198124267578125,0.014480945295095443,0.0029475977592170236,-0.007068330951035023
1761412918669137000,4.208136962890625,0.025269465813040733,-0.0034613925002515314,-0.002687047126889229
1761412918679149000,4.218149169921875,0.00908405468761921,-0.006968962229788303,0.005744096609950065
1761412918689162000,4.228161865234375,0.014666823256015777,-0.009130816438794136,0.01237330549135804
1761412918699175200,4.238175048828125,0.034603111347556115,-0.004464578193426132,0.014145868121832609
1761412918709188000,4.24818798828125,0.026226912668347358,-0.004914075526595115,-0.0016761895839124917
1761412918719201000,4.258200927734375,0.03704641284644603,-0.0012399170584976673,-0.0065747022151947014
1761412918729214200,4.268214111328125,0.014008651608228683,-0.0019255612351000307,-0.007892141489312053
1761412918739227100,4.27822705078125,0.02061199539601803,-0.005737812999635935,-0.006185849028080701
1761412918749240000,4.288239990234375,0.027643209207057953,-0.0004804769933223724,0.00012654898911714554
1761412918759252000,4.298251953125,0.028243513187766075,-0.009159896402806043,0.01705525276251137
1761412918769265200,4.30826513671875,0.01983399676084518,-0.008421060734242201,0.0062542380891740315
1761412918779278300,4.3182783203125,0.025173019701242444,-0.0024675591573119163,-0.0002846621602773666
1761412918789291300,4.328291259765625,0.022026538369059562,0.004301642716675997,-0.005489537326991558
1761412918799304200,4.33830419921875,0.03415887471139431,-0.010701572886854409,-0.015618278761953115
1761412918809317000,4.348317138671875,0.027428689673542974,-0.005170242244750261,0.017328078354522585
1761412918819330300,4.358330322265625,0.034918753167986864,-0.0011405483372509478,0.009321735901013015
1761412918829343000,4.368343017578125,0.018894085562229157,0.002842091558128595,0.00937448900155723
1761412918839355100,4.378355224609375,0.01787818651795387,-0.011173428182303905,-0.0061977586615830655
1761412918849368000,4.3883681640625,0.022802783438563345,-0.00028159342035651204,0.00558561811260879
1761412918859381200,4.39838134765625,0.022345687320828436,0.01186009527221322,0.022447028803452847
1761412918869394200,4.408394287109375,0.02786941917836666,0.01416384216994047,-0.01677482838593423
1761412918879407000,4.418406982421875,0.04178980798125267,-0.000021335048973560333,-0.007681202152371406
1761412918889420300,4.428420166015625,0.03415536758005619,-0.00782981684282422,0.0009000175796449184
1761412918899433200,4.43843310546875,0.023966566520929336,-0.0005574877522885799,0.014417232409119605
1761412918909445000,4.448445068359375,0.017839608073234557,-0.005968406885117292,0.0036789807736873625
1761412918919458000,4.4584580078125,0.01633972490429878,-0.010880436585098505,0.003400090767070651
1761412918929471200,4.46847119140625,0.03685001349151134,0.004047960216552019,0.013612345767021179
1761412918939484200,4.478484130859375,0.03027764936387539,0.009710954414308071,0.01459163912795484
1761412918949497300,4.488497314453125,0.022215923461318014,-0.003824526724219322,-0.017217092260718346
1761412918959510000,4.498510009765625,0.0047369653940200806,-0.002648907073587179,0.0020364011984318493
1761412918969523200,4.508523193359375,0.039158290433883663,0.0006621171705424785,0.007671119149774312
1761412918979536100,4.5185361328125,0.03183130854666233,-0.003220423351228237,0.00280789702758193
1761412918989548300,4.52854833984375,0.03216214793622493,0.0026446692898869513,0.0051460576515644785
1761412918999561000,4.53856103515625,0.012112462598085403,0.007718903814256191,0.00005078033916652202
1761412919009574100,4.54857421875,0.028104981499910354,0.0030183249078691004,-0.0009070318423211574
1761412919019587300,4.55858740234375,0.029556933873891827,0.009260288037359714,0.00480352782420814
1761412919029600300,4.568600341796875,0.02627776607275009,0.0004540273778140545,0.010695070080831646
1761412919039613200,4.57861328125,0.016259645405411718,-0.005369418078660965,0.0057176469944417475
1761412919049626000,4.588626220703125,0.02699848156273365,-0.0035858956627547738,-0.003650704527273774
1761412919059639300,4.598639404296875,0.029219080221652982,0.000033756139129400255,-0.0029707594390958546
1761412919069651200,4.608651123046875,0.0124263508528471,-0.0028733634792268274,0.007910334733128547
1761412919079664000,4.6186640625,0.02997778963446617,0.00022065701335668563,0.028174174278602002
1761412919089677000,4.628677001953125,0.03362053005099296,-0.007834054626524449,0.02220211413167417
1761412919099690200,4.638690185546875,0.02495090138316154,-0.0016825462594628332,-0.0011436901424080133
1761412919109703200,4.648703125,0.007861234894394874,0.007827040363848209,-0.011639219063147901
1761412919119716000,4.658716064453125,0.018567337825894356,0.018407617219537497,0.006858268396928906
1761412919129729300,4.668729248046875,0.03255494664609432,0.001550152051448822,0.009582578794285654
1761412919139742200,4.6787421875,0.03869008840024471,-0.003969780413806438,-0.0053414340931922195
1761412919149754000,4.688754150390625,0.02736088513433933,0.004567746306955814,0.0021680647540837524
1761412919159767000,4.69876708984375,0.026512743872404095,0.009335983622074127,0.012202917360514402
1761412919169780200,4.7087802734375,0.028460370808839796,0.00029445290192961694,0.010885916477814317
1761412919179793200,4.718793212890625,0.027666005560755727,0.013936317024379969,0.007007102283090353
1761412919189806300,4.728806396484375,0.024688451054692268,-0.006784545573592185,0.007622238506749272
1761412919199819000,4.738819091796875,0.030259529185295102,-0.007812427316606045,0.011613353969529271
1761412919209832200,4.748832275390625,0.025157822132110593,-0.01668313151448965,0.010648673655837774
1761412919219845000,4.75884521484375,0.01896831984221935,-0.006844605197757482,-0.01183795650564134
1761412919229857300,4.768857177734375,0.026229250755906104,0.013308394384384154,0.014692249958217144
1761412919239870000,4.778869873046875,0.02216390101313591,0.014429945760220289,0.014864610850438475
1761412919249883100,4.788883056640625,0.03639408641755581,-0.007181582067161798,0.007103840655833482
1761412919259896300,4.798896240234375,0.015156652599573134,-0.007512129195779561,-0.003607376842200756
1761412919269909200,4.8089091796875,0.025481647258996962,0.0058219841517508026,-0.008507789169624448
1761412919279922200,4.818922119140625,0.007665420061349868,0.003677811729907989,-0.01483056245036423
1761412919289935000,4.82893505859375,0.02694704363644123,-0.01914659901857376,-0.015217369810864328
1761412919299947300,4.838947265625,0.02951251021027565,-0.012485533694177865,0.0011815379347652195
1761412919309960200,4.848960205078125,0.05605506469905376,-0.001972907508164644,0.00842990162782371
1761412919319973000,4.85897314453125,0.023755554118752478,-0.0026772563852369784,0.010546090064197778
1761412919329986000,4.868986083984375,0.012989245432615279,-0.01780994358733296,-0.004973039172217249
1761412919339999200,4.878999267578125,0.024362287840247153,-0.007800006226450204,-0.004551087433099747
1761412919350012200,4.88901220703125,0.028846155256032943,-0.011087357334047556,0.0010782236907631159
1761412919360025000,4.899025146484375,0.022660160097479818,-0.0007047872684895992,-0.008317527294531463
1761412919370038300,4.909038330078125,0.04177870206534862,0.007697861026227474,-0.004143529545515776
1761412919380050200,4.91905029296875,0.029201544564962385,0.008638649007678032,-0.015357143607735633
1761412919390063000,4.92906298828125,0.01751929007768631,-0.011656243263185024,0.004998685070127249
1761412919400076000,4.939075927734375,0.02483691961467266,-0.006701251204311847,0.016532690193131565
1761412919410089200,4.949089111328125,0.03771627493202686,-0.011086626681685446,0.011613427034765481
1761412919420102100,4.95910205078125,0.027214754661917685,-0.0033437574699521065,-0.007750102670118212
1761412919430115300,4.969115234375,0.027205986833572386,-0.005264058008044958,0.004031885864585638
1761412919440128000,4.9791279296875,0.020218612164258954,-0.007250409519672393,-0.013678250610083341
1761412919450141200,4.98914111328125,0.03307224851846695,-0.003589548924565315,-0.013547902228683233
1761412919460153000,4.999153076171875,0.02662672564089298,0.0008918342731893062,0.0017201748561114071
1761412919470166300,5.009166259765625,0.02046469587981701,0.0021868425197899342,0.012703121967613697
1761412919480179000,5.019178955078125,0.02315408109426498,0.007984422882646322,-0.005840981113165617
1761412919490192100,5.029192138671875,0.035432547909021374,-0.0019295067578554152,-0.010323679485172033
1761412919500205300,5.039205322265625,0.0196153855741024,-0.006093640699982643,0.010415449421852827
1761412919510218200,5.04921826171875,0.01452069278359413,-0.00034530630633234976,0.022145926965028047
1761412919520231200,5.059231201171875,0.017997428983449935,-0.008372107025980948,-0.010131298718228935
1761412919530244000,5.069244140625,0.017554361391067502,0.007501461671292781,0.0035777854215353726
1761412919540256300,5.07925634765625,0.02620937701165676,-0.0039048984840512274,-0.0027252602454274893
1761412919550269200,5.089269287109375,0.022623335218429564,0.009372808501124381,-0.01127959197051823
1761412919560282000,5.0992822265625,0.020973814445734023,-0.004115910886228084,-0.004640738477930426
1761412919570295000,5.109294921875,0.024977789390087126,-0.006984452059864998,0.007046995902061462
1761412919580308200,5.11930810546875,0.013580781584978103,-0.013319354169815778,0.01581234002932906
1761412919590321200,5.129321044921875,0.016414543706178664,-0.0014746025972068309,0.0009431991342455148
1761412919600334000,5.139333984375,0.019407295781373977,-0.010565379286557436,-0.006608531419560313
1761412919610346000,5.149345947265625,0.019440029007196425,-0.003824526724219322,0.002282265718281269
1761412919620359200,5.159359130859375,0.015123919373750686,0.0007552022814750671,-0.0028198066610842943
1761412919630372000,5.1693720703125,0.03158931648433208,-0.0027894845880568025,0.00752257752455771
1761412919640385000,5.179385009765625,0.04224690409898758,-0.004328822984546423,0.007325009125843644
1761412919650398200,5.189398193359375,0.03298983093202114,0.0017179098337888716,0.0013785948768258094
1761412919660411100,5.1994111328125,0.025658757391571998,0.0008468260876834392,-0.009170710057765244
1761412919670424300,5.20942431640625,0.0237327577650547,-0.002235211706161499,0.020029592398181556
1761412919680437000,5.21943701171875,0.029884850654006003,-0.0006337678588926791,0.01458813199661672
1761412919690449200,5.22944921875,0.03674947572648525,0.0106900285795331,0.00038512686006724834
1761412919700462000,5.239462158203125,0.027324060255289075,-0.009974135395139454,0.00037504385747015476
1761412919710475000,5.24947509765625,0.012051672321557998,0.005873129817098379,0.008647051509842275
1761412919720488200,5.25948828125,0.023427052816748617,-0.005246376220881938,0.00139817636013031
1761412919730500900,5.2695009765625,0.00651508098244667,-0.004234714960306882,0.0063711424671113485
1761412919740514000,5.27951416015625,0.014921090278029441,-0.002658697815239429,-0.001714110441505909
1761412919750527000,5.28952685546875,0.024982465565204618,0.011734861457347869,0.0011211860496550797
1761412919760539100,5.2995390625,0.03455459603071213,-0.012876871099323034,0.000009352350234985351
1761412919770551800,5.3095517578125,0.023925065466761587,-0.006046294426918029,-0.006903788039088248
1761412919780565000,5.31956494140625,0.021812018835544584,0.011294862604886293,0.012337284329906105
1761412919790578000,5.329577880859375,0.03633504970669746,0.000043400750309228896,0.010871449561044574
1761412919800591000,5.339591064453125,0.02934650599360466,0.014494681559503078,0.016591069316864014
1761412919810604000,5.34960400390625,0.011705050840973853,0.009168371970206498,0.011637173236533998
1761412919820617000,5.359616943359375,0.017678864553570747,0.008155249404907226,0.014270663545280693
1761412919830630100,5.369630126953125,0.04158931697309017,0.02170066741555929,-0.010125015107914805
1761412919840642800,5.379642822265625,0.03217734550535679,0.00019464578926563263,-0.011839929267019033
1761412919850655000,5.389655029296875,0.021130466312170026,0.0021297055050730706,-0.0041088966235518455
1761412919860668000,5.39966796875,0.0357844300866127,-0.019550942035764456,-0.005089066767320036
1761412919870681000,5.40968115234375,0.02726151641309261,0.0033572014734148978,0.0015985212378203867
1761412919880694000,5.419694091796875,0.016315174984931943,0.0030364450864493846,-0.0010727437980473042
1761412919890707000,5.42970703125,0.0368213719189167,-0.003706161041557789,-0.0038672698874026535
1761412919900719900,5.439719970703125,0.023217209458351134,0.00375511474981904,0.023170155446231362
1761412919910733000,5.449733154296875,0.019178163200616834,0.004104366578906774,0.021500030276924372
1761412919920745000,5.459744873046875,0.01575286492705345,0.002545300568640232,0.0101769644908607
1761412919930758000,5.4697578125,0.010686229187250137,0.000024988310784101486,0.0023571575853973624
1761412919940771000,5.47977099609375,0.01805295856297016,0.003621405367553234,0.025326675892993807
1761412919950784000,5.489783935546875,0.028455694633722304,0.0015101123020052909,0.006362009312584996
1761412919960797200,5.499797119140625,0.024027941319346425,0.012801175514608621,0.009547507480904459
1761412919970809900,5.509809814453125,0.03498772675096989,0.010070289245992898,0.0007162585105746984
1761412919980823000,5.519822998046875,0.04695815052986145,0.01434665139093995,0.0019089023612439632
1761412919990836000,5.5298359375,0.03289513838589191,0.005304097757488488,0.003599412731453776
1761412920000848100,5.53984814453125,0.033201427856087685,-0.004456394886970519,-0.00028561200834810734
1761412920010860800,5.54986083984375,0.034656302839517594,0.007550561510026454,0.0035413258686661717
1761412920020874000,5.5598740234375,0.034142508098483085,0.01206350888982415,0.005273118097335099
1761412920030887000,5.569886962890625,0.03527063534557819,0.004163549420237541,0.011461816669628023
1761412920040900000,5.579900146484375,0.030753450182080266,0.008307225096225739,0.011517638510093093
1761412920050913000,5.5899130859375,0.02751519891321659,-0.008569090902805328,0.017116773691400886
1761412920060926000,5.599926025390625,0.011844167050719261,-0.0061252048820257185,0.002403627075627446
1761412920070939100,5.609939208984375,0.010975567522644995,-0.02051101923957467,0.005948752336576581
1761412920080951000,5.619950927734375,0.020858663633465765,-0.008584580732882022,0.0018915128350257872
1761412920090964000,5.6299638671875,0.03523790211975574,0.00048149990662932395,-0.006463277729973196
1761412920100977000,5.639976806640625,0.04681844979822635,0.0023582535639405247,0.004946297295764088
1761412920110990000,5.649989990234375,0.020247838258743284,0.015280132848769425,0.011728066390380263
1761412920121003000,5.6600029296875,0.01936754829287529,-0.005371902296692132,0.0036913287986069915
1761412920131016000,5.670015869140625,0.03308569252192974,0.006892535992711782,-0.0047784664481878274
1761412920141028900,5.68002880859375,0.033953123006224634,0.011176204661279917,-0.010151903114840388
1761412920151042000,5.6900419921875,0.0413917485743761,0.009401742334663867,0.012921587023884058
1761412920161054000,5.700053955078125,0.03480886305272579,0.0027732641056179997,0.003112286801636219
1761412920171067000,5.71006689453125,0.029556933873891827,-0.007527034503966569,-0.0046349663242697715
1761412920181080000,5.720080078125,0.032382512688636775,-0.005554273126274347,0.013780980332195759
1761412920191093000,5.730093017578125,0.012754267632961272,-0.007192249591648579,0.0007813596360385417
1761412920201106200,5.740106201171875,0.029328970336914062,0.008470306703448295,0.0038895547844469544
1761412920211118800,5.750118896484375,0.02246142265498638,-0.007598492304980754,0.011877557863667607
1761412920221132000,5.760132080078125,0.020860417199134826,-0.00728913409486413,-0.0028823505032807588
1761412920231144000,5.77014404296875,0.0228308404892683,0.0025037995144724843,-0.004722133151069283
1761412920241157000,5.7801572265625,0.024197452667355537,-0.0005776537574827671,0.01206869652159512
1761412920251169800,5.790169677734375,0.021086627170443534,-0.002542377959191799,0.005914338610321283
1761412920261183000,5.800182861328125,0.022151041531562804,0.014121464332938193,-0.006973565339669585
1761412920271196000,5.81019580078125,0.054200961264967915,0.010541121628135442,-0.009360898867622017
1761412920281209000,5.820208984375,0.02207797629535198,0.012315876215696334,0.008481485684588551
1761412920291222000,5.830221923828125,0.021913141122460365,0.0017407061874866485,-0.004747779048979282
1761412920301235000,5.84023486328125,0.02310848838686943,-0.0003898761004209518,-0.008740428881719707
1761412920311247000,5.8502470703125,0.015346037691831588,0.007847498629987239,-0.008095043650269508
1761412920321260000,5.860260009765625,0.017258593314886092,0.0026114976726472378,-0.014119929962977767
1761412920331273000,5.87027294921875,0.02416588848531246,-0.0033089784175157544,-0.007146729949489236
1761412920341286000,5.880285888671875,0.028778935238718984,0.0016121113717555999,-0.00011646598652005195
1761412920351299000,5.890299072265625,0.03162029614448547,-0.005566401955485344,0.004363017515093088
1761412920361312000,5.90031201171875,0.013047113099694252,0.0019892741210758686,0.01539243411682546
1761412920371325000,5.910324951171875,0.015126841983199118,-0.008744739730656146,0.020541925834491846
1761412920381336800,5.9203369140625,0.019631752187013626,-0.007455722833424806,0.012815715496614574
1761412920391350000,5.93035009765625,0.024286884516477585,0.0008998714491724967,-0.002610182498395443
1761412920401363000,5.940363037109375,0.03209142078757286,-0.008585895907133817,0.0038087446331977843
1761412920411375900,5.9503759765625,0.02286006658375263,-0.02450213470235467,0.005386515343934297
1761412920421389000,5.96038916015625,0.029602526581287383,0.004078939876705408,0.01625453083887696
1761412920431402000,5.970402099609375,0.022716274198889733,0.008727788595855235,-0.010839812313765287
1761412920441415200,5.980415283203125,0.026398177582025527,0.01268836278989911,0.002591989254578948
1761412920451427800,5.990427734375,0.03039864539504051,0.0009014788843691348,0.01107442478723824
1761412920461440000,6.00043994140625,0.017506430596113204,-0.008617606219649314,-0.0059780514962971204
1761412920471453000,6.010452880859375,0.01855097121298313,-0.016798282326757907,0.014000249106064438
1761412920481466000,6.020466064453125,0.02660451380908489,-0.013676204783469438,-0.005321268087998032
1761412920491479000,6.03047900390625,0.020578093126416206,-0.00885156110599637,-0.013604820047691464
1761412920501492000,6.040491943359375,0.031628479450941084,0.01728065901622176,0.006992416170611977
1761412920511505000,6.0505048828125,0.03549742983877659,0.00686038728877902,0.008058657162636517
1761412920521518000,6.06051806640625,0.02577157011628151,0.0046855274677276605,0.00833586666882038
1761412920531531000,6.070531005859375,0.022321721923351287,-0.009799217219650744,0.006217486275359988
1761412920541543000,6.08054296875,0.008683657193183899,0.0059600774481892585,0.010417422183230518
1761412920551556000,6.09055615234375,0.017639701586961744,-0.008757306951284408,0.004694076100364327
1761412920561569000,6.100569091796875,0.025734160715341566,-0.011749328374117612,0.001861921414360404
1761412920571582000,6.11058203125,0.02935293573439121,0.0005478431411087513,-0.008569821555167436
1761412920581595000,6.120594970703125,0.034926351952552795,0.0011349953792989254,-0.008956848111376165
1761412920591608000,6.130608154296875,0.035350130322575564,0.005021189162880182,-0.0051758682679384944
1761412920601621000,6.14062109375,0.03386544472277164,0.0017588263660669326,-0.013991042886301874
1761412920611634000,6.150634033203125,0.021268998000025748,0.003385696915537119,-0.014609613176062703
1761412920621645800,6.160645751953125,0.019176994156837462,0.010671762270480395,-0.001804930530115962
1761412920631659000,6.170658935546875,0.023082184901833534,0.022572627944499254,0.0010493629224598408
1761412920641672000,6.180671875,0.03276888165771961,0.005106529358774424,-0.0036237434551119802
1761412920651685000,6.19068505859375,0.0341243879199028,-0.010240385115891695,0.011549568018317222
1761412920661698000,6.200697998046875,0.01868424220383167,-0.0005133563496172428,-0.01581139018125832
1761412920671711000,6.2107109375,0.007159808626770973,-0.0035955402739346024,-0.003430924296751618
1761412920681724200,6.22072412109375,0.03257365134656429,0.005661825153976678,0.0074981737356632945
1761412920691736000,6.230736083984375,0.012086159113049506,0.0026167583696544167,-0.0011497545570135115
1761412920701749000,6.2407490234375,0.01779284632205963,-0.0014860007740557194,0.006577844020351767
1761412920711762000,6.250761962890625,0.01586450860798359,0.007584902171045542,0.008591887256503105
1761412920721774800,6.26077490234375,0.043261634099483484,-0.004388151956349611,0.0017105302449315785
1761412920731788000,6.2707880859375,0.029502573338150977,0.013803484424948692,0.009735577398911118
1761412920741801000,6.280801025390625,0.027590017715096473,0.003594078969210386,-0.001821443273499608
1761412920751814000,6.29081396484375,0.027554946401715276,0.01755582269579172,-0.013611249788478016
1761412920761827000,6.3008271484375,0.016906711137294767,-0.01581160937696695,0.0178736564733088
1761412920771839000,6.3108388671875,0.027823826470971105,-0.0025995149739086627,0.01011748938858509
1761412920781852000,6.320851806640625,0.03648527183234691,-0.0034482407577335833,-0.007180266892910003
1761412920791864800,6.33086474609375,0.018635726886987686,-0.007497223887592554,-0.003765490013360977
1761412920801878000,6.3408779296875,0.02640285375714302,0.003166647337377071,-0.0018923165526241062
1761412920811891000,6.350890869140625,0.028825112468004226,0.012229805367439985,-0.005495674806833267
1761412920821904000,6.36090380859375,0.0324076471298933,0.001784253068268299,0.004194456015154719
1761412920831916800,6.370916748046875,0.022049334722757337,0.001466711551696062,-0.005767988942191005
1761412920841930000,6.380929931640625,0.01587970617711544,-0.0053664954692125314,-0.006954714508727192
1761412920851942000,6.39094189453125,0.031160861939191816,-0.02181771792396903,0.019725641015544533
1761412920861954800,6.400954833984375,0.026236849540472028,-0.016623510281741617,0.0052727527711540455
1761412920871967700,6.4109677734375,0.017719196563959122,0.012691431529819965,-0.006741948540881276
1761412920881981000,6.42098095703125,0.03299684519469738,0.015615648413449526,-0.001338262866437435
1761412920891994000,6.430994140625,0.033473230534791946,0.013860913700610399,-0.012337430460378527
1761412920902006800,6.4410068359375,0.03394260161221027,0.00797360922768712,0.014866437481343746
1761412920912020000,6.45102001953125,0.04085223487019539,-0.007046703641116619,0.01758161472417414
1761412920922031900,6.461031982421875,0.019171148937940596,-0.0015668109253048896,0.01285612057223916
1761412920932045000,6.471045166015625,0.005927051961421966,-0.0027966449812054633,0.006297127382829785
1761412920942057700,6.4810576171875,0.020534838506579396,0.0062122986435890195,-0.005032368144020438
1761412920952071000,6.49107080078125,0.016797405543923376,0.0017165946595370768,0.006669833152741193
1761412920962083800,6.501083740234375,0.0148357500821352,0.0001293254680931568,0.013195873920619487
1761412920972097000,6.511096923828125,0.007174421674013137,0.005610971749573946,-0.0010045008674263954
1761412920982110000,6.52110986328125,0.023162264400720594,0.0001543137788772583,-0.001241670624166727
1761412920992123000,6.531122802734375,0.0177636202275753,-0.0029451135411858557,-0.002179024539515376
1761412921002134800,6.541134765625,0.015351298388838768,0.004627221409231424,0.005595262723788619
1761412921012148000,6.55114794921875,0.030462942802906033,0.010567863504588604,-0.00036583763770759104
1761412921022161000,6.561160888671875,0.03824877437353134,-0.007422112824767828,0.018622721274942158
1761412921032173800,6.571173828125,0.02343348255753517,0.004535013081133366,0.014237930319458246
1761412921042187000,6.58118701171875,0.02207622272968292,0.007184504676610231,0.00417765101082623
1761412921052200000,6.591199951171875,0.022542671197652814,-0.008429390171170234,0.009802724350988863
1761412921062212900,6.601212890625,0.033500703063607216,0.0024865561187267303,0.007150894667953252
1761412921072225800,6.611225830078125,0.022016016975045204,-0.0032194004379212855,0.013786460224911569
1761412921082238000,6.621238037109375,0.018127777364850044,-0.005624415753036737,0.02037614081352949
1761412921092251000,6.6312509765625,0.03638648763298988,-0.007904927905648946,0.010006137968599796
1761412921102263800,6.641263916015625,0.01228431203365326,0.0028840310037136076,-0.0013031915530562401
1761412921112276700,6.65127685546875,0.03101297790110111,0.001476210032403469,0.011254019137844443
1761412921122290000,6.6612900390625,0.022324060010910033,-0.008342734801024198,0.0033379122510552406
1761412921132303000,6.67130322265625,0.022308277919888497,0.0032085867829620834,0.002922317187488079
1761412921142315800,6.681315673828125,0.02021452051103115,0.010944295601546764,0.015099661715328692
1761412921152328000,6.691327880859375,0.030402737048268316,0.004802139584720135,-0.003959405150264501
1761412921162340900,6.7013408203125,0.018563830694556235,0.0045204000338912005,0.0014176847781985997
1761412921172354000,6.71135400390625,0.030069559571146962,-0.002502776601165533,-0.007280366266518831
1761412921182366700,6.72136669921875,0.01858838061392307,-0.004773790273070335,-0.0037610330339521167
1761412921192380000,6.7313798828125,0.011098317119479178,-0.006981237189471721,0.0037078415419906376
1761412921202392800,6.741392822265625,0.019335984110832212,0.0071603931486606594,0.018632073625177145
1761412921212406000,6.751406005859375,0.02129062530994415,-0.001891220574080944,0.0043599487751722335
1761412921222419000,6.7614189453125,0.03037994069457054,-0.0007239303603768348,0.00507693793810904
1761412921232430800,6.771430908203125,0.03057634004950523,0.00407470209300518,0.01234386020116508
1761412921242443800,6.78144384765625,0.008170446974039076,0.002779839976876974,0.01811681757941842
1761412921252457000,6.79145703125,0.02821837874650955,-0.0009592004209756851,0.003715586457028985
1761412921262470000,6.801469970703125,0.024618892949819563,0.004983049109578132,-0.004069952852651476
1761412921272482800,6.81148291015625,0.01774842265844345,-0.0008085399039089679,-0.001014145478606224
1761412921282496000,6.82149609375,0.022405893075466154,-0.0030601182229816914,0.007073080191388726
1761412921292509000,6.831509033203125,0.023145897787809372,-0.005579553698003292,0.012726064451783895
1761412921302521900,6.84152197265625,0.026021745485067367,-0.0006100947223603725,0.0026652006212621927
1761412921312533800,6.85153369140625,0.02109597952067852,0.011709288624674082,-0.005802329603210091
1761412921322547000,6.861546875,0.011961655950546263,0.0030520810469985005,0.0077876582015305755
1761412921332560000,6.871559814453125,0.021846505627036092,-0.002590747145563364,0.008100450477749108
1761412921342572800,6.88157275390625,0.03937631709873676,-0.004423077139258384,-0.0059404228996485465
1761412921352585700,6.891585693359375,0.02352934414744377,-0.004297404932975769,0.003604308102279901
1761412921362599000,6.901598876953125,0.011557751324772833,-0.0063413318507373325,-0.004068053156509995
1761412921372612000,6.911612060546875,0.027411154016852377,0.024127310040593146,-0.019369155728071928
1761412921382624000,6.9216240234375,0.019929858350753782,0.0037331951789557932,0.004925473703444004
1761412921392637000,6.931636962890625,0.025767478463053703,-0.0028754093058407306,0.012375862774625419
1761412921402649900,6.94164990234375,0.03086392481923103,-0.008607815477997063,-0.0042359570693224664
1761412921412663000,6.9516630859375,0.02173544646799564,0.005347644638270139,0.002129340178892016
1761412921422676000,6.961676025390625,0.029937457624077794,-0.009629413610696792,0.0019603402875363824
1761412921432689000,6.97168896484375,0.012704583272337913,-0.000702010789513588,-0.013658011539652943
1761412921442701800,6.981701904296875,0.020920038431882858,0.011050240194052457,0.01612915089353919
1761412921452715000,6.991715087890625,0.03858253637254238,0.002057224790751934,0.003139101743325591
1761412921462727000,7.001726806640625,0.031575872480869294,-0.003421206620335579,-0.0034963907483965156
1761412921472739800,7.01173974609375,0.03712824591100216,0.011917232286930084,-0.0004870528645813465
1761412921482752800,7.021752685546875,0.020959785920381543,0.01268573244139552,0.00022102233953773975
1761412921492766000,7.031765869140625,0.02945931871831417,0.00007686462849378585,-0.010056772177293897
1761412921502779000,7.04177880859375,0.015977905854582787,-0.0035826807923614976,0.021239406579360364
1761412921512791800,7.051791748046875,0.031975685453414913,0.013686433916538954,0.006556947362795472
1761412921522805000,7.061804931640625,0.030961539974808692,0.003973872067034244,0.019803820818290113
1761412921532817000,7.07181689453125,0.026041034707427024,0.002130290026962757,0.0038904315672814846
1761412921542830000,7.081830078125,0.03317980054616928,0.004007482075691223,-0.015407412490248679
1761412921552842800,7.0918427734375,0.02358253563940525,-0.0011547229930758476,0.011761676399037241
1761412921562856000,7.10185595703125,0.03135024703145027,0.0014412848494946956,0.003349237362667918
1761412921572868900,7.111868896484375,0.031651860326528544,0.0016702712997794151,0.0027698300395160914
1761412921582882000,7.121882080078125,0.027553192836046216,-0.0028853461779654024,0.005907397412881255
1761412921592894700,7.131894775390625,0.03235328659415245,-0.009432721994817256,-0.009030643999949097
1761412921602908000,7.141907958984375,0.018625205492973328,-0.01736497629880905,-0.0008391542378813028
1761412921612919800,7.151919921875,0.00800561180114746,0.003962620020657778,0.01596672687344253
1761412921622933000,7.16193310546875,0.020132687446475027,0.008530512458086014,0.015581088556721806
1761412921632946000,7.17194580078125,0.013962474378943442,0.0007683540239930152,0.016598521970957517
1761412921642958800,7.181958740234375,0.028747955578565597,-0.0027354163132607937,0.015715966982766984
1761412921652972000,7.191971923828125,0.028598902496695517,0.0012513152353465556,0.009169467948749661
1761412921662985000,7.20198486328125,0.027240473625063894,-0.0011880407407879828,-0.0004563654653728008
1761412921672998000,7.211997802734375,0.019638766449689864,0.0006749766521155834,-0.003141805157065391
1761412921683010800,7.2220107421875,0.021483517533540726,-0.01045753499791026,0.01326360539458692
1761412921693023000,7.23202294921875,0.014605448457598685,-0.001282148765027523,0.007899667208641768
1761412921703036000,7.242035888671875,0.0361503407895565,0.0064626201428473,0.0037453240081667897
1761412921713049300,7.25204931640625,0.02746200742125511,0.013352525787055492,0.0051491994567215435
1761412921723062500,7.2620625,0.013948445853590964,0.00563259905949235,0.008229556750133633
1761412921733075500,7.272075439453125,0.0330523747742176,-0.011974369301646947,0.008106514892354607
1761412921743088400,7.28208837890625,0.014148936861753463,-0.0017043196998536587,0.010177110621333122
1761412921753101600,7.2921015625,0.03299976780414581,-0.017596154706180096,0.010370148975402116
1761412921763113500,7.302113525390625,0.034656302839517594,0.009186053757369517,-0.004327069418877363
1761412921773126700,7.312126708984375,0.02268354097306728,0.0020499182671308517,-0.007086231933906674
1761412921783139600,7.3221396484375,0.03509527877867222,0.008817658836394548,-0.007706848050281405
1761412921793152500,7.332152587890625,0.028216040658950805,0.017336334726214406,-0.0028895108964294195
1761412921803165400,7.34216552734375,0.024499065962433814,-0.00568681346476078,0.008619652046263217
1761412921813178600,7.3521787109375,0.017767711880803106,-0.0072945409223437304,0.009480725855007767
1761412921823191300,7.36219140625,0.03334580476284027,0.0007633855879306793,-0.004157777266576886
1761412921833204500,7.37220458984375,0.03843874398767948,-0.0011338263355195521,-0.001593918127939105
1761412921843216400,7.38221630859375,0.021079028385877607,0.009626929392665623,0.005087313201650977
1761412921853229600,7.3922294921875,0.023755554118752478,0.0011272504642605781,0.019326266434416175
1761412921863242500,7.402242431640625,0.03139759330451488,0.010328647921234368,0.0017703706733882426
1761412921873255400,7.41225537109375,0.03544599191248417,-0.00023541619107127188,0.007652414449304342
1761412921883268600,7.4222685546875,0.029003391644358632,0.010451105257123708,0.003205079651623964
1761412921893281500,7.432281494140625,0.036333296141028405,-0.0024237200155854226,-0.00192461138702929
1761412921903294500,7.44229443359375,0.03496551491916179,-0.0002466682374477386,-0.002882642764225602
1761412921913307400,7.452307373046875,0.022695231410861015,-0.0025296646080911157,-0.011196516796946525
1761412921923319600,7.462319580078125,0.03049801411628723,-0.011780600295215845,0.006132876731827855
1761412921933332500,7.47233251953125,0.0381242712110281,0.0018570260435342787,0.0005849602811038493
1761412921943345700,7.482345703125,0.028559739530086517,0.008697393457591534,-0.0019119711011648178
1761412921953358300,7.4923583984375,0.024046646019816396,0.01520765213444829,0.013092705807089804
1761412921963371500,7.50237158203125,0.02116436858177185,-0.0007360591895878315,-0.005726049496605992
1761412921973384400,7.512384521484375,0.02652794144153595,0.00968698901683092,0.002454407414793968
1761412921983397400,7.5223974609375,0.027135844206809995,0.011725362976640463,0.006475552689656615
1761412921993409300,7.5324091796875,0.021736615511775016,0.011673048267513513,0.0022129998743534085
1761412922003422500,7.54242236328125,0.019179916766285894,0.001839636517316103,-0.002033697784692049
1761412922013435600,7.552435546875,0.0198550395488739,0.0021450492046773432,-0.00712671007476747
1761412922023448600,7.562448486328125,0.015946926194429396,-0.0068257543668150894,-0.014045914878696202
1761412922033461500,7.57246142578125,0.02310848838686943,-0.011724632324278355,-0.020639979381486772
1761412922043474400,7.582474365234375,0.02774783862531185,-0.0048730128638446325,0.0009967559523880482
1761412922053487600,7.592487548828125,0.029728783309459685,0.005244476524740457,0.00947042365670204
1761412922063500300,7.602500244140625,0.03421381976902485,0.0003156418204307556,0.007347513218596577
1761412922073512400,7.612512451171875,0.029396190354228018,-0.0018777765706181526,-0.0018494272589683531
1761412922083525400,7.622525390625,0.019681436547636984,-0.002183043127506971,0.006765840873122215
1761412922093538600,7.63253857421875,0.015514964517951011,0.0006590484306216239,-0.002880889198556542
1761412922103551500,7.642551513671875,0.02345043369233608,0.007745207299292087,-0.019619404162093994
1761412922113564400,7.652564453125,0.018948446097970008,0.002310322768986225,-0.0021764672562479973
1761412922123577600,7.66257763671875,0.027426351585984228,0.009572276595979928,-0.007049041728675365
1761412922133590500,7.672590576171875,0.020782091265916822,-0.007261515435576438,-0.00005611410140991211
1761412922143603500,7.682603515625,0.035710195806622505,0.0012954466380178929,0.011154723481833934
1761412922153615400,7.692615478515625,0.02760930693745613,0.017633564107120036,-0.00005509118810296058
1761412922163628500,7.702628662109375,0.02385784544944763,0.009280015651136637,-0.010143354482203722
1761412922173641500,7.712641357421875,0.006937105786800384,0.006155307759344577,-0.0003648147244006395
1761412922183654700,7.722654541015625,0.003319499811530113,0.015726707572489975,-0.0012426204722374677
1761412922193667300,7.732667236328125,0.013929741153120994,0.009206219762563705,-0.0024612755469977854
1761412922203680500,7.742680419921875,0.033090368697047234,0.00560249618217349,0.0112139063231647
1761412922213693400,7.752693359375,0.029052491483092305,0.005586860221624374,0.0028244828362017868
1761412922223705600,7.76270556640625,0.021702128720283508,0.012882570187747478,0.006606558658182621
1761412922233718300,7.77271826171875,0.03139174808561802,-0.003442103277891874,-0.0024912322938442227
1761412922243731500,7.7827314453125,0.022833178576827047,-0.007067600298672914,0.012096972768008708
1761412922253744600,7.79274462890625,0.013984101688861847,-0.009231354203820229,0.002466828504949808
1761412922263757600,7.802757568359375,0.03020049247443676,-0.0011519465140998363,-0.010288754302263258
1761412922273770500,7.8127705078125,0.030372341910004614,-0.002057224790751934,-0.004992547590285539
1761412922283783400,7.822783447265625,0.02856441570520401,0.00202668352201581,0.0033409079257398842
1761412922293796600,7.832796630859375,0.02260170790851116,0.011681085443496704,0.00029905601181089874
1761412922303808500,7.84280859375,0.016190671822428702,0.005339169070869684,0.00911971052289009
1761412922313821400,7.852821533203125,0.021896189987659454,0.014515285956114529,-0.006448664682731032
1761412922323834400,7.86283447265625,0.01620002417266369,0.01602247564867139,-0.008339300734922289
1761412922333847600,7.87284765625,0.009618307694792747,0.01261544368416071,-0.011260302748158573
1761412922343860500,7.882860595703125,0.013204349488019943,-0.016571341703087092,0.006470072796940803
1761412922353873400,7.892873291015625,0.031200024905800816,-0.023777327559143302,0.005488295217975974
1761412922363886600,7.902886474609375,0.017611060014367103,-0.007092442478984594,-0.0012381634928286076
1761412922373898500,7.9128984375,0.0063946694731712335,0.01714826480820775,-0.01431464881747961
1761412922383911700,7.92291162109375,-0.20354221242666243,0.17649068550243974,-0.10279460404217243
1761412922393924400,7.93292431640625,0.1342483114480972,0.04104220448434353,-0.18184702490381896
1761412922403937500,7.9429375,0.41446576727628703,-0.11613660843521356,0.05620872089080512
1761412922413950500,7.952950439453125,0.14684884982407093,-0.41176776036396623,0.4484859641693532
1761412922423963600,7.962963623046875,-0.20375497839450835,-0.060581017690896986,0.16289331810884178
1761412922433976300,7.972976318359375,-0.24934827031195161,0.39516090895608064,-0.16293584207631648
