time,seconds_elapsed,z,y,x
1761412708414354000,0.06635400390625,0.007730301991105079,-0.0013708499617874621,0.03395275768004358
1761412708424366600,0.07636669921875,-0.053146483775973315,0.02028553992062807,-0.0019185469724237918
1761412708434380800,0.086380859375,-0.01568447586596012,0.012590309242904186,-0.013171397066488861
1761412708444393700,0.096393798828125,0.07121288634240627,0.006652151365578174,-0.006912044410780071
1761412708454407700,0.10640771484375,0.11273381425440311,0.009179331755638122,0.00856039613969624
1761412708464420900,0.1164208984375,0.05013970317542553,0.0014117664940655231,0.021883915027976035
1761412708474434800,0.126434814453125,-0.022866496324539184,0.018695055858790874,0.010098127100989222
1761412708484447700,0.13644775390625,-0.0169184015750885,0.006089402916282415,-0.018476079345867036
1761412708494461000,0.1464609375,0.027465514552593228,0.005134732539951801,-0.004509878639876843
1761412708504475400,0.156475341796875,0.04872866733372211,-0.006358721376955509,-0.003718509066477418
1761412708514488300,0.16648828125,0.07164075636565685,0.01792334083393216,0.017945260404795407
1761412708524502300,0.176502197265625,0.03421674237847328,0.002508037298172712,-0.00045322366021573543
1761412708534515200,0.18651513671875,0.007070376777648925,-0.004851531684398651,-0.009043722677230834
1761412708544528100,0.196528076171875,0.01272211892902851,0.015865823782235382,-0.0022142419833689926
1761412708554542300,0.206542236328125,0.030978491109609603,0.009428776472061872,0.007359422852098942
1761412708564555300,0.21655517578125,0.037921442115306854,-0.009709639240056276,-0.004891863694787025
1761412708574569200,0.2265693359375,0.03510580017268657,0.008082914821058511,-0.007031652202457189
1761412708584582400,0.23658251953125,0.02436637949347496,-0.005867576859146356,-0.009761223296821117
1761412708594596000,0.24659619140625,0.02239303359389305,-0.005932312658429146,-0.012113485511392354
1761412708604609300,0.256609375,0.015504443123936652,0.011108692383021116,0.007399024210125208
1761412708614622500,0.26662255859375,0.039055999103188514,-0.0016154723726212977,0.005869768816232681
1761412708624636200,0.27663623046875,0.042211248263716694,-0.00673252312541008,-0.000196545485407114
1761412708634649300,0.2866494140625,0.026451953595876692,0.010484276874363421,-0.004682458727806807
1761412708644663300,0.296663330078125,0.029853286471962927,0.01748582619950175,-0.002598199799656868
1761412708654676200,0.30667626953125,0.034463995137810705,0.008613952957838773,0.008863909130915998
1761412708664689400,0.316689453125,0.031001871985197067,-0.004954553667455911,-0.006058423256129026
1761412708674703400,0.326703369140625,0.019303250885009764,0.01395867498666048,-0.007094049914181232
1761412708684716300,0.33671630859375,0.03353577437698841,0.004841740942746401,-0.00766198599524796
1761412708694730200,0.346730224609375,0.03050678194463253,0.0022562544941902157,0.009259118993580341
1761412708704743200,0.3567431640625,0.02014554692804813,0.013956336899101734,-0.004953165427967906
1761412708714757000,0.366757080078125,0.01332476099729538,0.005808832409232854,-0.01300436993651092
1761412708724770300,0.376770263671875,0.01754851617217064,0.001342792911082506,0.012963453404232859
1761412708734783200,0.386783203125,0.03817687818109989,-0.016595599361509082,0.007842018737271427
1761412708744797200,0.396797119140625,0.028439912542700767,0.0024454934559762476,-0.001611599915102124
1761412708754810400,0.406810302734375,0.029044308176636693,0.01260229194164276,-0.011469123193249105
1761412708764824000,0.416823974609375,0.032220600125193594,0.01867342854887247,0.0005666939720511436
1761412708774837200,0.426837158203125,0.01852700581550598,0.013481558994203805,0.010645970242097973
1761412708784851200,0.436851318359375,0.027344518521428107,0.026296909164637325,-0.007371917007490992
1761412708794864000,0.446864013671875,0.03031856589615345,0.008965835135430098,0.002676160406693816
1761412708804877300,0.456877197265625,0.02610708568096161,0.005819938325136899,0.0037925241507589815
1761412708814891300,0.466891357421875,0.035405075380206104,0.009900193376094102,0.013944865657016635
1761412708824904200,0.476904296875,0.029735213050246238,0.007042904248833656,-0.007911942168325185
1761412708834918100,0.486918212890625,0.02836567826271057,-0.0010563771851360797,-0.0047279053047299385
1761412708844931000,0.49693115234375,0.02998597294092178,-0.015387246485054492,-0.01225165187306702
1761412708854944300,0.5069443359375,0.036999651095271105,-0.006138502755016088,0.0036588878337293863
1761412708864958200,0.516958251953125,0.037350948750972744,0.01175356615781784,-0.0020979221273213625
1761412708874971100,0.52697119140625,0.017437457013130188,0.008265577911585569,0.00847074509486556
1761412708884985000,0.536985107421875,0.022963526958227155,-0.0067689096130430695,0.014064473448693752
1761412708894998300,0.546998291015625,0.0233972422003746,0.013545125749707222,-0.013695786266773938
1761412708905012200,0.55701220703125,0.03727145377397537,-0.006380348686873912,-0.014754282343760132
1761412708915025200,0.567025146484375,0.028453941068053244,0.00013137129470705986,0.004209507453814149
1761412708925038300,0.577038330078125,0.02098258227407932,0.023244097465276718,0.018522037379443645
1761412708935052000,0.587052001953125,0.041323359513282774,0.015228694922477005,0.014818287490680813
1761412708945065200,0.597065185546875,0.042805122503638264,-0.006605243483930826,-0.01463518600873649
1761412708955079400,0.607079345703125,0.0231926595389843,0.014594780933111905,0.004317132546752691
1761412708965092000,0.617092041015625,0.028261633366346357,0.025657003825902937,-0.0036735739462077617
1761412708975105300,0.627105224609375,0.016734277179837227,0.011078589505702256,0.010071823615953325
1761412708985119200,0.637119140625,0.03607902911901474,-0.003255933056026697,0.0035071313381195065
1761412708995132200,0.647132080078125,0.036064416071772576,0.006818886234611273,-0.005065758956968784
1761412709005146400,0.657146484375,0.02935468930006027,0.007617489266395569,-0.011474237759783863
1761412709015159000,0.667158935546875,0.030664602854847907,0.008748831383883953,-0.0004492050722241401
1761412709025173200,0.67717333984375,0.02253682597875595,0.0056489656724035735,0.030144378373026845
1761412709035186200,0.687186279296875,0.027913258320093153,0.0064626201428473,-0.0042430443972349165
1761412709045199000,0.69719921875,0.029583237358927726,0.006701689595729112,-0.003973214479908347
1761412709055213300,0.70721337890625,0.030043840608000753,0.01595861663222313,-0.0007581248909235
1761412709065226200,0.717226318359375,0.017609306448698042,0.01227028350830078,0.007580956648290157
1761412709075240200,0.727240234375,0.023016718450188635,0.016295593501627445,-0.0063091831468045706
1761412709085253000,0.737253173828125,0.020811317360401153,0.00993015012294054,0.012928601286560296
1761412709095267300,0.747267333984375,0.025308628779649733,0.018776596662402154,0.0054147915903478856
1761412709105280300,0.7572802734375,0.025766309419274328,0.010629238303005694,0.0005742196913808584
1761412709115293200,0.767293212890625,0.038323008653521534,-0.0023328268617391584,-0.00362637380361557
1761412709125307400,0.777307373046875,0.023826281267404555,-0.004396773654222488,-0.010575389223918319
1761412709135320000,0.787320068359375,0.0220335526317358,0.00872998055294156,0.003136617525294423
1761412709145334300,0.797334228515625,0.03996668420732021,0.0008184767760336399,0.01117130929045379
1761412709155347500,0.807347412109375,0.028006197300553322,0.007597469391673803,0.011953618774563073
1761412709165360000,0.817360107421875,0.032635026144981386,-0.0013645663514733313,-0.01848806204460561
1761412709175374300,0.827374267578125,0.02693476867675781,0.009276216258853673,0.00280256326533854
1761412709185387000,0.837386962890625,0.022907412856817244,0.004537351168692112,-0.015828998903185128
1761412709195401200,0.847401123046875,0.02663373990356922,-0.002558890702575445,0.0024584990680217743
1761412709205414400,0.857414306640625,0.019464578926563263,0.025403467456251383,0.00748977123349905
1761412709215427000,0.867427001953125,0.03173310886919498,-0.010472732567042111,-0.010257993837818502
1761412709225441300,0.877441162109375,0.03182254071831703,0.001175181259214878,0.006465908078476786
1761412709235454200,0.8874541015625,0.030346622946858404,-0.0021865502588450905,-0.005594751267135143
1761412709245468200,0.89746826171875,0.03396598248779774,0.009724106156826019,0.0010031126279383897
1761412709255481300,0.9074814453125,0.025765140375494957,-0.005958908404409885,-0.004040580627694725
1761412709265495300,0.917495361328125,0.03194879744648933,-0.008216331942379473,0.005986161737516522
1761412709275508200,0.92750830078125,0.03209960409402847,-0.0016556582525372504,0.004153174156695604
1761412709285521200,0.937521240234375,0.030761048966646193,0.01567395447194576,0.008814370900765062
1761412709295535400,0.947535400390625,0.03812660929858684,0.019210019643604755,-0.0015875614523887633
1761412709305548300,0.95754833984375,0.034871991416811944,0.020880729334801434,-0.0037136867608875035
1761412709315562200,0.967562255859375,0.017225275567173955,0.007207593291252851,-0.013598390306904911
1761412709325575400,0.977575439453125,0.022460838133096694,0.006788929487764835,-0.012071838326752186
1761412709335588000,0.987588134765625,0.026917233020067214,0.014893179357796906,0.0000684621263295412
1761412709345602300,0.997602294921875,0.03480535592138767,0.017326397854089737,0.006912994258850813
1761412709355615200,1.007615234375,0.026139818906784056,0.003488865029066801,-0.015234028684720397
1761412709365629200,1.017629150390625,0.04414367763102054,0.004452741625159979,0.002117357480153441
1761412709375642400,1.027642333984375,0.029816461592912673,0.012600684506446122,0.006805734492093324
1761412709385656300,1.03765625,0.02401858896911144,-0.0011906710892915725,0.001439531283825636
1761412709395669200,1.047669189453125,0.0144523037225008,-0.007766688478738069,-0.009211699655279517
1761412709405682400,1.057682373046875,0.025994857478141783,0.006545622251182794,-0.001629354767501354
1761412709415696100,1.067696044921875,0.03293663944005966,-0.011109569165855645,-0.004952434775605798
1761412709425709300,1.077709228515625,0.036974516654014584,0.01775470626875758,-0.013087079783901572
1761412709435723300,1.08772314453125,0.02528875503540039,0.012151479434221983,0.008790478568524121
1761412709445736200,1.097736083984375,0.027082652714848516,0.0025784721858799456,0.024338833899423477
1761412709455749400,1.107749267578125,0.033219548034667964,0.009904869551211596,-0.011567395935952662
1761412709465763300,1.117763427734375,0.03213175279796123,0.0021646306879818437,0.003238178203627467
1761412709475776300,1.1277763671875,0.026268413722515104,0.008275807044655085,0.0039699996095150705
1761412709485790200,1.137790283203125,0.03556523437798023,-0.0014930150367319583,-0.004452814690396189
1761412709495803400,1.147803466796875,0.023882979890704155,-0.006769201873987913,0.003304229177162051
1761412709505816600,1.157816650390625,0.023465046739578246,-0.0011665595613420008,0.014817702968791126
1761412709515830500,1.16783056640625,0.028763737669587133,-0.005295476059615611,-0.014090192411839961
1761412709525843500,1.177843505859375,0.020721885511279105,0.008903437423706055,-0.006716156512498855
1761412709535857400,1.187857421875,0.02490180154442787,0.013127484859526157,-0.006595452742278575
1761412709545870300,1.197870361328125,0.028934418061375616,0.005387392126768827,-0.0004519084859639406
1761412709555883500,1.207883544921875,0.020364158114790917,0.016491846726089714,-0.0061715282417833806
1761412709565897500,1.2178974609375,0.03634849371016025,0.00630202275365591,-0.0006293839447200298
1761412709575910400,1.227910400390625,0.035277065086364745,0.008192220414429902,-0.0035183103192597625
1761412709585924400,1.23792431640625,0.020272388178110123,0.015374825394898652,-0.0012269114464521407
1761412709595937500,1.2479375,0.014721768313646315,0.019771599049121142,-0.00738419196717441
1761412709605951200,1.257951171875,0.028510055169463155,0.017894699261337518,-0.008979059943184256
1761412709615964400,1.26796435546875,0.02631692903935909,0.0037587680116295814,0.017272475709766148
1761412709625977600,1.2779775390625,0.02918868508338928,0.0060243748560547825,0.003671747315302491
1761412709635991300,1.2879912109375,0.027541502398252486,-0.0003372691303491592,0.004099398142844438
1761412709646004500,1.29800439453125,0.03145253836214542,-0.00190773331746459,-0.007813669425621629
1761412709656018400,1.308018310546875,0.019189853638410567,-0.0023911329202353955,-0.002425035189837217
1761412709666031400,1.31803125,0.03431494205594063,-0.000026157354563474654,0.0015231179140508175
1761412709676044500,1.32804443359375,0.03866378491520881,0.010832505790144204,-0.002260419212654233
1761412709686058500,1.33805859375,0.025386954712867737,0.008069616948068141,-0.006042348904162645
1761412709696071400,1.348071533203125,0.015049685093760489,-0.002672872471064329,0.0024298574954271317
1761412709706085400,1.35808544921875,0.022234628161787985,-0.000450520246475935,-0.00926255305968225
1761412709716098300,1.368098388671875,0.03555938915908336,0.000832066909968853,-0.00289579450674355
1761412709726111500,1.378111572265625,0.028991701206564902,0.010019728102535009,0.0008266600824892521
1761412709736125400,1.38812548828125,0.020890812337398527,-0.0024934242509305478,-0.001063318382576108
1761412709746138400,1.398138427734375,0.028940263280272483,0.005411211393773555,-0.01922127168998122
1761412709756152300,1.40815234375,0.03669569971263408,0.011170651703327894,0.0034180648151785134
1761412709766165500,1.41816552734375,0.0169663323700428,0.011969546996057033,0.00328727804236114
1761412709776179200,1.42817919921875,0.021611527827382085,0.01116144548356533,0.011909560437127946
1761412709786192400,1.4381923828125,0.03690028237402439,0.010324556268006562,0.00031045418865978717
1761412709796205600,1.44820556640625,0.026724925318360328,0.013910159669816494,-0.005237389196828007
1761412709806219300,1.45821923828125,0.030152561679482458,0.00989201006963849,-0.01356017718836665
1761412709816232400,1.468232421875,0.021460721179842948,0.007528495808690786,-0.001955956373363733
1761412709826246400,1.478246337890625,0.023062311157584187,0.003373714216798544,-0.016683642971143126
1761412709836259300,1.48825927734375,0.025931144592165944,-0.004057166436314583,0.000278305484727025
1761412709846272500,1.4982724609375,0.02216214744746685,0.0039908232018351555,-0.0039512949090451
1761412709856286500,1.508286376953125,0.018825696501135827,0.007586363475769757,-0.005571589587256312
1761412709866299400,1.51829931640625,0.024495558831095693,0.004966974757611751,0.009677344405651092
1761412709876313300,1.528313232421875,0.015374094742536544,0.008712883287668227,0.0013724573969841002
1761412709886326300,1.538326171875,0.039642274558544154,0.02435848844796419,0.010635302717611194
1761412709896339500,1.54833935546875,0.013898176971077918,0.004339636639505625,-0.011058715761452913
1761412709906353400,1.558353515625,0.024848610052466392,0.010440291602164507,-0.013254106913879514
1761412709916366300,1.568366455078125,0.028296120157837865,-0.003485796289145946,-0.006634834904596209
1761412709926380300,1.57838037109375,0.03354220411777496,0.01676218810006976,0.005975640343502163
1761412709936393500,1.5883935546875,0.018438743010163305,0.011023644448071718,0.006566153582558036
1761412709946406400,1.598406494140625,0.02920388265252113,0.026650252646952866,0.016933818339928984
1761412709956420400,1.60842041015625,0.013464461728930472,0.020627631356567144,-0.003611468495428562
1761412709966433500,1.61843359375,0.02211421665251255,0.0006559796907007694,0.00733443454131484
1761412709976447200,1.628447265625,0.03080897976160049,-0.0007927578128874302,-0.001097951304540038
1761412709986460400,1.63846044921875,0.028304303464293478,-0.0049644905395805836,-0.008459858374670148
1761412709996473300,1.648473388671875,0.02010170778632164,0.001307283206284046,-0.005512260615453124
1761412710006487300,1.6584873046875,0.02176174995303154,0.01059153664112091,0.0009274170432239771
1761412710016500500,1.66850048828125,0.03417816393375397,-0.002198825218528509,-0.0014993717122823
1761412710026514200,1.67851416015625,0.0349608387440443,0.005868599772453307,-0.006891805340349674
1761412710036527400,1.68852734375,0.023169278663396835,0.0029537352390587327,-0.0010656564701348543
1761412710046541600,1.69854150390625,0.024675007051229474,0.00952259223535657,-0.002645984464138746
1761412710056554200,1.70855419921875,0.029306173983216284,0.015106091456115245,0.007846694912388921
1761412710066567400,1.7185673828125,0.0312660758793354,-0.0018706161774694919,-0.002623188110440969
1761412710076581400,1.728581298828125,0.029583821880817412,0.007355915720760822,0.014578195124492049
1761412710086594300,1.73859423828125,0.019558102428913114,0.016024959866702555,-0.0029543197609484192
1761412710096608500,1.7486083984375,0.04309095370769501,0.00645648266300559,0.009579363923892378
1761412710106621400,1.758621337890625,0.03575520399212837,0.0019375439338386057,-0.013866101332381368
1761412710116634400,1.76863427734375,0.02270283019542694,0.011071721373498438,-0.003106003191322088
1761412710126648300,1.7786484375,0.031251462832093235,-0.007621288658678531,0.013404986626654862
1761412710136661200,1.7886611328125,0.03755260880291462,-0.01758504879027605,0.017432050185650586
1761412710146675500,1.798675537109375,0.00898994666337967,0.020855156502127645,0.0059082741957157845
1761412710156688400,1.8086884765625,0.037893969586491584,0.009067688074707984,0.005757102221995592
1761412710166701300,1.818701416015625,0.03639057928621769,0.00008548632636666297,0.0047855537761002775
1761412710176715300,1.82871533203125,0.020682138022780416,0.001997311297059059,0.0041516397867351765
1761412710186728400,1.838728515625,0.03129997814893722,0.004761076921969652,0.02517857265919447
1761412710196742400,1.848742431640625,0.03474222755730152,0.019499796370416878,0.016051336416974663
1761412710206755300,1.85875537109375,0.02736263870000839,0.0016620879933238028,0.00639525399506092
1761412710216768500,1.8687685546875,0.033139468535780904,0.0013821020081639288,0.006895531667396426
1761412710226782200,1.8787822265625,0.022374328893423077,0.01345174837782979,-0.0041967941027134656
1761412710236795400,1.88879541015625,0.021309914532303808,0.0032915888912975785,-0.010916676942259073
1761412710246809600,1.8988095703125,0.030880875954031942,-0.0015068974316120147,-0.013241612758487462
1761412710256822300,1.908822265625,0.028604163193702695,0.007721680293232202,-0.0016842267598956822
1761412710266835500,1.91883544921875,0.0336713834553957,-0.01518997034728527,0.009456687392294407
1761412710276849400,1.928849365234375,0.019580314260721206,0.00749868519231677,0.010446575212478637
1761412710286862300,1.9388623046875,0.031978608062863345,0.015243892491608858,-0.0003140343852341175
1761412710296876500,1.94887646484375,0.03569090658426285,0.01400748256444931,-0.005458411536365747
1761412710306889200,1.95888916015625,0.03268704859316349,0.017315730329602957,-0.013919292824342845
1761412710316902400,1.96890234375,0.019935119047760963,0.022538579544425008,0.0017471359282732008
1761412710326916400,1.978916259765625,0.023383213675022125,0.02863295089676976,-0.0000713116705417633
1761412710336929300,1.98892919921875,0.026581717455387115,0.00509293922483921,0.00023709669150412082
1761412710346943500,1.998943603515625,0.025542437535524366,-0.007459083834290504,0.006789440944418311
1761412710356956400,2.008956298828125,0.02405482932627201,0.008866904805600642,0.0030184710383415222
1761412710366970400,2.018970458984375,0.02350537874996662,0.0010420563988387584,-0.0013735533755272625
1761412710376983300,2.0289833984375,0.033844401934742925,0.01556640244424343,-0.006009981004521251
1761412710386996500,2.03899658203125,0.04120294800400734,0.0262413795851171,0.012600976767390965
1761412710397010400,2.049010498046875,0.025058453410863876,0.008122223918139933,0.000020677461847662926
1761412710407023400,2.0590234375,0.021798574832081793,-0.012035597969591617,0.0044627515625208615
1761412710417037600,2.06903759765625,0.036350831797719,0.0043760231271386145,0.0005365910947322845
1761412710427050200,2.07905029296875,0.04098141420781612,0.016610066278278827,-0.0166794051874429
1761412710437063400,2.0890634765625,0.035273557955026624,0.02113061244264245,0.00007898352034389972
1761412710447077600,2.09907763671875,0.03119944038391113,0.02188172307088971,-0.001593918127939105
1761412710457090300,2.10909033203125,0.021329788276553154,-0.0006299684666097164,0.005817892498522996
1761412710467104500,2.1191044921875,0.01908990039527416,0.000018120178580284118,0.0064072366937994955
1761412710477117200,2.1291171875,0.03660977499485016,-0.011189356403797864,-0.006157426651194692
1761412710487130400,2.13913037109375,0.03239829477965832,0.007286942137777805,-0.001441138719022274
1761412710497144600,2.14914453125,0.03060731970965862,0.010876198801398276,0.0066802814815193415
1761412710507157000,2.159156982421875,0.02225099477469921,0.014793518375605344,0.010851283555850386
1761412710517171200,2.169171142578125,0.016135726764798162,0.0056627019368112085,-0.0010889642804861068
1761412710527184100,2.17918408203125,0.027099603849649427,-0.007682663457095623,0.0025423048939555884
1761412710537197000,2.189197021484375,0.020499182671308517,-0.009491320314258336,-0.0025846827309578655
1761412710547211300,2.199211181640625,0.024055998370051384,-0.004563508523255586,-0.0026473727036267517
1761412710557224000,2.209223876953125,0.031080782440304756,-0.00619549363926053,-0.006739245127141475
1761412710567238100,2.219238037109375,0.027789339679479597,0.0024554303281009195,-0.00604096066467464
1761412710577251000,2.2292509765625,0.01686228747367859,0.0050264498598873615,-0.0067724898096174
1761412710587264000,2.239263916015625,0.03030921354591846,0.011722148106247186,0.012260565831884741
1761412710597278200,2.2492783203125,0.02597498373389244,0.005861439379304647,-0.0007554945424199104
1761412710607291100,2.259291015625,0.03181318836808204,-0.0061114686176180835,0.007190569091215729
1761412710617305000,2.26930517578125,0.039917584368586535,0.010412965203821659,0.008602189454808831
1761412710627318000,2.279318115234375,0.033494273322820664,0.00995323873758316,-0.02273395598605275
1761412710637331000,2.2893310546875,0.03344868061542511,-0.0202121824234724,-0.004497384484484792
1761412710647345200,2.29934521484375,0.0280114579975605,-0.005486322456598282,-0.006809826145321131
1761412710657358000,2.309358154296875,0.03505085511505603,0.017542817083746193,0.006692264180257916
1761412710667372300,2.319372314453125,0.01398351716697216,0.01746960571706295,0.010749430616572499
1761412710677385200,2.32938525390625,0.021927754169702527,0.030006869598478078,-0.002651245161145925
1761412710687398100,2.339398193359375,0.02474631872177124,0.013154665127396582,-0.014000760562717913
1761412710697412000,2.349412109375,0.02861000841259956,0.00768953158929944,-0.005891907582804561
1761412710707425000,2.359425048828125,0.0361199456512928,0.01532762525230646,0.01593560108281672
1761412710717439200,2.369439208984375,0.02877075193226337,0.027167846780270337,0.017003230314329265
1761412710727452200,2.3794521484375,0.018744447958469388,0.014759177714586257,-0.0004873451255261898
1761412710737466000,2.389466064453125,0.01591536201238632,0.011829554003477096,-0.013988997059687971
1761412710747479300,2.399479248046875,0.029215573090314865,0.010525339537113904,0.008364727437123656
1761412710757492000,2.409491943359375,0.02472001523673534,0.0031764380790293215,0.01470262522175908
1761412710767506200,2.419506103515625,0.027295418682694434,-0.007340425890684127,0.004891644499078393
1761412710777519000,2.42951904296875,0.029221418309211728,-0.004298281715810298,0.0077951108556240795
1761412710787533000,2.439532958984375,0.03145604549348354,0.0005243161350488662,-0.0027126930247992277
1761412710797546200,2.449546142578125,0.023686580535769462,0.007592354825139046,0.004947247143834829
1761412710807559000,2.459558837890625,0.03536941954493522,0.004681581944972276,0.0005833528459072112
1761412710817573000,2.469572998046875,0.036755320945382114,0.013166063304245471,-0.005559241562336683
1761412710827586000,2.4795859375,0.02122282077074051,0.014539397484064102,0.0049601066254079335
1761412710837600300,2.489600341796875,0.02614800221323967,0.0025726269669830797,-0.004287102734670043
1761412710847613200,2.49961328125,0.025090602114796638,0.0124850953027606,-0.0014743103362619876
1761412710857626000,2.509626220703125,0.027910920232534407,0.016938421449810264,-0.009698021867498755
1761412710867640000,2.51964013671875,0.03400982162952423,-0.004061988741904497,0.00450965944416821
1761412710877653200,2.5296533203125,0.033117841225862504,-0.009606763387471438,0.006947846376523375
1761412710887667200,2.539667236328125,0.03432254084050655,-0.007361907070130109,0.01794219166487455
1761412710897680100,2.54968017578125,0.023275077125430105,0.008285597786307334,0.010139408959448338
1761412710907693000,2.559693115234375,0.03317863150238991,0.006917085912078618,-0.00609868220128119
1761412710917707300,2.569707275390625,0.03347673766613007,-0.013079407934099434,0.005825710478797555
1761412710927720200,2.57972021484375,0.03557049507498741,-0.0036751813814044,0.009054828593134879
1761412710937734100,2.589734130859375,0.023171032229065892,-0.010689444057643414,0.017367752777785062
1761412710947747300,2.599747314453125,0.012572481325268744,0.0010138532176613808,-0.007603899132460355
1761412710957760000,2.609760009765625,0.019907646518945693,0.00421849447786808,-0.006394596407935023
1761412710967774200,2.619774169921875,0.02305705046057701,0.005642097540199756,0.007438479437679052
1761412710977787100,2.629787109375,0.03456219481527805,0.004987433023750782,0.003421060489863157
1761412710987801000,2.639801025390625,0.02244622508585453,-0.010259089816361665,0.007389817990362643
1761412710997814300,2.649814208984375,0.04280219989418983,0.0017352993600070477,0.01632708461843431
1761412711007827000,2.659826904296875,0.028554478833079336,-0.004416209007054567,0.013880349053442478
1761412711017841200,2.669841064453125,0.02521978145241737,0.002821633291989565,0.012232581846415996
1761412711027854000,2.67985400390625,0.0270224469602108,0.008193389458209275,0.0020968261487782
1761412711037868000,2.689867919921875,0.03434007649719715,0.004398088828474283,-0.004740910916775465
1761412711047881200,2.699881103515625,0.03642565059959888,0.014837357517331838,0.008422595104202627
1761412711057894100,2.70989404296875,0.03044832975566387,0.01853752720952034,-0.022852540864422916
1761412711067908000,2.719908203125,0.00994797804057598,0.011124766734987497,-0.007011997653916478
1761412711077921300,2.72992138671875,0.016638415589928627,0.005053191736340523,0.007201309680938721
1761412711087935200,2.739935302734375,0.029189269605278966,-0.012857143485546112,0.004114887972921133
1761412711097948200,2.7499482421875,0.02070610342025757,-0.004029840037971735,0.01354578333683312
1761412711107961000,2.759961181640625,0.020071312648057938,0.0031929508224129675,0.007889949532225727
1761412711117975300,2.769975341796875,0.028723990181088444,0.002007248169183731,-0.0002719488091766834
1761412711127988200,2.77998828125,0.03200198893845081,0.0034955870307981965,0.00869542069621384
1761412711138002200,2.790002197265625,0.029764439144730565,0.0052700493574142455,0.007974339880049228
1761412711148015000,2.80001513671875,0.036816111221909524,-0.0016840075641870497,0.015500132275000213
1761412711158028000,2.810028076171875,0.03786532801389694,0.0019315525844693182,0.011078297244757413
1761412711168042200,2.820042236328125,0.026772856113314626,0.0032961189359426496,-0.007484510536491871
1761412711178055200,2.83005517578125,0.03900163856744766,0.004481090936809778,-0.01869030661843717
1761412711188069000,2.840069091796875,0.02819792048037052,0.014754793800413607,0.005002192201465368
1761412711198082300,2.850082275390625,0.024292729735374448,0.0039031449183821675,0.003509469425678253
1761412711208096000,2.860095947265625,0.04481178615093231,0.01173763793632388,-0.00203998139500618
1761412711218109200,2.870109130859375,0.02968319060206413,0.0007153086625039577,0.010037044563516975
1761412711228122000,2.8801220703125,0.03612286826074123,0.0029227555789053438,-0.0027064824797213075
1761412711238136000,2.890135986328125,0.03863514334261417,0.006797843446582555,-0.00034998248144984243
1761412711248149200,2.900149169921875,0.03638531858921051,-0.0004803308628499508,0.005092866159603
1761412711258163200,2.9101630859375,0.020815993535518645,0.004220248043537139,0.003505377772450447
1761412711268176100,2.920176025390625,0.03325637291371822,0.012178513571619986,-0.0008794131830334663
1761412711278189000,2.93018896484375,0.019914076259732245,-0.0015232640445232391,-0.008178849476203322
1761412711288203000,2.940203125,0.023360417321324347,-0.0014504910692572594,0.012512421701103449
1761412711298216200,2.95021630859375,0.028720483049750327,0.002894990789145231,0.001785933568701148
1761412711308230100,2.960230224609375,0.036620296388864514,0.018289397667348384,0.005191869554668664
1761412711318243000,2.9702431640625,0.024048399585485457,0.005311842672526836,0.0021069822166115046
1761412711328256300,2.98025634765625,0.02627601250708103,-0.0023592764772474763,0.006503902001306414
1761412711338270200,2.990270263671875,0.03615443244278431,0.0044812370672822,0.006892024536058306
1761412711348283100,3.000283203125,0.02492576694190502,0.009300327786803245,0.006596110329404473
1761412711358297000,3.010297119140625,0.01877367405295372,0.015126841983199118,-0.00271378900334239
1761412711368310300,3.020310302734375,0.026401684713363648,0.01252951896637678,-0.002262026647850871
1761412711378323200,3.0303232421875,0.020567571732401847,-0.001407236449420452,-0.006184168527647853
1761412711388337200,3.040337158203125,0.02817395508289337,-0.004626490756869316,-0.008835925145447253
1761412711398350000,3.05035009765625,0.03342939139306545,0.004309533762186765,0.005179448464512825
1761412711408364000,3.060364013671875,0.026900281885266303,0.0070760758660733695,-0.005059110020473599
1761412711418377200,3.070377197265625,0.02510930681526661,0.027779987329244613,-0.0026577479671686887
1761412711428390100,3.08039013671875,0.039786066943407056,0.011249123767018317,-0.005820595912262797
1761412711438404000,3.090404052734375,0.02738134340047836,0.005674246244132519,0.013249942195415495
1761412711448417300,3.100417236328125,0.03220832516551018,0.01112330543026328,-0.006741290953755378
1761412711458431000,3.110430908203125,0.026076690542697904,0.011971738953143357,0.0030821839243173597
1761412711468444200,3.120444091796875,0.029973113459348676,-0.0038854631312191484,0.023950784429907796
1761412711478457000,3.13045703125,0.02710428002476692,0.01565977981612086,-0.00021064707599580286
1761412711488471000,3.140470947265625,0.030427286967635154,0.01360898476615548,-0.002512202016636729
1761412711498484200,3.150484130859375,0.024915245547890662,0.004360679427534341,0.01514554668366909
1761412711508498200,3.160498291015625,0.01877367405295372,0.019031302075833083,0.011801131626591086
1761412711518511000,3.170510986328125,0.02083411371409893,0.012871318141371012,0.009916559989005327
1761412711528524300,3.180524169921875,0.02054652894437313,0.011760142029076813,-0.00416793333441019
1761412711538538200,3.190538330078125,0.03745791625678539,0.0069093409970402715,0.009198840173706412
1761412711548551200,3.20055126953125,0.028922727623581886,0.021544015549123285,0.011317878154292702
1761412711558565000,3.210565185546875,0.030989012503623962,0.0025336101308465002,-0.010521613210067152
1761412711568578000,3.220578125,0.030502105769515037,-0.006754881087690592,0.01317490419782698
1761412711578591200,3.23059130859375,0.0258721078813076,0.004899316348880529,-0.0009888649068772793
1761412711588605200,3.240605224609375,0.02227671373784542,0.001437777718156576,-0.008848711561784147
1761412711598618000,3.2506181640625,0.030801965498924253,0.004545388344675302,-0.0014782558590173721
1761412711608632000,3.260632080078125,0.03352408393919468,0.02049421423524618,0.009754209034144878
1761412711618645200,3.270645263671875,0.034118542701005936,0.0008937339693307876,0.0013321984518319368
1761412711628658200,3.280658203125,0.03188391551673412,-0.003174976774305105,0.013496902693808079
1761412711638672100,3.290672119140625,0.03715045774281025,-0.002069207489490509,-0.004205634996294975
1761412711648685300,3.300685302734375,0.02995382423698902,0.014589666366577148,0.008473813834786414
1761412711658699000,3.310698974609375,0.03711947808265686,0.008521890760213136,0.013531608681008219
1761412711668712200,3.320712158203125,0.0396621483027935,-0.0020892273642122744,-0.013988120276853441
1761412711678725000,3.33072509765625,0.028869536131620407,0.012839023306965828,-0.014835530886426567
1761412711688739000,3.340739013671875,0.027805706292390823,0.007980623490363358,0.011799962582811713
1761412711698752300,3.350752197265625,0.019566870257258413,0.008007949888706206,-0.006336801806092262
1761412711708766200,3.36076611328125,0.031226328390836715,0.001300707335025072,-0.010594678446277976
1761412711718779100,3.370779052734375,0.03453881393969059,0.007467997793108225,-0.000010594459250569344
1761412711728792000,3.3807919921875,0.028595979887247085,0.011408405981957912,0.014867898786067962
1761412711738806000,3.390805908203125,0.011241524982452391,0.0024018004447221753,0.008404621056094765
1761412711748819200,3.400819091796875,0.023543957194685935,0.0019015958376228808,-0.015315350292623042
1761412711758833200,3.410833251953125,0.027433365848660466,0.0038278877250850197,-0.006092690851911902
1761412711768846000,3.42084619140625,0.023725743502378462,0.005439560705423355,0.008676862126216291
1761412711778859300,3.430859375,0.027477789512276647,0.005851502507179975,-0.005802914125099778
1761412711788873200,3.440873291015625,0.030030981126427648,-0.008820581445842982,-0.014550722595676779
1761412711798886100,3.45088623046875,0.02392097381353378,-0.004426438140124082,-0.007761500846967101
1761412711808900000,3.460900146484375,0.03172200295329094,0.015993103423714638,0.00019976035580039023
1761412711818913300,3.470913330078125,0.026642507731914518,0.013984686210751532,-0.00448211385011673
1761412711828926200,3.48092626953125,0.045944005051255225,-0.0011982698738574982,0.014068565101921558
1761412711838940200,3.490940185546875,0.022754852643609047,0.005688128639012574,0.0031979923237115144
1761412711848953000,3.500953125,0.011831892091035842,0.016595745491981506,-0.014339783258736133
1761412711858967000,3.510967041015625,0.023333529314398763,0.015335808558762072,0.01705956361144781
1761412711868980200,3.520980224609375,0.019271102181077002,0.01128580251559615,0.011889029105752706
1761412711878993200,3.5309931640625,0.033924481433629985,0.020377455987781287,0.010216638914123177
1761412711889007000,3.541007080078125,0.04557341817319393,0.009258680602163076,0.0167887838460505
1761412711899020300,3.551020263671875,0.022660160097479818,0.007069207733869552,0.009377850002422928
1761412711909034000,3.561033935546875,0.019812953972816467,0.003947422451525926,0.007737681579962372
1761412711919047200,3.571047119140625,0.02417465631365776,-0.00926437969058752,-0.022508915058523416
1761412711929060000,3.58106005859375,0.024178747966885565,0.003254325620830059,0.001224354163184762
1761412711939074000,3.591073974609375,0.028643326160311698,0.014510463650524615,0.012417071567848324
1761412711949087200,3.601087158203125,0.025053192713856694,0.005297229625284672,-0.014830781646072863
1761412711959101200,3.61110107421875,0.02925064440369606,-0.0007522796720266342,-0.011447568948566912
1761412711969114000,3.621114013671875,0.03508943355977535,-0.0018687164813280105,0.008488719142973422
1761412711979127300,3.631127197265625,0.029982465809583664,0.013300795599818229,-0.00610496581159532
1761412711989141200,3.641141357421875,0.034171734192967415,0.014281331069767474,-0.0074320496968925
1761412711999154200,3.651154296875,0.04856967737972736,0.016069968052208422,0.00409684085957706
1761412712009168100,3.661168212890625,0.02072130098938942,0.0013401625625789164,0.005153875631839036
1761412712019181000,3.67118115234375,0.01874620152413845,0.007830839756131172,-0.006697378746792674
1761412712029194200,3.6811943359375,0.01743161179423332,0.020436931090056894,0.004762172900512814
1761412712039208200,3.691208251953125,0.033111996006965634,-0.007589286085218191,-0.0005759732570499182
1761412712049221000,3.70122119140625,0.024891280150413513,-0.0028792086981236933,0.019412264217436314
1761412712059235000,3.711235107421875,0.041677579778432845,0.0042269700452685355,-0.008912132186815143
1761412712069248300,3.721248291015625,0.028357494956254958,0.0011836568266153334,0.0012889438319951296
1761412712079261200,3.73126123046875,0.03419453054666519,0.006992927627265453,0.000943126069009304
1761412712089275100,3.741275146484375,0.021916648253798483,0.015172288560122251,0.00749598177857697
1761412712099288300,3.751288330078125,0.03420446741878986,0.01766498215869069,0.0017306962501257657
1761412712109302000,3.761302001953125,0.02149637701511383,0.013603139547258615,-0.021093860628828405
1761412712119315200,3.771315185546875,0.02115910788476467,0.0034086393997073174,-0.00041113808415830133
1761412712129328000,3.781328125,0.031929508224129675,0.0035654373966157436,0.0074989774532616136
1761412712139342000,3.791342041015625,0.0440975004017353,0.007064969950169324,-0.0009032324500381946
1761412712149355300,3.801355224609375,0.032006080591678615,-0.0042528351388871665,-0.004242898266762495
1761412712159369200,3.811369140625,0.02512450438439846,-0.00740720751658082,0.00023702362626790998
1761412712169382100,3.821382080078125,0.030206922215223312,0.01756196017563343,-0.001352729783207178
1761412712179395000,3.83139501953125,0.029891280394792556,0.01682955424785614,0.004798778583854436
1761412712189409000,3.841408935546875,0.028988778597116467,0.006976561014354229,-0.009868190802633762
1761412712199422200,3.851422119140625,0.030922961530089377,0.013720336186140774,0.008451455872505903
1761412712209436200,3.861436279296875,0.0367167425006628,0.015139701464772224,0.008933174974843859
1761412712219449000,3.871448974609375,0.03881926773786545,0.007841068889200687,-0.0003444295234978199
1761412712229462300,3.881462158203125,0.034922844821214674,0.004805938977003097,-0.013212532794475554
1761412712239476200,3.891476318359375,0.01841243952512741,0.01868424220383167,-0.007202259529009461
1761412712249489200,3.9014892578125,0.011676993790268897,0.000405073669552803,-0.017443229166790843
1761412712259503000,3.911503173828125,0.02050736597776413,0.0032975802406668663,0.00033317747712135315
1761412712269516300,3.921516357421875,0.032626258316636084,0.0059372810944914815,0.0012608867812901735
1761412712279529200,3.931529296875,0.03366729180216789,0.01338335931673646,-0.0006735153473913669
1761412712289543200,3.941543212890625,0.028707623568177222,0.01590264866128564,-0.0009414455685764551
1761412712299556000,3.95155615234375,0.031869886991381643,0.010964607737213373,0.0004448942232877016
1761412712309570000,3.961570068359375,0.03066401833295822,0.013455693900585174,0.017914134614169595
1761412712319583200,3.971583251953125,0.021581132689118383,0.01195858721062541,0.005937792551144957
1761412712329596200,3.98159619140625,0.021454291439056396,0.011581716722249984,0.004504764073342085
1761412712339610000,3.991610107421875,0.022043489503860474,0.028885318222641943,0.0071470952756702896
1761412712349623300,4.001623291015625,0.028003859212994572,0.029680706384032963,0.014022387872636318
1761412712359637000,4.011636962890625,0.023524083450436592,0.009338321709632873,0.004855988663807511
1761412712369650200,4.021650146484375,0.021591654083132742,0.016959025846421717,-0.0022175299189984795
1761412712379663000,4.0316630859375,0.01561257967352867,0.015455051024258136,0.0006736614778637886
1761412712389677000,4.041677001953125,0.01997135940492153,0.0012938392028212546,-0.03344546574503183
1761412712399690200,4.051690185546875,0.02898176433444023,0.009562047462910414,0.005850844920054078
1761412712409704200,4.0617041015625,0.022276129215955735,0.00931143370270729,-0.0003618190497159958
1761412712419717000,4.071717041015625,0.009312018224596976,0.011768471466004848,0.009275193345546722
1761412712429730300,4.081730224609375,0.022041151416301728,0.0036604222036898133,0.015747092773392795
1761412712439744300,4.091744140625,0.020540099203586577,-0.0018674013070762157,0.015721885266900062
1761412712449757200,4.101757080078125,0.011875731232762336,0.01945464205443859,0.014513093999028205
1761412712459771100,4.111771240234375,0.03283785524070263,0.013409955062717199,0.011528817491233348
1761412712469784000,4.1217841796875,0.026273089897632596,0.022653584226220845,0.0037216508716344833
1761412712479797200,4.13179736328125,0.03494914830625057,0.018031915774941443,-0.008989727467671037
1761412712489811200,4.141811279296875,0.03316284941136837,0.01542962432205677,0.006543795620277524
1761412712499824000,4.15182421875,0.02614449508190155,0.0054826691947877405,0.0077409695155918595
1761412712509838000,4.161838134765625,0.036945290559530254,0.00420607338771224,0.011591361333429813
1761412712519851000,4.17185107421875,0.009164718708395957,0.0024471008911728857,0.00932290494479239
1761412712529864200,4.1818642578125,0.027585926061868667,0.011124766734987497,-0.005494944154471159
1761412712539878000,4.1918779296875,0.031010639813542365,0.027059710230678317,0.002864449520409107
1761412712549891000,4.20189111328125,0.02215630222856998,0.018067571610212326,-0.008933832561969756
1761412712559905000,4.211905029296875,0.02678396202921867,0.008450871350616215,-0.0022370383370667697
1761412712569918000,4.22191796875,0.027495909690856933,0.010069120202213525,-0.0023459786042571065
1761412712579931100,4.23193115234375,0.027940730848908423,-0.012592793460935354,-0.0010324117876589298
1761412712589945000,4.241945068359375,0.027927286845445633,0.006898088950663805,-0.018891528278961775
1761412712599958000,4.2519580078125,0.0347866512209177,0.00982625135704875,-0.013271131113916635
1761412712609972000,4.261971923828125,0.048694765064120286,0.016464520327746868,0.010553688848763704
1761412712619985200,4.271985107421875,0.033169279152154924,0.005960661970078945,0.010104776037484407
1761412712629998000,4.281998046875,0.025713702449202538,0.009867898541688918,0.00993994086459279
1761412712640012000,4.292011962890625,0.029063012877106664,0.018219255040585993,0.008382555354759097
1761412712650025000,4.30202490234375,0.021079612907767293,0.009539397239685058,0.007564809231087565
1761412712660039000,4.312038818359375,0.02361000816822052,0.004360825558006763,-0.0093540307354182
1761412712670052000,4.322052001953125,0.02300210540294647,0.014738573317974806,-0.0021553514029830695
1761412712680065000,4.33206494140625,0.024635844084620474,0.0068622869849205015,-0.013391761818900703
1761412712690079000,4.342078857421875,0.03207739226222038,0.004705839603394269,-0.00014817629903554914
1761412712700092200,4.352092041015625,0.020676292803883552,0.012233312498778104,0.0022022592846304176
1761412712710105900,4.36210595703125,0.03114157271683216,0.027885055138915777,0.0060240095298737285
1761412712720119000,4.372119140625,0.031283027014136315,-0.009205489110201597,-0.0026970570642501114
1761412712730132200,4.38213232421875,0.018691256466507912,0.006885960121452808,0.0015816431682556867
1761412712740146000,4.39214599609375,0.02719137378633022,0.005037994167208671,-0.0018017887249588964
1761412712750159000,4.4021591796875,0.013232991060614586,0.007507745281606912,-0.004309679892659187
1761412712760173000,4.412173095703125,0.015449498066306114,0.00047711599245667453,-0.004739084285870194
1761412712770186000,4.42218603515625,0.025178280398249625,0.02031213566660881,0.0018851561594754457
1761412712780199200,4.43219921875,0.01664309176504612,0.018232845174521208,-0.0032345980070531367
1761412712790213000,4.442213134765625,0.01797989332675934,0.002237257532775402,-0.008385039572790265
1761412712800226000,4.45222607421875,0.031415128961205484,0.011126666431128978,-0.016813918287307023
1761412712810240000,4.462239990234375,0.03291442760825157,-0.012830255478620529,-0.0011086188290268181
1761412712820253000,4.4722529296875,0.021864625805616378,-0.0003233867354691028,-0.016714695696532725
1761412712830266000,4.48226611328125,0.03507949668765068,0.005418664047867059,-0.014041019507870078
1761412712840280000,4.492280029296875,0.028045360267162322,0.027748861538618802,-0.014430676412582397
1761412712850293000,4.50229296875,0.04103285213410854,0.011652005479484796,-0.019551015101000664
1761412712860307000,4.512306884765625,0.030379356172680852,0.004840425768494605,0.002454845806211233
1761412712870320000,4.522320068359375,0.019462825360894203,0.010809271045029163,-0.000653276276960969
1761412712880333000,4.5323330078125,0.0254191034168005,0.012406623239070177,-0.004028670994192362
1761412712890347000,4.542346923828125,0.02640928349792957,0.005117489144206047,-0.0028606501281261444
1761412712900360200,4.552360107421875,0.02948153055012226,0.005316518847644329,-0.01676847171038389
1761412712910374000,4.562373779296875,0.03885667713880539,0.015261720409244298,-0.017288330866023896
1761412712920387000,4.572386962890625,0.030790275061130523,-0.004862199208885431,-0.010561579894274472
1761412712930400000,4.58239990234375,0.014960837766528129,0.01654123882576823,-0.0075448624216020105
1761412712940414000,4.5924140625,0.019083470654487608,0.01614595589786768,-0.0030145985808223484
1761412712950427100,4.60242724609375,0.027271453285217285,0.0076142743960022925,-0.009117080174386501
1761412712960440800,4.61244091796875,0.034431261911988253,0.007700637505203485,-0.006477598516270518
1761412712970454000,4.6224541015625,0.04503916516602039,0.003873334302008152,-0.009052052114158868
1761412712980467200,4.63246728515625,0.03156768917441368,-0.005922668047249317,0.011871420383825897
1761412712990481000,4.64248095703125,0.01134089370369911,0.0033742987386882303,-0.0040461335856467485
1761412713000494000,4.652494140625,0.020304536882042885,0.00826221691071987,0.015618059566244482
1761412713010508000,4.662508056640625,0.024620061993598938,0.01165595100224018,0.0030171558640897274
1761412713020521000,4.67252099609375,0.04026303680539131,0.01386193661391735,-0.008660203252360225
1761412713030534100,4.6825341796875,0.043110242930054665,-0.005166004461050033,0.005548720168322324
1761412713040548000,4.692548095703125,0.01782382598221302,-0.0008025485545396804,0.007112754614651203
1761412713050561000,4.70256103515625,0.016037527087330816,0.012094634680449962,0.0038231384847313165
1761412713060575000,4.712574951171875,0.020931728869676588,0.018964228188991544,-0.001568783686682582
1761412713070588000,4.722587890625,0.03872282162606716,0.025128011515736577,-0.000023819267004728315
1761412713080601000,4.73260107421875,0.029776129582524298,-0.004393120392411947,0.00453545147255063
1761412713090615000,4.742614990234375,0.030381109738349912,0.0048363341152668,-0.00028597733452916146
1761412713100628000,4.7526279296875,0.03262450475096702,0.00162190211340785,-0.02483984222412109
1761412713110642000,4.762641845703125,0.03424012325406074,0.011280103427171706,-0.0032775603659451007
1761412713120655000,4.772655029296875,0.029534137520194053,0.015728315007686615,0.0028681027822196484
1761412713130668000,4.78266796875,0.03280161488354206,0.0053417994193732735,-0.0022877456109970805
1761412713140682000,4.792681884765625,0.016927753925323485,-0.014245382973551749,-0.011652663066610693
1761412713150695200,4.802695068359375,0.017810966500639916,0.010038286672532558,0.012973609472066163
1761412713160708900,4.812708984375,0.018245850786566733,-0.002814472898840904,0.003591667816415429
1761412713170722000,4.82272216796875,0.03004968582689762,0.004219955782592297,0.0011730623673647641
1761412713180735200,4.8327353515625,0.03771919754147529,0.02503931031897664,-0.0005080956526100635
1761412713190749000,4.8427490234375,0.02173778455555439,0.019035101468116045,-0.0025062837325036526
1761412713200762000,4.85276220703125,0.024112112471461295,0.011265636510401963,-0.03544657643437386
1761412713210776000,4.862776123046875,0.02855097170174122,0.0008516483932733535,-0.0018493541937321424
1761412713220789000,4.8727890625,0.021221651726961135,0.007968640791624784,-0.005996098609641194
1761412713230802200,4.88280224609375,0.023607085558772084,0.004055705131590366,0.007487652341648936
1761412713240815900,4.89281591796875,0.035140286964178084,-0.004105827883630991,-0.005588759917765855
1761412713250829000,4.9028291015625,0.0233276840955019,0.008571721251308917,-0.01037402143292129
1761412713260843000,4.912843017578125,0.030468203499913214,0.004571253438293933,0.011889905888587236
1761412713270856000,4.92285595703125,0.023870704931020736,0.022471944049000738,-0.013934490393474698
1761412713280869000,4.932869140625,0.027628011637926102,0.01327683020234108,-0.002392228898778558
1761412713290883000,4.942883056640625,0.031495792981982226,0.01100157874673605,0.017528496297448872
1761412713300896000,4.95289599609375,0.020851064848899842,0.014910568884015082,-0.002239814816042781
1761412713310910000,4.962909912109375,0.009741641813516616,0.006447130312770605,0.006511135459691285
1761412713320923100,4.972923095703125,0.03127835083901882,-0.002214461179077625,0.009875862652435898
1761412713330936000,4.98293603515625,0.026964579293131827,0.008620090437680483,-0.0033642157360911367
1761412713340950000,4.992949951171875,0.014259996020793914,-0.00420870373621583,0.005380231733620166
1761412713350963000,5.002962890625,0.02010638396143913,0.005766746833175421,0.007776844546571374
1761412713360977000,5.012976806640625,0.024461072039604185,0.02093611278384924,0.02539440736696124
1761412713370990000,5.022989990234375,0.02188800668120384,-0.0004962590843439102,0.01082585685364902
1761412713381003000,5.0330029296875,0.02921791117787361,0.006246639304608106,0.0037890900846570728
1761412713391017000,5.043016845703125,0.023238836768269537,0.01694397440776229,-0.006631181642785668
1761412713401030100,5.053030029296875,0.036706221106648444,0.009736381116509436,0.012020181204751134
1761412713411043800,5.0630439453125,0.03373568086326122,0.027800591725856066,-0.006991977779194712
1761412713421057000,5.07305712890625,0.03880173208117485,0.018597586833685634,0.0070065908264368764
1761412713431070200,5.0830703125,0.032649639192223544,0.0014354396305978298,0.0015459142677485941
1761412713441084000,5.093083984375,0.03739771050214767,0.020111060136556624,-0.007738996754214167
1761412713451097000,5.10309716796875,0.015528993043303489,0.007038228073716163,-0.004164864594489336
1761412713461111000,5.113111083984375,0.02376198385953903,0.009871405673027038,-0.002360737781971693
1761412713471124000,5.1231240234375,0.02183130805790424,0.005055091432482004,-0.0078119889251887795
1761412713481137200,5.13313720703125,0.030662849289178847,0.008771189346164464,0.0006991612453013658
1761412713491151000,5.143151123046875,0.04174187718629837,0.0071133391365408895,0.01345372113920748
1761412713501164000,5.1531640625,0.017438041535019874,0.020991642363369464,-0.021949746805801987
1761412713511177000,5.163177001953125,0.03328852161765098,0.0014879004701972007,-0.002552753222733736
1761412713521191200,5.173191162109375,0.024061843588948247,0.014937456890940665,0.015264204627275466
1761412713531204000,5.1832041015625,0.013291443249583243,0.0028328853383660316,-0.0012714081753045319
1761412713541218000,5.193218017578125,0.026786884638667106,0.012801760036498307,-0.0026055793885141607
1761412713551231200,5.203231201171875,0.028859599259495734,0.015270342107117175,-0.02557005619481206
1761412713561244000,5.213243896484375,0.03557926290333271,0.008226414944976567,-0.006285071618854999
1761412713571258000,5.223258056640625,0.034842180800437925,0.01954334325119853,-0.005385346300154924
1761412713581271000,5.23327099609375,0.029660394248366355,0.0037945699773728847,-0.0007272182960063218
1761412713591285000,5.243284912109375,0.03341594738960266,0.003488718898594379,-0.007625526442378759
1761412713601298200,5.253298095703125,0.031282442492246626,0.007213000118732452,0.0018401479739695787
1761412713611310800,5.263310791015625,0.03684533731639385,0.0055681555211544035,0.016460647870227694
1761412713621325000,5.273324951171875,0.026523849788308143,0.022619097434729337,-0.010154314267635346
1761412713631338200,5.283338134765625,0.025485154390335083,0.01138794771581888,0.007121010986343026
1761412713641352000,5.29335205078125,0.03370060954988002,0.009675736970454454,-0.008111921719834207
1761412713651365000,5.303365234375,0.018119009536504745,0.02191372564435005,0.001957125417143106
1761412713661378000,5.3133779296875,0.020657003581523895,0.010424509511142968,0.0027201456788927313
1761412713671392000,5.32339208984375,0.03185936559736729,0.0028971827462315556,-0.010889715870097278
1761412713681405200,5.3334052734375,0.03874152632653713,0.004510755422711372,-0.008721285789832472
1761412713691419100,5.343419189453125,0.03155892134606838,0.014069003493338823,-0.007414148714020848
1761412713701432000,5.35343212890625,0.02468085227012634,0.018877134427428246,0.0038973727647215128
1761412713711445000,5.363445068359375,0.03561141160726547,0.01702317712381482,-0.02322955748327076
1761412713721459200,5.373459228515625,0.03293839300572872,0.012459084078669547,0.009437836561352013
1761412713731472100,5.38347216796875,0.029668577554821968,0.01959229695945978,-0.007053425642848015
1761412713741486000,5.393486083984375,0.018731588476896283,0.003944061450660228,-0.013490911344438791
1761412713751499000,5.4034990234375,0.02605038705766201,0.0027985446773469446,0.00818052997663617
1761412713761512000,5.413511962890625,0.0413438177794218,0.010580138464272021,-0.0002018792476505041
1761412713771526100,5.423526123046875,0.021497546058893202,0.019149960019439458,-0.0027126199595630166
1761412713781539000,5.4335390625,0.009710077631473541,-0.005152268196642398,-0.023447291887179016
1761412713791553000,5.443552978515625,0.020191724157333373,0.011431202335655689,-0.013112944877520202
1761412713801566200,5.453566162109375,0.03261924405395984,0.016989713245630263,-0.01808576485402882
1761412713811579000,5.463578857421875,0.027664251995086667,-0.0009295359350740909,-0.003068374594673514
1761412713821593000,5.473593017578125,0.03482990584075451,0.011413374418020247,-0.004727832239493727
1761412713831606300,5.483606201171875,0.030353052687644957,0.020769816306233403,-0.021365663307532666
1761412713841620000,5.493619873046875,0.020772154393792153,0.007020107895135879,0.0015226795226335524
1761412713851633200,5.503633056640625,0.029897710135579108,0.0048734512552618976,-0.009382160851359367
1761412713861645800,5.513645751953125,0.03199731276333332,0.0072153382062911985,0.0088159783359617
1761412713871660000,5.523659912109375,0.026564181798696518,0.011638415345549583,0.014972382073849438
1761412713881673200,5.533673095703125,0.011711480581760405,0.013531243354827164,-0.0185845081564039
1761412713891686000,5.543685791015625,0.02304536002278328,0.00438449869453907,0.0007473112359642982
1761412713901700000,5.5537001953125,0.01722936722040176,0.004602086967974901,0.0010795388650149107
1761412713911713000,5.563713134765625,0.021764088040590285,0.007193564765900373,-0.004954553667455911
1761412713921727000,5.57372705078125,0.031086043137311933,0.014341829085350036,-0.01402180335074663
1761412713931740200,5.583740234375,0.03437339424490928,0.003662175769358873,-0.011192790469899773
1761412713941753000,5.593753173828125,0.019835165804624556,0.012375935839861631,-0.017335311812907456
1761412713951767000,5.60376708984375,0.03361994552910328,0.014130816683173179,0.010891688631474971
1761412713961780000,5.613780029296875,0.038572599500417706,0.018826427153497933,-0.0006695698246359825
1761412713971794200,5.623794189453125,0.02007072812616825,0.008146919967979192,-0.01297419399395585
1761412713981807000,5.63380712890625,0.013175123393535612,0.01698489094004035,0.004727613043785095
1761412713991820000,5.643820068359375,0.015828852772712707,0.008328121753782034,-0.005343845245987177
1761412714001834000,5.653833984375,0.022713351589441298,0.021646306879818437,-0.00997099358998239
1761412714011847000,5.663846923828125,0.01614157198369503,0.016732523614168167,-0.0050044572237879035
1761412714021861000,5.673861083984375,0.016881576696038247,0.022335750448703763,-0.011235972024500369
1761412714031874000,5.6838740234375,0.009417232164740563,0.011946312250941992,0.0037709699060767886
1761412714041887000,5.693886962890625,0.03666238196492195,0.003897884221374988,-0.0014469839379191397
1761412714051901200,5.703901123046875,0.02320785710811615,0.01915814332589507,0.00720569359511137
1761412714061913900,5.713913818359375,0.03068330755531788,0.008246288689225912,-0.0004679828379303217
1761412714071928000,5.723927978515625,0.026063246539235113,0.0027539748832583425,-0.015760463711619377
1761412714081941200,5.733941162109375,0.02845978628695011,0.01884761607199907,-0.011835472287610173
1761412714091954000,5.743953857421875,0.014379238486289978,0.020443506961315867,0.017847572183981537
1761412714101968100,5.753968017578125,0.02214285822510719,0.012718757928162813,0.0028275515761226415
1761412714111980800,5.763980712890625,0.029310850158333776,0.019824790541082618,0.006723463036119938
1761412714121995000,5.7739951171875,0.01702244647145271,0.007619535093009472,-0.004249108811840415
1761412714132008200,5.78400830078125,0.01967909846007824,-0.004431844967603683,-0.0008789747916162013
1761412714142020900,5.794020751953125,0.022944822257757187,0.025410189457982776,0.003923895445466041
1761412714152035000,5.80403515625,0.02442600072622299,0.001075666407495737,0.0029874913781881333
1761412714162048000,5.814048095703125,0.008276829957962036,0.013881371966749429,-0.003609349603578448
1761412714172062000,5.82406201171875,0.02521335171163082,0.015493191077560186,-0.007001914651319384
1761412714182075100,5.8340751953125,0.029974867025017737,0.009752017077058554,-0.0030402444787323473
1761412714192088000,5.844088134765625,0.04000935430526733,0.007573796255141496,-0.006858779853582382
1761412714202102000,5.85410205078125,0.033743864169716836,0.0051319560609757895,-0.02217727195136249
1761412714212115000,5.864114990234375,0.028792963764071464,0.02060249691531062,-0.0036318536963313814
1761412714222128000,5.874128173828125,0.03641980538070202,0.011119213777035473,0.013120908988267182
1761412714232142000,5.88414208984375,0.0271183085501194,0.0065080667197704315,-0.007849909782782197
1761412714242155000,5.894155029296875,0.03890460793375969,0.003824234463274479,-0.01969363844208419
1761412714252169200,5.904169189453125,0.011800327908992766,0.024644027391076087,-0.011620222101733088
1761412714262182000,5.914181884765625,0.01522095000743866,0.014966975246369838,0.003831540986895561
1761412714272195000,5.924195068359375,0.02759703197777271,0.00014437690675258636,0.002786854239553213
1761412714282209000,5.934208984375,0.018626959058642385,0.013550970968604087,-0.003842573837563395
1761412714292222000,5.944221923828125,0.027901567882299423,0.01439195183739066,0.013219693187624216
1761412714302236200,5.954236083984375,0.013933248284459113,0.02221826154887676,-0.008745178122073411
1761412714312248800,5.964248779296875,0.023498364487290382,0.009211042068153619,-0.002257131277024746
1761412714322262000,5.974261962890625,0.01693359914422035,0.0033107319831848143,0.0018466507799923418
1761412714332276200,5.984276123046875,0.0176852942943573,0.009069587770849466,0.0014344167172908782
1761412714342289000,5.994288818359375,0.018275076881051063,-0.008562661162018776,0.0007952420309185981
1761412714352303000,6.00430322265625,0.02557283267378807,0.01896744305938482,0.003745397073403001
1761412714362316000,6.01431591796875,0.0192886378377676,0.027010610391944644,-0.00036050387546420094
1761412714372329000,6.024328857421875,0.0260638310611248,0.012650076606124638,0.005888181255757808
1761412714382343200,6.03434326171875,0.013978840991854667,0.0064319327436387535,0.0003896569047123193
1761412714392355800,6.04435595703125,0.027587679627537727,0.013717121315747498,-0.009656593878567219
1761412714402370000,6.0543701171875,0.02936462617218494,0.007521773806959391,0.008440423021838069
1761412714412383000,6.064383056640625,0.04341127170324325,0.0255007903508842,0.002024564630165696
1761412714422396000,6.07439599609375,0.03620528584718704,0.023962182606756685,-0.009360533541440964
1761412714432410000,6.08441015625,0.018837971460819242,0.019054244560003278,0.009164718708395957
1761412714442423000,6.094423095703125,0.03618833471238613,0.01474251884073019,0.010191650603339075
1761412714452437000,6.10443701171875,0.04109831858575344,0.0068858139909803865,-0.004000394747778773
1761412714462450000,6.114449951171875,0.018649170890450477,0.0012095219202339648,-0.00641030543372035
1761412714472463000,6.124463134765625,0.030786183407902717,0.010277940647304057,0.017422332509234546
1761412714482477000,6.13447705078125,0.025708441752195357,0.0007177928805351257,0.013067790561541915
1761412714492490000,6.144489990234375,0.021063830816745756,-0.003289835325628519,-0.0077248951636254785
1761412714502504200,6.154504150390625,0.025664018088579175,0.0056380058869719505,-0.011198416493088007
1761412714512516900,6.164516845703125,0.02941957122981548,0.011404314328730106,0.0064574325110763305
1761412714522529800,6.17452978515625,0.02450608022511005,0.006826338888704776,-0.016821224810928105
1761412714532544000,6.1845439453125,0.027359131568670272,0.008603139302879571,0.0005954086098819971
1761412714542556700,6.194556640625,0.035436055040359495,0.006094371352344751,-0.0038546296015381813
1761412714552569900,6.20456982421875,0.02211246308684349,0.005312865585833788,-0.011312763587757945
1761412714562583800,6.214583740234375,0.03602700667083263,0.003530219952762127,-0.007413344996422528
1761412714572596700,6.2245966796875,0.04036941978931427,0.0201480311460793,0.0011635638866573572
1761412714582611000,6.23461083984375,0.03723404437303543,0.020202537812292573,-0.006886033186689019
1761412714592623900,6.244623779296875,0.009890694895386696,0.01107522850483656,0.005183613182976841
1761412714602636800,6.25463671875,0.018096797704696653,0.015189531955868005,-0.018248846461251376
1761412714612650800,6.264650634765625,0.035308044746518136,0.015244330883026121,-0.01587079221829772
1761412714622664000,6.274663818359375,0.02903787843585014,0.015571809271723032,-0.00026486148126423357
1761412714632678000,6.284677978515625,0.03650222296714783,0.01056391798183322,0.010048735001310706
1761412714642690800,6.29469091796875,0.02991466127038002,0.0043925358705222605,-0.016389190069213508
1761412714652703700,6.304703857421875,0.0038514147311449047,-0.007522796720266341,0.006211641056463122
1761412714662717700,6.3147177734375,0.02226268521249294,0.011241086591035126,-0.006634981035068631
1761412714672731000,6.32473095703125,0.024655717828869817,0.008754238211363553,0.008731953314319252
1761412714682745000,6.3347451171875,0.038437574943900106,0.006478694494813681,-0.004196647972241044
1761412714692757800,6.3447578125,0.02991466127038002,0.012273936770111321,-0.026067995779588817
1761412714702771000,6.35477099609375,0.02074994256198406,0.016407529443502426,-0.004240633244439959
1761412714712784600,6.36478466796875,0.010882628542184828,0.006422872654348611,0.011927753680944442
1761412714722797800,6.3747978515625,0.02498947982788086,0.0026722879491746423,0.006174523916468024
1761412714732811000,6.38481103515625,0.023368016105890274,0.003797346456348896,-0.013330387020483612
1761412714742824700,6.39482470703125,0.01887771894931793,0.009620791912823915,0.0002466682374477386
1761412714752838000,6.404837890625,0.02157353390455246,0.009258388341218232,0.004333572224900126
1761412714762851800,6.414851806640625,0.027995675906538963,0.021119944918155668,-0.013065525539219379
1761412714772864800,6.42486474609375,0.040561142969131464,0.020871084723621605,-0.00491809411458671
1761412714782878000,6.4348779296875,0.030375849041342735,0.012821779911220074,0.0005796995840966702
1761412714792892000,6.444891845703125,0.031229835522174832,-0.007382511466741562,-0.00015438684411346913
1761412714802904800,6.45490478515625,0.029409634357690808,-0.0038094752855598922,-0.005818403955176472
1761412714812918800,6.464918701171875,0.021923662516474724,0.0008776596173644065,-0.006505801697447896
1761412714822931700,6.474931640625,0.03002221329808235,0.018003566463291643,-0.0087396982293576
1761412714832945000,6.48494482421875,0.028696517652273178,-0.010771861644089222,0.007092588609457016
1761412714842958800,6.494958740234375,0.025417934373021124,0.007442571090906858,-0.0006434124700725078
1761412714852971800,6.5049716796875,0.032770050701498986,0.023510493316501378,-0.0027292057681828734
1761412714862985700,6.51498583984375,0.02560848850905895,0.01854658729881048,0.007305208446830511
1761412714872999000,6.5249990234375,0.02784194664955139,0.002709112828224897,0.0021582740124315024
1761412714883011800,6.53501171875,0.03818096983432769,0.001234656361490488,0.010259747403487562
1761412714893025800,6.54502587890625,0.02876607575714588,0.01687295499816537,-0.006526259963586926
1761412714903039000,6.5550390625,0.011122867038846015,0.015819646552950144,-0.005799260863289237
1761412714913052700,6.565052734375,0.02350537874996662,0.004459902018308639,-0.0003005173165351152
1761412714923065900,6.57506591796875,0.038006197789311406,0.0170959500990808,-0.025295184776186943
1761412714933078800,6.585078857421875,0.025723054799437522,0.01984174167588353,-0.02187310137301683
1761412714943092700,6.5950927734375,0.019843933632969855,0.013187836744636297,-0.007766688478738069
1761412714953106000,6.60510595703125,0.0385556483656168,0.015558949790149925,0.004374123430997133
1761412714963119900,6.615119873046875,0.016085457882285117,0.0060867725677788255,0.013175488719716667
1761412714973132800,6.6251328125,0.023083938467502594,0.010716478195041417,0.0011499006874859333
1761412714983146000,6.63514599609375,0.021567688685655593,0.0030436054795980453,-0.009900631767511367
1761412714993159700,6.64515966796875,0.028602409628033638,0.017293518497794865,0.0012572335194796322
1761412715003172900,6.6551728515625,0.032494156369566915,0.00693052991554141,-0.0007535217810422181
1761412715013186800,6.665186767578125,0.028169278907775878,0.023646102394908664,0.009780877845361828
1761412715023199700,6.67519970703125,0.008257540735602378,0.016209522653371094,0.008427782735973596
1761412715033213000,6.685212890625,0.028328853383660316,0.011196516796946525,-0.0021544015549123286
1761412715043227000,6.695226806640625,0.02306757185459137,0.020834698235988616,0.0032704730380326507
1761412715053239800,6.70523974609375,0.019780220746994016,0.020342676935344934,-0.0021597353171557187
1761412715063253000,6.7152529296875,0.02383212648630142,0.02015329184308648,-0.012149725868552922
1761412715073267000,6.725266845703125,0.021885668593645095,0.01417436356395483,0.006706292705610394
1761412715083280000,6.73527978515625,0.029531799432635307,0.017029899125546217,0.0010329232443124054
1761412715093293800,6.7452939453125,0.023389058893918988,0.002957096239924431,-0.0034006752889603376
1761412715103306800,6.755306640625,0.04371113143265247,0.021588585343211886,0.002463248308375478
1761412715113320000,6.76531982421875,0.03112754419147968,0.02478460490554571,-0.0005658171892166138
1761412715123334000,6.775333984375,0.02391279050707817,-0.001817278555035591,-0.00021904957816004753
1761412715133346800,6.785346923828125,0.015808979028463364,-0.0038495150350034233,-0.014838161234930156
1761412715143360800,6.79536083984375,0.0232709854722023,0.013077508237957954,-0.001531082024797797
1761412715153374000,6.8053740234375,0.024322540351748464,0.006600421178340912,-0.014445362525060772
1761412715163387000,6.815386962890625,0.026537293791770934,0.0008656769186258316,0.013447656724601983
1761412715173400800,6.82540087890625,0.03236380798816681,0.019947686268389223,-0.0038427930332720277
1761412715183414000,6.8354140625,0.027424598020315168,0.007406476864218712,0.00907346022836864
1761412715193427700,6.845427734375,0.012042319971323013,0.0002582125447690487,-0.002830254989862442
1761412715203441000,6.85544091796875,0.016727262917160986,0.005334054504334927,0.01001614790596068
1761412715213453800,6.865453857421875,0.020340777239203453,0.0029199790999293327,0.011542115364223718
1761412715223467800,6.8754677734375,0.01703530595302582,0.005837473981827497,-0.0005619447316974401
1761412715233481000,6.88548095703125,0.036026422148942944,0.005991203238815069,0.006952230290696025
1761412715243494000,6.895493896484375,0.04606090942919254,0.011295300996303558,-0.024401743067800997
1761412715253507800,6.9055078125,0.027945407024025915,0.011028759014606475,0.007742357755079865
1761412715263521000,6.91552099609375,0.03291092047691345,0.0234114168561995,-0.0028439912542700765
1761412715273534700,6.92553466796875,0.021247370690107344,0.012603899376839398,0.007640212554857135
1761412715283548000,6.9355478515625,0.03624269524812698,0.007540770768374204,-0.015339754081517457
1761412715293561000,6.94556103515625,0.020775077003240584,0.011653905175626277,-0.004808423195034265
1761412715303574800,6.95557470703125,0.030634207716584205,0.021714988201856612,0.013199454117193817
1761412715313588000,6.965587890625,0.026446692898869514,0.023171178359538316,-0.0052644963994622224
1761412715323602000,6.975601806640625,0.029599603971838948,0.017682371684908865,0.00017323767505586147
1761412715333614800,6.98561474609375,0.02812076359093189,0.01998275758177042,0.0037508039008826016
1761412715343628000,6.9956279296875,0.022270868518948553,0.02034618406668305,-0.007485095058381557
1761412715353641700,7.005641845703125,0.027955928418040274,0.024952216557413337,0.006354629723727702
1761412715363655000,7.015655029296875,0.033060558080673215,0.0066359308831393715,-0.010358093211427331
1761412715373668900,7.0256689453125,0.031710312515497205,0.011172405268996953,-0.006708265466988086
1761412715383681800,7.035681884765625,0.03617430618703365,0.0065301324211061,-0.020870719397440552
1761412715393695000,7.045695068359375,0.044265258184075354,0.01579275854602456,-0.0079248747151345
1761412715403709000,7.055708984375,0.029761516535282133,0.013492080388218164,0.01376877843774855
1761412715413721900,7.065721923828125,0.025890228059887884,0.0105658176779747,0.004358341339975595
1761412715423734800,7.07573486328125,0.015458850416541098,0.0011024082839488983,-0.017887027411535382
1761412715433749000,7.0857490234375,0.018268062618374825,0.024570962154865265,0.002532514152303338
1761412715443762000,7.095761962890625,0.025133856734633444,0.015642244159430264,0.01562595061175525
1761412715453776000,7.10577587890625,0.023920389291644095,0.011646452521532773,-0.011233926197886466
1761412715463789000,7.1157890625,0.036517420536279675,0.018706892427057028,0.024703210232406854
1761412715473801700,7.1258017578125,0.030085341662168502,0.00650967415496707,0.005864654249697923
1761412715483816000,7.13581591796875,0.022864742758870123,0.02158157108053565,0.0061569882597774265
1761412715493828900,7.145828857421875,0.02287058797776699,0.02994856353998184,0.010526800841838121
1761412715503842800,7.1558427734375,0.017048165434598923,0.018864713337272406,0.005704202990978956
1761412715513856000,7.16585595703125,0.02603109783530235,0.006080196696519852,0.002177855495736003
1761412715523868700,7.17586865234375,0.038141806867718696,0.003250087837129831,-0.009270955561846494
1761412715533883000,7.1858828125,0.02541851889491081,0.02154781494140625,-0.016858707277104257
1761412715543896000,7.19589599609375,0.013868950876593589,0.0023215748153626917,-0.004550649041682482
1761412715553909800,7.20590966796875,0.02403378653824329,0.002831424033641815,0.004746463874727487
1761412715563923000,7.2159228515625,0.01984977885186672,0.009777736040204764,-0.0018023732468485831
1761412715573935900,7.225935791015625,0.03570551963150501,0.0006605097353458404,-0.0157518420137465
1761412715583949800,7.23594970703125,0.05110942499041557,0.007473550751060247,0.005872106903791427
1761412715593963000,7.245962890625,0.01877835022807121,0.018149989196658133,-0.006683569417148828
1761412715603975700,7.2559755859375,0.01412730955183506,0.016639876894652843,-0.0024938626423478124
1761412715613990000,7.265989990234375,0.03447860818505287,0.012035305708646773,0.012542159252241253
1761412715624002800,7.2760029296875,0.02085632554590702,0.00642988691702485,-0.007540843833610415
1761412715634016800,7.286016845703125,0.010221534284949303,0.013954875594377516,-0.001725216357409954
1761412715644030000,7.296030029296875,0.04761164600253105,0.007933861739188433,0.004303030956164002
1761412715654043000,7.30604296875,0.03382686627805233,-0.0003616729192435741,-0.006924465500935912
1761412715664056800,7.316056884765625,0.03712181617021561,-0.0014466916769742964,0.0154696640715003
1761412715674069800,7.32606982421875,0.03055120560824871,-0.004940379011631012,0.008014671890437603
1761412715684084000,7.336083984375,0.017847206857800484,-0.004412555745244026,-0.0028968904852867123
1761412715694097000,7.346096923828125,0.0163519998639822,0.004808130934089422,-0.012432780593633652
1761412715704109800,7.35610986328125,0.02513970195353031,0.004263064271956682,0.015556757833063602
1761412715714124000,7.3661240234375,0.02216565457880497,0.011562865891307592,-0.004970993345603346
1761412715724136700,7.37613671875,0.023377368456125258,0.01336304718106985,-0.003767974231392145
1761412715734151000,7.38615087890625,0.021743045252561568,0.01974149617180228,0.0067061465751379725
1761412715744163800,7.396163818359375,0.029798925936222076,0.017111586059629917,0.006442381072416901
1761412715754176800,7.4061767578125,0.02458323711454868,0.011673632789403199,0.00401164679415524
1761412715764191000,7.41619091796875,0.03686111940741539,0.013012626308202742,-0.006102773854508995
1761412715774204000,7.426203857421875,0.02653261761665344,0.01771495878025889,0.0010254705902189016
1761412715784217900,7.4362177734375,0.03110533235967159,0.011074059461057186,-0.014545827224850654
1761412715794231000,7.44623095703125,0.035278818652033805,0.013510638958215714,-0.010437442057952283
1761412715804243700,7.45624365234375,0.034843349844217296,0.010580430725216866,0.0016423603795468807
1761412715814258000,7.4662578125,0.037408231896162034,0.011535393362492322,-0.003580123509094119
1761412715824270800,7.476270751953125,0.01630582263469696,0.0141113813303411,-0.005188362423330545
1761412715834283800,7.48628369140625,0.011662380743026732,-0.007526303851604461,0.008055076966062188
1761412715844298000,7.496298095703125,0.017059271350502968,-0.005234685783088207,0.001655877448245883
1761412715854310700,7.506310546875,0.008729249900579453,0.0009682605102658271,-0.00011829261742532252
1761412715864324900,7.516324951171875,0.023875381106138228,0.014844079519063233,0.010447525060549377
1761412715874337800,7.526337890625,0.0016097732841968534,0.012220745278149843,0.005797580362856387
1761412715884350700,7.536350830078125,0.02178922248184681,0.010225625938177108,0.006240063433349132
1761412715894365000,7.546364990234375,0.025956863555312154,0.019978958189487455,-0.005740589478611946
1761412715904377900,7.5563779296875,0.03315525062680244,0.016198708998411894,0.007506210911646485
1761412715914391800,7.566391845703125,0.03032148850560188,0.013523498439788818,-0.002839680405333638
1761412715924404700,7.57640478515625,0.031080782440304756,0.010964169345796108,0.012950301661714911
1761412715934418000,7.58641796875,0.03150689889788628,0.011743190894275902,0.0020131664533168075
1761412715944431900,7.596431884765625,0.031095395487546917,0.02306158050522208,-0.012393179235607385
1761412715954444800,7.60644482421875,0.03228606657683849,-0.0005228548303246498,-0.009350012147426605
1761412715964457700,7.616457763671875,0.022126491612195966,0.017637948021292687,0.009468231699615717
1761412715974471700,7.6264716796875,0.021213468420505522,0.008567629598081111,-0.0031347178291529416
1761412715984484900,7.63648486328125,0.028522330129146574,0.015505612167716025,-0.001159472233429551
1761412715994499000,7.6464990234375,0.03793897777199745,0.0170230309933424,0.02601151635199785
1761412716004511700,7.65651171875,0.023584873726963995,0.012602584202587603,-0.008311609010398388
1761412716014525000,7.66652490234375,0.010105214428901672,0.008119301308691502,0.01956117116883397
1761412716024539000,7.676538818359375,0.02507248193621635,-0.005928805527091026,0.004815145196765661
1761412716034551800,7.6865517578125,0.023865444234013555,0.012548515927791595,0.009208850111067295
1761412716044566000,7.69656591796875,0.02896656676530838,0.02342296116352081,0.013282017834112047
1761412716054578700,7.70657861328125,0.02732639834284782,0.00998348774537444,0.016834011227264998
1761412716064592000,7.716591796875,0.036765842339396476,-0.0054151569165289395,0.012040712536126374
1761412716074605800,7.726605712890625,0.02391045241951942,-0.007135989359766244,0.021598887541517613
1761412716084618800,7.73661865234375,0.015988427248597146,0.02219531906470656,0.01121471004076302
1761412716094633000,7.746633056640625,0.03890226984620094,0.011323650307953357,0.005222849214822053
1761412716104646000,7.75664599609375,0.02737666722536087,0.014955430939048529,0.004073606114462018
1761412716114658800,7.766658935546875,0.024849779096245764,0.02328340656235814,-0.007688581741228699
1761412716124672800,7.7766728515625,0.0335275910705328,0.005916968958824873,0.004108092905953526
1761412716134685700,7.786685791015625,0.020050854381918906,0.01787979395315051,0.0008561784379184246
1761412716144699000,7.796698974609375,0.014963760375976562,0.017706337082386017,0.01322984925545752
1761412716154712800,7.806712890625,0.021847674670815467,0.017304186022281644,0.00988850293830037
1761412716164725800,7.816725830078125,0.0493652116715908,0.017590163356810806,-0.008100231282040477
1761412716174739700,7.82673974609375,0.016443185278773306,0.015774784497916697,0.0015704641871154307
1761412716184753000,7.8367529296875,0.005071311914920807,0.007707067245990037,-0.024135347216576335
1761412716194765800,7.846765869140625,0.042942485147714614,0.020498890410363672,-0.002169087667390704
1761412716204779800,7.85677978515625,0.03545359069705009,0.0032639702320098876,0.009374050610139965
1761412716214793000,7.86679296875,0.022607553127408028,0.006354045201838016,-0.00008073708601295947
1761412716224807000,7.876806884765625,0.033383798685669895,0.0010828268006443976,0.004208484540507197
1761412716234819800,7.88681982421875,0.024295067822933194,0.009419424121826886,0.015726342246308922
1761412716244832800,7.896832763671875,0.012478373301029204,0.009842033448070288,-0.002833542925491929
1761412716254846700,7.9068466796875,0.025348376268148422,0.009152297618240117,0.008816855118796228
1761412716264860000,7.91685986328125,0.02371931376159191,0.008717705593258141,0.0016891221307218074
1761412716274872800,7.926872802734375,0.007564882296323776,0.0075569912508130065,0.001673997626826167
1761412716284886800,7.93688671875,0.027775311154127118,0.015595482408255338,-0.0005605564922094345
1761412716294900000,7.94689990234375,0.02898702503144741,0.015978344246000052,-0.0068391253050416705
1761412716304913700,7.95691357421875,0.03751461488008499,-0.0014952069938182829,-0.01636361723653972
1761412716314926800,7.9669267578125,0.027630349725484848,0.006318389366567134,0.010408215963467955
1761412716324940000,7.97693994140625,0.021496961537003517,0.016483663419634104,0.018488500436022876
1761412716334953700,7.98695361328125,0.023909867897629736,0.00444134344831109,0.00460822444781661
1761412716344967000,7.996966796875,0.023318331745266912,0.00011208207234740257,0.012475158430635928
1761412716354980900,8.00698095703125,0.03336860111653805,0.002661620424687862,-0.01211933073028922
1761412716364993800,8.016993896484376,0.01781505815386772,0.013742694148421287,-0.016054916613548992
1761412716375007000,8.027007080078125,0.017244564789533613,-0.0039845395915210245,-0.0027520021218806505
1761412716385021000,8.03702099609375,0.032658407020568846,0.011771832466870545,0.008279752567410469
1761412716395033900,8.047033935546875,0.0316407544106245,0.008369184416532517,-0.009008066841959953
1761412716405047000,8.057047119140625,0.022846038058400152,0.015991788249462843,0.0008779518783092498
1761412716415060700,8.067060791015624,0.03782148887217045,0.008449702306836842,-0.000027837854996323582
1761412716425074000,8.077073974609375,0.03470774076581001,0.011924538810551166,-0.01120506542958319
1761412716435088000,8.087087890625,0.03470014198124408,0.006475918015837669,-0.00765402188450098
1761412716445100800,8.097100830078125,0.032605215528607366,0.02817775447517633,0.0008855506628751755
1761412716455114000,8.107114013671875,0.03704816641211509,0.012820756997913121,0.009522153843939304
1761412716465128000,8.1171279296875,0.04256313044130802,0.020383447337150574,0.015456804589927195
1761412716475140900,8.127140869140625,0.04107143057882785,0.010921645378321408,0.014684066651761531
1761412716485154800,8.13715478515625,0.040465865901112556,0.008286036177724599,0.0014155658863484858
1761412716495168000,8.14716796875,0.023711130455136297,0.010762509293854236,0.0017703706733882426
1761412716505181000,8.157180908203125,0.026151509344577786,0.009509732753783464,-0.012108517075330017
1761412716515195600,8.167195556640625,0.027213585618138313,0.005517740508168935,-0.008430266954004765
1761412716525208800,8.177208740234375,0.021379472637176513,0.004684504554420709,0.007727890838310122
1761412716535221500,8.187221435546874,0.02914250785410404,0.025068244152516125,0.004472323108464479
1761412716545235700,8.197235595703125,0.039621816292405125,0.02086173237338662,-0.005990034195035696
1761412716555248400,8.207248291015626,0.02750292395353317,0.01264934595376253,-0.003841916250437498
1761412716565262600,8.2172626953125,0.04366086255013942,0.008601677998155356,-0.00014759177714586256
1761412716575275800,8.22727587890625,0.023898177459836006,0.005669423938542604,0.005556465083360672
1761412716585288400,8.237288330078124,0.03077683105766773,0.01413446994498372,-0.0004469400499016046
1761412716595302700,8.247302734375,0.012964110991358756,0.019576076477020976,0.004694952883198857
1761412716605315600,8.257315673828124,0.03195931884050369,0.019717238513380288,0.009675225513800978
1761412716615329500,8.26732958984375,0.026885668838024138,0.01427548585087061,0.01928250035792589
1761412716625342700,8.2773427734375,0.031677579289674754,0.01545095937103033,0.009095818190649151
1761412716635355600,8.287355712890625,0.02630874573290348,0.014124240811914204,0.0069164283249527215
1761412716645369600,8.29736962890625,0.031072599133849143,0.014963906506448982,-0.0088497344750911
1761412716655382500,8.307382568359374,0.036732524591684336,0.004622983625531196,0.012109393858164548
1761412716665396700,8.317396728515625,0.044516602596640586,0.002521335171163082,0.013024682072177529
1761412716675409700,8.32740966796875,0.023563246417045592,0.001625701505690813,0.005355901009961962
1761412716685422600,8.337422607421875,0.012460837644338607,0.01037482515051961,0.00895019917488098
1761412716695436800,8.347436767578126,0.036277766561508176,0.019848317547142506,0.015413549970090389
1761412716705449500,8.357449462890624,0.018635142365097997,0.004214548955112696,-0.006582885521650314
1761412716715462700,8.367462646484375,0.029438275930285453,0.0018089491181075572,-0.013354571613669394
1761412716725476600,8.3774765625,0.03348082931935787,0.0019078794479370116,-0.0022148995704948903
1761412716735489500,8.387489501953125,0.028841479080915448,0.00594429535716772,0.008843158603832125
1761412716745503700,8.397503662109376,0.029711832174658774,0.021827800926566124,0.012064970194548368
1761412716755516400,8.407516357421875,0.028924481189250943,0.015621639762818813,0.003914543095231056
1761412716765529600,8.417529541015625,0.03190729639232159,0.011427987465262412,0.008893427486345171
1761412716775543800,8.427543701171874,0.033521745851635934,0.005388268909603357,0.006382613709196448
1761412716785556500,8.437556396484375,0.035595044994354244,0.015389292311668395,-0.012134966690838337
1761412716795569700,8.447569580078126,0.028116671937704084,0.011755027462542056,-0.015326163947582244
1761412716805583600,8.45758349609375,0.011948211947083473,0.00833586666882038,-0.010718816282600165
1761412716815596500,8.467596435546875,0.017906243568658827,0.01500540756061673,-0.002139715442433953
1761412716825610800,8.47761083984375,0.022395371681451795,0.004623568147420883,-0.0015036094959825276
1761412716835623400,8.48762353515625,0.01941664813160896,0.003310293591767549,0.0027284020505845543
1761412716845636600,8.49763671875,0.022674188622832298,0.01627308940887451,0.01559745516963303
1761412716855650600,8.507650634765625,0.03374620225727558,0.010073650246858596,-0.001751665972918272
1761412716865663500,8.51766357421875,0.023564415460824967,0.011131050345301628,0.015860563085228204
1761412716875677700,8.527677734375,0.029546997001767158,0.011398907501250504,-0.007426277543231844
1761412716885690600,8.537690673828125,0.030920038920640942,0.014453326635807751,-0.0043509617511183025
1761412716895703600,8.54770361328125,0.02629705529510975,0.01685366577580571,0.015113982501626013
1761412716905717500,8.557717529296875,0.03498889579474926,-0.0022032091327011585,0.017529226949810982
1761412716915730700,8.567730712890626,0.044107437273859976,0.012636632602661848,0.011047536780312657
1761412716925744600,8.57774462890625,0.03334755832850933,0.012433365115523337,-0.0019371055424213409
1761412716935757600,8.587757568359375,0.03169453042447567,0.012264584419876337,0.00618212270103395
1761412716945770500,8.5977705078125,0.043670799422264095,0.009564823941886425,0.0018813567671924828
1761412716955784400,8.607784423828125,0.02525660633146763,0.01694587410390377,-0.00843077841065824
1761412716965797600,8.617797607421876,0.026643092253804207,0.013739771538972854,0.011581716722249984
1761412716975810600,8.627810546875,0.03724924194216728,0.007963526225090027,-0.006139087276905775
1761412716985824500,8.637824462890626,0.02674655262827873,0.003321545638144016,-0.017782763319462536
1761412716995837700,8.647837646484374,0.03137655051648617,0.00935585736632347,-0.0008639233529567718
1761412717005851400,8.657851318359375,0.031850597769021986,0.012192834357917308,0.013578370432183146
1761412717015864600,8.667864501953124,0.03499766362309455,0.010230009852349757,-0.007953077896311878
1761412717025877800,8.677877685546875,0.032307109364867206,0.01782996346205473,-0.0036492432225495573
1761412717035891500,8.687891357421876,0.01193476794362068,0.008966565787792206,0.008036956787481904
1761412717045904600,8.697904541015625,0.011044541105628013,0.02190919559970498,-0.00924655177295208
1761412717055918600,8.707918701171875,0.023753216031193732,0.023898469720780847,-0.0013335136260837317
1761412717065931500,8.717931640625,0.02002455089688301,0.020404928516596553,0.008113456089794635
1761412717075944700,8.72794482421875,0.04667582645714283,0.01556815600991249,0.008017667565122247
1761412717085958700,8.737958740234374,0.026620880421996115,0.02049158388674259,-0.004164718464016914
1761412717095971600,8.7479716796875,0.014759762236475944,0.010167904401570558,-0.01233684593848884
1761412717105984800,8.75798486328125,0.0177723880559206,0.004513531901687383,-0.009982976288720965
1761412717115998500,8.76799853515625,0.02196867070198059,0.00638897038474679,0.003704845867305994
1761412717126011600,8.77801171875,0.033173955327272416,0.006507774458825588,0.00481952911093831
1761412717136025600,8.788025634765624,0.04393324975073337,0.0006026420682668685,-0.009673033556714653
1761412717146038500,8.79803857421875,0.03376315339207649,0.00652487172409892,-0.009302300548180938
1761412717156051700,8.8080517578125,0.019385083949565885,0.005310673628747463,0.006242328455671668
1761412717166065700,8.818065673828125,0.0348082785308361,0.010436638340353965,-0.0043556379262357945
1761412717176078600,8.82807861328125,0.02028817026913166,0.009870967281609773,-0.00014591127671301365
1761412717186091800,8.838091796875,0.03375438556373119,0.015408581534028052,0.0029831805292516943
1761412717196105700,8.848105712890625,0.03634264849126339,0.008296995963156223,0.004751359245553612
1761412717206118700,8.85811865234375,0.033820436537265776,0.0131223702929914,0.008774623412266373
1761412717216132600,8.868132568359375,0.03052665568888187,0.02336582414880395,-0.017435265056043862
1761412717226145500,8.8781455078125,0.02063362270593643,0.0014564824186265467,-0.002014554692804813
1761412717236158700,8.88815869140625,0.025876199534535408,0.011221943499147891,0.0055991351813077924
1761412717246172700,8.898172607421875,0.025292262166738508,0.011164514223486185,0.02178951474279165
1761412717256185600,8.908185546875,0.024076456636190412,0.013924480456113815,0.007225713469833135
1761412717266199600,8.918199462890625,0.02566518713235855,0.013133768469840287,0.006433174852654338
1761412717276212700,8.928212646484376,0.021503975799679755,0.023063041809946297,0.0012803951993584633
1761412717286225700,8.9382255859375,0.030313889721035957,0.009171002318710089,-0.012767273245006799
1761412717296239600,8.948239501953125,0.021499299624562263,-0.004651332937180995,-0.005261939116194844
1761412717306252800,8.958252685546874,0.03093114483654499,0.006396715299785137,0.001614522524550557
1761412717316265500,8.968265380859375,0.024791326907277107,0.009155512488633393,-0.0033907384168356653
1761412717326279700,8.97827978515625,0.01893967826962471,0.006540507684648036,-0.01431472188271582
1761412717336292600,8.988292724609375,0.010261866295337676,0.010171119271963834,0.011367781710624695
1761412717346306600,8.998306640625,0.03302081059217453,0.015517302605509757,-0.007578472430258989
1761412717356319700,9.00831982421875,0.017768296402692795,0.0200629832111299,-0.00362637380361557
1761412717366332400,9.01833251953125,0.019881927555799483,0.016215660133212805,0.00846453454978764
1761412717376346600,9.0283466796875,0.032762451916933055,0.036565351331233974,0.007377323834970593
1761412717386359800,9.03835986328125,0.027803368204832077,0.006260960090905428,0.010309066437929868
1761412717396373500,9.04837353515625,0.022426351341605186,0.01621449108943343,-0.0058965106926858425
1761412717406386700,9.05838671875,0.023227146330475807,0.00821326320245862,0.01796330751813948
1761412717416399600,9.068399658203125,0.011277180817723274,0.01283303195759654,-0.001473725814372301
1761412717426413600,9.07841357421875,0.02610650115907192,0.013640695078670977,-0.00928929493613541
1761412717436426800,9.0884267578125,0.030341362249851227,0.021923662516474724,-0.011888956040516496
1761412717446439400,9.098439453125,0.026171383088827133,0.01572539239823818,-0.0007449731484055519
1761412717456453600,9.10845361328125,0.03380699253380298,0.00967719827517867,-0.02044255711324513
1761412717466466600,9.118466552734375,0.016910218268632888,0.010487345614284277,-0.008975187485665082
1761412717476480800,9.128480712890624,0.04805646716058254,0.005738251391053199,0.0023856530275195836
1761412717486493700,9.13849365234375,0.02966448590159416,0.0052484220474958414,-0.005943272443860769
1761412717496506600,9.148506591796876,0.039238369932770724,0.013166209434717894,-0.002404576923698187
1761412717506520600,9.1585205078125,0.02563420747220516,0.008620528829097748,-0.0013517799351364373
1761412717516533500,9.168533447265625,0.02562543964385986,0.002973608983308077,-0.000007233458384871483
1761412717526546700,9.178546630859374,0.035654666227102276,0.005601181007921696,-0.003251256880909204
1761412717536561000,9.188560791015625,0.032225860822200775,0.0025859248399734496,0.012094780810922384
1761412717546573600,9.198573486328126,0.023993454527854917,0.00664732905998826,0.005678264832124114
1761412717556587800,9.208587890625,0.04179916033148765,0.0012336334481835365,0.00516483541727066
1761412717566600400,9.218600341796876,0.019342413851618764,0.005308189410716295,0.0012352408833801746
1761412717576613600,9.228613525390625,0.02366436870396137,-0.0015624270111322402,-0.004747779048979282
1761412717586627800,9.2386279296875,0.014231938970088958,0.004436813403666019,0.012136793321743607
1761412717596640500,9.248640625,0.014539397484064102,0.017337065378576516,0.004947174078598618
1761412717606654700,9.25865478515625,0.040865094351768494,0.002873071218281984,0.00838986187838018
1761412717616667600,9.268667724609376,0.018584873482584953,0.010282324561476706,-0.00626475948318839
1761412717626680600,9.2786806640625,0.022028291934728623,0.005023381119966507,-0.008690086933970451
1761412717636694800,9.28869482421875,0.027131168031692503,0.007224252165108918,-0.010722396479174494
1761412717646707700,9.298707763671874,0.027586510583758352,0.011183511184901,-0.0003404109355062246
1761412717656720600,9.308720703125,0.03668108666539192,0.01208192132934928,0.0012836100697517395
1761412717666734600,9.318734619140624,0.04115735529661178,0.007947598003596066,-0.002171498820185661
1761412717676747500,9.32874755859375,0.029329554858803748,0.010395137286186218,0.004157411940395832
1761412717686761700,9.33876171875,0.021702713242173193,0.012182166833430527,0.005232713021710514
1761412717696774700,9.348774658203125,0.013179215046763419,0.011258914508670568,-0.005987696107476949
1761412717706787600,9.35878759765625,0.02229015774130821,0.0034162381842732428,0.004800751345232129
1761412717716801500,9.368801513671874,0.031677579289674754,0.012724457016587257,0.0025276918467134236
1761412717726814700,9.378814697265625,0.01881634415090084,0.018377514342218636,-0.0010513356838375329
1761412717736827600,9.38882763671875,0.01925239748060703,0.009262041603028773,0.00348433498442173
1761412717746841600,9.398841552734375,0.029283377629518506,0.004831950201094151,-0.01221161212362349
1761412717756854800,9.408854736328125,0.027371406528353688,0.007676379846781492,-0.00245813374184072
1761412717766868500,9.418868408203124,0.031523850032687185,0.020026304462552068,0.00691986239105463
1761412717776881700,9.428881591796875,0.01656067417860031,0.013281214116513729,0.0007628741312772035
1761412717786894600,9.43889453125,0.020890812337398527,0.009665946228802203,0.004361848471313714
1761412717796908500,9.448908447265625,0.023563830938935278,0.0030215397782623766,0.0050884091801941395
1761412717806921700,9.458921630859376,0.022348609930276868,0.015516133561730384,-0.001071940080448985
1761412717816935700,9.468935791015625,0.02351590014398098,0.011041472365707159,-0.001633081094548106
1761412717826948600,9.478948486328125,0.032066870868206025,0.012517828528583049,0.0007893237467855214
1761412717836961800,9.4889619140625,0.030285832670331,0.0241479144372046,0.011024302035197615
1761412717846975500,9.4989755859375,0.024713000974059103,-0.0000935235023498535,0.01785327127240598
1761412717856988700,9.50898876953125,0.03785422209799289,0.005990910977870225,-0.0064511489007622
1761412717867001900,9.519001953125,0.018719313517212868,-0.003209609696269035,-0.016442016234993934
1761412717877015600,9.529015625,0.018255787658691406,0.014380992051959036,0.006328910760581493
1761412717887028700,9.53902880859375,0.015438976672291755,0.007935615304857492,0.007309153969585895
1761412717897042700,9.549042724609375,0.024278701210021972,0.011491846481710671,0.0004646949023008346
1761412717907055600,9.5590556640625,0.03774900815784931,0.019078940609842537,0.0072824120931327336
1761412717917068800,9.56906884765625,0.026983868515491484,0.01259600833132863,-0.005748918915539979
1761412717927082800,9.579082763671876,0.02667991713285446,0.009770721777528524,0.004867021514475345
1761412717937095700,9.589095703125,0.017828502157330513,0.014055121098458766,0.011419146571680902
1761412717947108900,9.59910888671875,0.01976151604652405,0.022996990836411713,0.014970555442944167
1761412717957122600,9.60912255859375,0.024522446838021277,0.036138358090817925,0.003876110780984163
1761412717967135700,9.6191357421875,0.027199557092785834,0.00576850039884448,0.0029749972227960824
1761412717977149700,9.629149658203126,0.032254502394795416,0.01754866230264306,0.005565452107414603
1761412717987162600,9.63916259765625,0.02417465631365776,-0.007318067928403615,0.010906155548244714
1761412717997175800,9.64917578125,0.03088321404159069,0.020679361543804405,-0.002415244448184967
1761412718007189800,9.659189697265624,-0.001744213318824768,0.03984919530749321,0.004953603819385171
1761412718017202700,9.66920263671875,0.04168868569433689,0.0670329703092575,-0.010681553012132644
1761412718027216600,9.679216552734376,0.13181085516810417,0.07772825958579778,-0.05914535886459052
1761412718037229800,9.689229736328125,0.07787643588483333,-0.00884454684332013,-0.03495397061184048
1761412718047242800,9.69924267578125,-0.026663550519943235,-0.08266498533561825,0.009978665439784526
1761412718057256700,9.709256591796875,-0.08584463828504085,-0.049073535248637196,0.07153883036114275
1761412718067269600,9.71926953125,-0.07046937449872494,-0.040426118412613864,0.06488492542989552
1761412718077282600,9.729282470703126,0.04488134425580501,-0.08546294549107551,0.02471555825732648
1761412718087296800,9.739296875,0.12092822662591933,0.014473200380057095,-0.03995959687940776
1761412718097309700,9.749309814453126,0.07598492304980754,0.1680290004968643,-0.1298101828701794
1761412718107323600,9.75932373046875,0.02755260831415653,0.13195143268257378,-0.024633432931825516
