time,seconds_elapsed,z,y,x
1761412806717922600,0.067922607421875,0.22254209645092485,-0.0033940263524651526,0.015744389359652996
1761412806727935500,0.077935546875,0.14846271476149558,-0.013606646678596734,0.017533756994456053
1761412806737948700,0.08794873046875,-0.05402911182940006,0.014974427900463341,0.01123827357944101
1761412806747961600,0.097961669921875,-0.15497311956882476,0.017208908954262733,0.003972483827546239
1761412806757974500,0.107974609375,-0.027547932139039038,0.00787161015793681,-0.01188270896282047
1761412806767987500,0.117987548828125,0.14023556916415691,-0.007916326082497835,0.021944668771885334
1761412806778000600,0.128000732421875,0.14191080889999866,0.0034333354495465753,0.017628193812258542
1761412806788013600,0.138013671875,0.033656185886263845,0.006427402698993683,0.000049903556331992145
1761412806798026500,0.148026611328125,-0.06388356636762618,0.01278612407594919,-0.013413900585472583
1761412806808039700,0.158039794921875,-0.025317981129884717,0.014478168816119432,-0.022095767680369315
1761412806818052600,0.168052490234375,0.06380173330307007,-0.0008379121288657188,0.01388367352169007
1761412806828065500,0.1780654296875,0.10669453409016132,0.00955211059078574,0.015233736423775552
1761412806838078500,0.188078369140625,0.05276712906956672,0.02094078895896673,-0.003623122400604188
1761412806848091600,0.198091552734375,0.00853811124265194,0.011765256595611572,-0.012333046546205878
1761412806858104600,0.2081044921875,0.002511106038093567,-0.006779284876585006,-0.011429375704750418
1761412806868117500,0.218117431640625,0.025316227564215657,-0.014833558125048874,0.008522000358067452
1761412806878130700,0.228130615234375,0.045704351076483726,-0.007348170805722474,0.00311904533598572
1761412806888144400,0.238144287109375,0.04371463856399059,0.010667670617252588,-0.006171235980838537
1761412806898157600,0.248157470703125,0.02392623451054096,-0.001919716016203165,-0.014114486602880059
1761412806908170500,0.25817041015625,0.00898994666337967,0.004675590595602989,-0.0015667013274505734
1761412806918183700,0.26818359375,0.016994973942637444,-0.024038462713360784,-0.005627484492957592
1761412806928196600,0.278196533203125,0.024216741889715194,-0.013508300870656966,-0.0028791356328874826
1761412806938209500,0.28820947265625,0.026903789016604424,0.016010492949932814,-0.00867982126828283
1761412806948222700,0.29822265625,0.040808395728468894,0.019636282231658697,0.0027685879305005072
1761412806958235400,0.3082353515625,0.03947568581998348,0.014315233339369297,-0.003293123261258006
1761412806968248600,0.31824853515625,0.043110242930054665,0.0008738602250814438,0.011851692770048975
1761412806978261500,0.328261474609375,0.02008475665152073,0.006818009451776743,0.00979965561106801
1761412806988274700,0.338274658203125,0.01952653824687004,0.012157178522646427,-0.002941350681520998
1761412806998287600,0.34828759765625,0.026215806752443314,0.003948153103888035,0.005872727958299219
1761412807008300500,0.358300537109375,0.04822130233347416,0.013044482751190661,0.01099671990852803
1761412807018313700,0.368313720703125,0.051744800284504885,0.012841507524996996,0.00037438627034425733
1761412807028326400,0.378326416015625,0.03758125037550926,0.005101414792239666,0.00003459638934582472
1761412807038339600,0.388339599609375,0.02888940987586975,0.00006093640699982643,-0.000015891688875854015
1761412807048352500,0.3983525390625,0.01568798299729824,0.008238397643715143,-0.0023615780321881172
1761412807058366500,0.408366455078125,0.03935585883259773,0.0022739362813532353,0.0037433512467890976
1761412807068379600,0.418379638671875,0.03505377772450447,0.0033349896416068076,-0.0011771174879744647
1761412807078392600,0.428392578125,0.02937397852241993,-0.0001543137788772583,0.0020437807872891425
1761412807088405500,0.438405517578125,0.017694062122702598,0.022406623727828263,-0.006319558410346508
1761412807098418400,0.44841845703125,0.02663841607868671,0.02101692293509841,-0.007889365010336042
1761412807108431600,0.458431640625,0.024253566768765448,0.0026057985842227933,-0.00040098201632499694
1761412807118444800,0.46844482421875,0.024576222851872442,-0.014368132570385932,-0.010245974606461823
1761412807128457500,0.47845751953125,0.03271744373142719,-0.004002659770101309,-0.005479929248429835
1761412807138470700,0.488470703125,0.012964695513248442,0.008571721251308917,-0.014897965130768716
1761412807148483600,0.498483642578125,0.013292612293362616,0.017296441107243297,-0.01806691402308643
1761412807158496500,0.50849658203125,0.033059973558783526,0.006291793620586395,-0.0016295739632099866
1761412807168509400,0.518509521484375,0.046479427102208135,0.01584419647231698,-0.016247881902381776
1761412807178522600,0.528522705078125,0.0392307711482048,0.018897300432622433,-0.0025979075387120246
1761412807188535800,0.538535888671875,0.029821137768030165,0.0005044423907995223,-0.007741700167953967
1761412807198548500,0.548548583984375,0.01029226143360138,-0.0036124914087355135,0.00022043781764805316
1761412807208561700,0.558561767578125,0.01685001251399517,0.009605740474164485,0.01832381139360368
1761412807218575400,0.568575439453125,0.04610007239580154,-0.00007774141132831573,0.0045725686125457285
1761412807228588500,0.578588623046875,0.03167874833345413,0.00426379492431879,-0.004848061085678637
1761412807238601700,0.588601806640625,0.022085575079917905,0.008364508241415023,0.007943542882986366
1761412807248614700,0.59861474609375,0.012049334233999252,0.006210983469337224,-0.0046086263066157694
1761412807258627600,0.608627685546875,0.029608371800184247,-0.006876315510272979,0.010908603233657777
1761412807268640500,0.618640625,0.041613866892457003,0.020678046369552613,0.0019252689741551875
1761412807278653700,0.62865380859375,0.03445288922190666,0.016946166364848612,0.016435257700644433
1761412807288666400,0.638666259765625,0.029497312641143796,-0.0017253624878823756,-0.0009685893038287758
1761412807298679600,0.648679443359375,0.0041822541207075115,0.007970248226821422,-0.0090806206215173
1761412807308692500,0.6586923828125,0.012974047863483428,-0.01658186309710145,-0.014762429117597639
1761412807318705700,0.66870556640625,0.02119476372003555,0.01363908764347434,-0.009572934183105826
1761412807328718600,0.678718505859375,0.037948914644122124,0.01758870205208659,-0.019171623861975965
1761412807338731500,0.6887314453125,0.03165010676085949,0.0033108781136572357,0.003505377772450447
1761412807348744700,0.69874462890625,0.020299860706925393,0.013994476952403783,-0.012437201040424405
1761412807358757400,0.70875732421875,0.020434300741553304,0.0060812196098268025,-0.0029309023527428505
1761412807368770600,0.7187705078125,0.01816986294090748,-0.0052390696972608565,-0.000699709234572947
1761412807378783500,0.728783447265625,0.026712065836787223,-0.00855243202894926,-0.003988777375221252
1761412807388797400,0.73879736328125,0.033898177948594094,0.01197992225959897,0.008474398356676101
1761412807398810600,0.748810546875,0.017756021443009376,-0.004402765003591776,0.003762567403912544
1761412807408823600,0.758823486328125,0.029158874467015265,0.019391513690352438,-0.018703093034774063
1761412807418836500,0.76883642578125,0.029876082825660705,0.006925269218534231,-0.010944149471074341
1761412807428849400,0.778849365234375,0.0312269129127264,0.0072302435144782065,-0.00666285542268306
1761412807438862600,0.788862548828125,0.026463644033670426,-0.000017974048107862472,-0.005245535970665514
1761412807448875800,0.798875732421875,0.0023702362626791,0.0008629004396498202,-0.020751586529798804
1761412807458888400,0.808888427734375,0.01039630632996559,0.00853285054564476,-0.02014295311216265
1761412807468901600,0.818901611328125,0.023375614890456198,0.009130524177849292,-0.013555793274194
1761412807478914600,0.82891455078125,0.04356090930700302,-0.00019318448454141616,0.0039047523535788056
1761412807488927500,0.838927490234375,0.047345688542723655,-0.006454436836391687,0.0021441724218428135
1761412807498940400,0.8489404296875,0.04617489119768142,0.011526041012257337,0.006786627932824194
1761412807508953600,0.85895361328125,0.023259879556298255,0.006940174526721239,-0.013295315707102417
1761412807518966800,0.868966796875,0.02100713219344616,-0.0055991351813077924,0.00028787703067064286
1761412807528979500,0.8789794921875,0.033550387424230575,0.02208323699235916,0.0009799874806776642
1761412807538992600,0.88899267578125,0.029912323182821273,0.005408142653852701,0.010444931244663894
1761412807549006300,0.89900634765625,0.019429507613182066,-0.02609948689639568,-0.005158917133137583
1761412807559019500,0.90901953125,0.014749240842461585,-0.0037784956254065033,0.010461663183756171
1761412807569032700,0.91903271484375,0.017247487398982048,0.007187427286058664,0.001228445816412568
1761412807579045600,0.929045654296875,0.023381460109353065,-0.004031155212223529,-0.0013198869595304132
1761412807589058600,0.93905859375,0.0221685771882534,0.015775222889333963,-0.008886267093196511
1761412807599071500,0.949071533203125,0.04066051169037819,0.010654811135679483,-0.012910590705834328
1761412807609084400,0.95908447265625,0.040465865901112556,0.004506809899955988,-0.0027410058038309214
1761412807619097300,0.969097412109375,0.027565467795729635,0.002399170096218586,-0.003846190566755831
1761412807629110300,0.9791103515625,0.03947568581998348,0.0006264613352715969,0.005567972858063876
1761412807639123500,0.98912353515625,0.02121931363940239,0.0036265199340879913,0.0042340573731809855
1761412807649136600,0.99913671875,0.0287391877502203,0.01018850879818201,0.010559461002424358
1761412807659149300,1.0091494140625,0.029327216771245,0.003302987068146467,0.0012238792391493917
1761412807669162500,1.01916259765625,0.04220306495726108,0.011656389393657445,-0.0029379166154190894
1761412807679175400,1.029175537109375,0.041302901247143746,0.0037701661884784695,0.010956972420029342
1761412807689188600,1.039188720703125,0.029754502272605895,0.011675970876961947,0.00601348813585937
1761412807699201300,1.049201171875,0.034793080961704255,0.01071399397701025,0.005577690534479916
1761412807709214500,1.05921435546875,0.008401917642354964,-0.013779957418888806,-0.013389387198723852
1761412807719228400,1.069228515625,0.010405658680200576,0.0036227205418050286,-0.00597352145165205
1761412807729241300,1.079241455078125,0.025767478463053703,0.01435205821841955,-0.0036812092633917927
1761412807739254500,1.089254638671875,0.058118426969647405,-0.01256327510550618,0.018652422293461857
1761412807749267500,1.099267333984375,0.04433598533272743,-0.015606149932742118,0.0005041866624727845
1761412807759280400,1.1092802734375,0.009638765960931777,0.016441139452159404,-0.008917283285968004
1761412807769293600,1.11929345703125,0.008535773155093192,-0.00023468553870916364,-0.014122414181008933
1761412807779306500,1.129306396484375,0.033735096341371534,-0.009610124388337134,-0.01800670826844871
1761412807789319400,1.1393193359375,0.05005670106709003,-0.032998452629894016,0.032005130743607876
1761412807799332400,1.149332275390625,0.04012099798619747,0.032658407020568846,0.002310067040659487
1761412807809345500,1.159345458984375,0.009915829336643218,0.05759557213932275,-0.04284216657839715
1761412807819358500,1.1693583984375,-0.01241232232749462,0.008913520426303148,-0.03153283705674112
1761412807829371400,1.179371337890625,0.03514963931441307,-0.013583411933481693,0.0065837988371029495
1761412807839384600,1.189384521484375,0.062035892674326895,-0.001681815607100725,0.013764431056194007
1761412807849397500,1.1993974609375,0.04574292952120304,-0.001689268261194229,0.01301821579877287
1761412807859410400,1.209410400390625,0.014520108261704445,0.0019743688128888606,-0.018779446206614373
1761412807869423400,1.21942333984375,0.016360183170437814,0.010684475621581077,-0.015562858780287205
1761412807879436500,1.2294365234375,0.03728898943066597,0.023613076908141375,0.004185615121573209
1761412807889449500,1.239449462890625,0.052743163672089574,0.013289981944859027,0.008266893085837364
1761412807899463400,1.24946337890625,0.02255026998221874,-0.0019707155510783193,0.029434987994655964
1761412807909476600,1.2594765625,0.005609072053432464,-0.009896832375228405,0.0024991964045912025
1761412807919489300,1.2694892578125,0.020050854381918906,0.003537672606855631,-0.013528357277996837
1761412807929502500,1.27950244140625,0.032089667221903796,0.01164879060909152,0.0029846053013578054
1761412807939515400,1.289515380859375,0.028906945532560346,-0.0013268646895885467,-0.006134776427969336
1761412807949528600,1.299528564453125,0.02619359492063522,-0.007954758396744728,0.007827442222647368
1761412807959541500,1.30954150390625,0.009696633628010749,0.004459171365946531,0.006957454455085098
1761412807969554400,1.319554443359375,0.032382512688636775,0.004975158064067364,0.0022096754061058164
1761412807979567600,1.329567626953125,0.03267185102403164,0.007047288163006305,-0.003300320187024772
1761412807989580300,1.339580322265625,0.02950900307893753,0.0034098084434866904,0.007044109825231134
1761412807999593500,1.349593505859375,0.033950200396776195,0.0009244213685393333,-0.006651530311070382
1761412808009606400,1.3596064453125,0.02433539983332157,0.008683218801766633,-0.012094342419505119
1761412808019619600,1.36961962890625,0.01949205145537853,0.006060176821798086,0.0033089784175157544
1761412808029632300,1.37963232421875,0.033842648369073865,-0.0007953881613910198,0.013012991634383797
1761412808039645400,1.3896455078125,0.038459786775708195,0.002431172669678926,0.0014137757880613208
1761412808049658600,1.39965869140625,0.0373965414583683,0.01088628180399537,-0.0006775339353829622
1761412808059671300,1.40967138671875,0.026902035450935363,-0.006532324378192424,0.004085150421783328
1761412808069684500,1.4196845703125,0.00954582698047161,0.010636398696154355,-0.007548259955085813
1761412808079698700,1.42969873046875,0.03377718191742897,0.014548457573354243,-0.0024139658065512777
1761412808089711400,1.43971142578125,0.014919921234250068,0.003062164049595594,0.010833272975124418
1761412808099724500,1.449724609375,0.02780804437994957,0.0016097732841968534,-0.0013331848325207828
1761412808109737500,1.459737548828125,0.015067220750451088,0.007826309711486101,0.007260529054887593
1761412808119750400,1.46975048828125,0.027926117801666258,0.017469021195173264,-0.005395502367988228
1761412808129763300,1.479763427734375,0.014019757524132728,-0.002892068179696798,-0.0012028364511206745
1761412808139776500,1.489776611328125,0.027518706044554708,0.01804492138698697,-0.003493943062983453
1761412808149789400,1.49978955078125,0.02393500233888626,0.007374474290758371,-0.002193381858430803
1761412808159802400,1.50980224609375,0.036518005058169364,0.014809884988516568,-0.001076031733676791
1761412808169815600,1.519815673828125,0.0326081381380558,0.007763619738817214,0.007935432641766965
1761412808179828500,1.529828369140625,0.03861468507647514,0.010085194554179906,-0.0019855477940291166
1761412808189841400,1.53984130859375,0.03594458908438682,-0.0006346446417272091,0.005106492826156318
1761412808199854300,1.549854248046875,0.03192307848334312,-0.004749678745120763,-0.008605367792584001
1761412808209867500,1.559867431640625,0.031465982365608214,0.000524023874104023,0.007250920976325869
1761412808219880400,1.56988037109375,0.027152795341610907,-0.0005111643925309181,0.007045388466864824
1761412808229893400,1.579893310546875,0.03474515016674995,0.009244652076810599,0.01240388329271227
1761412808239906600,1.589906494140625,0.03397708840370178,0.01574409709870815,-0.0049146235158666965
1761412808249919500,1.59991943359375,0.018709376645088194,0.01004822354465723,-0.0038387013800442217
1761412808259933400,1.609933349609375,0.03518237254023552,0.01510740663036704,-0.009401121280156076
1761412808269946400,1.6199462890625,0.018860183292627335,0.0006406359910964965,-0.0004508490400388837
1761412808279959600,1.62995947265625,0.041460722157359124,0.012886515710502863,0.006429302395135164
1761412808289972500,1.639972412109375,0.02843231375813484,0.004536912777274847,0.0009836042098701
1761412808299985400,1.6499853515625,0.02225625547170639,0.0030731238350272176,-0.006554024753347039
1761412808309998600,1.65999853515625,0.023297873479127883,-0.0051630818516016,-0.0012967252796515821
1761412808320011300,1.67001123046875,0.03827449333667755,0.010347791013121605,-0.002463102177903056
1761412808330024400,1.6800244140625,0.017158640071749685,0.004887479780614375,-0.003072904639318585
1761412808340037400,1.690037353515625,0.009531213933229445,0.015652034901082516,0.0014530483525246381
1761412808350050600,1.700050537109375,0.028487843337655066,-0.008840747451037167,-0.0025389438930898903
1761412808360063500,1.7100634765625,0.037462592431902884,0.0076170508749783036,-0.0030662922354415057
1761412808370076400,1.720076416015625,0.05003390471339225,0.00742591221705079,-0.007834967941977083
1761412808380089600,1.730089599609375,0.025362989315390584,0.00837561415731907,-0.0030684111272916196
1761412808390102300,1.740102294921875,0.014407880058884619,0.003274491626024246,0.012286942382156848
1761412808400115500,1.750115478515625,0.006292962664365768,0.02749035673290491,0.000007087327912449837
1761412808410128400,1.76012841796875,0.03648410278856754,0.005914046349376439,0.0023601532600820065
1761412808420141600,1.7701416015625,0.03811725694835186,0.002815349681675434,0.0045392143322154875
1761412808430154500,1.780154541015625,0.039001054045557974,0.000796557205170393,-0.0011073036547750235
1761412808440168400,1.79016845703125,0.03685936584174633,-0.00305734174400568,-0.009785517487861215
1761412808450181400,1.800181396484375,0.02140752968788147,0.00218026664853096,0.01311941115092486
1761412808460194300,1.8101943359375,0.020658172625303266,0.007413491126894951,0.0023032719736918806
1761412808470207500,1.82020751953125,0.04906184481084346,0.007360299634933471,-0.008296667169593274
1761412808480220700,1.830220703125,0.030527824732661246,0.009616700259596109,0.0036735008809715506
1761412808490233300,1.8402333984375,0.01867956602871418,0.010912439158558844,-0.008264883791841567
1761412808500246500,1.85024658203125,0.015834697991609574,0.014616115982085466,-0.01562532955724746
1761412808510259500,1.860259521484375,0.0319850378036499,0.01671601087078452,-0.002480418638885021
1761412808520272400,1.8702724609375,0.036916064465045924,0.02053396172374487,0.004871332363411784
1761412808530285300,1.880285400390625,0.031098318096995353,0.006958294705301523,0.01900551004745066
1761412808540298500,1.890298583984375,0.034730537119507784,-0.0033890579164028165,0.012053791213408112
1761412808550311700,1.900311767578125,0.024321955829858778,-0.0026136896297335624,0.008934270953387021
1761412808560324400,1.910324462890625,0.026514497438073156,0.0028295243375003336,0.0006867401551455259
1761412808570337500,1.920337646484375,0.02926934910416603,0.00592296030819416,-0.0032968861209228635
1761412808580350500,1.9303505859375,0.021117022308707236,0.015494067860394716,-0.009025492900796234
1761412808590363400,1.94036328125,0.03328969066143036,0.007324205408245325,-0.007046155651845037
1761412808600377000,1.950377197265625,0.025239070674777028,-0.007496785496175289,-0.005908931782841682
1761412808610390300,1.960390380859375,0.014059505012631415,-0.010519202057272196,0.01589450188744813
1761412808620403000,1.97040283203125,0.019973697492480277,-0.014685235695540904,0.012083528764545918
1761412808630417200,1.980417236328125,0.03272796512544155,-0.0041559506356716154,0.015361710184998809
1761412808640430000,1.99043017578125,0.03568681493103504,0.006717179425805807,-0.004633505019545555
1761412808650443000,2.000443115234375,0.04106149370670319,0.013293635206669568,-0.023601824861764906
1761412808660456200,2.010456298828125,0.04017886565327644,0.013130115208029746,0.023912461713515222
1761412808670469000,2.02046923828125,0.018963059145212173,0.005927344222366809,0.01697159306704998
1761412808680482000,2.03048193359375,0.026027006182074545,-0.0058529638119041915,0.0196646680759266
1761412808690495000,2.040494873046875,0.0277805718511343,0.00025368250012397763,-0.007133249413408338
1761412808700508200,2.050508056640625,0.04014320981800556,0.024857231750339267,-0.023532485952600834
1761412808710521000,2.06052099609375,0.044909985828399654,0.009748802206665278,0.012587057839892803
1761412808720534000,2.070533935546875,0.01827858401238918,-0.011183511184901,0.015719437581487
1761412808730547200,2.080547119140625,0.0265168355256319,0.01402881761342287,-0.012851480929739773
1761412808740560100,2.09056005859375,0.017923779225349424,0.016728870352357626,-0.016715645544603468
1761412808750573000,2.100572998046875,0.03147358115017414,0.014001052823662758,0.009995397378876805
1761412808760586000,2.1105859375,0.03918459391891956,0.011005962660908699,0.02017272719591856
1761412808770599200,2.12059912109375,0.03197977710664272,-0.0009159458011388778,0.01022880427595228
1761412808780612000,2.130612060546875,0.013708207356929777,-0.015184855780750512,-0.0038877281535416837
1761412808790625000,2.140625,0.0018546879559755325,-0.011088964769244194,0.0030578897332772612
1761412808800638000,2.150637939453125,0.016370120042562483,-0.00870601515546441,0.0018371888319030404
1761412808810651100,2.160651123046875,0.036005379360914226,0.0038734804324805734,-0.005444492608867585
1761412808820665000,2.1706650390625,0.029535891085863113,0.010642536175996064,-0.00011613719295710325
1761412808830678000,2.180677978515625,0.04441664935350418,0.0021899112597107886,-0.006011880700662732
1761412808840691200,2.190691162109375,0.03386602924466133,0.013082038282603025,0.003197700062766671
1761412808850704000,2.200703857421875,0.028744448447227476,0.013688479743152857,0.0004902312023565173
1761412808860717000,2.210717041015625,0.01615852311849594,0.006415566130727529,0.0052053135581314565
1761412808870730200,2.220730224609375,-0.0072165072500705715,-0.003561930265277624,-0.0008734583662822843
1761412808880743000,2.230742919921875,0.019953823748230935,0.01054886654317379,-0.0033932591674849387
1761412808890756000,2.240756103515625,0.026344986090064047,0.007527326764911413,-0.010008914447575807
1761412808900769000,2.25076904296875,0.04474456613361835,-0.010276187081634998,0.01758289336580783
1761412808910782200,2.2607822265625,0.0327823256611824,0.014501841952651738,-0.0031430107334628698
1761412808920795000,2.270794921875,0.014458733463287353,0.0051605976335704325,-0.022187281888723372
1761412808930808000,2.28080810546875,0.0022509937971830368,0.00787058724462986,0.006006839199364185
1761412808940821200,2.2908212890625,0.01655190635025501,0.00874766234010458,0.0035049759136512875
1761412808950834000,2.300833984375,0.03684533731639385,-0.007107493917644024,0.00378839596491307
1761412808960847000,2.31084716796875,0.050317982351779936,0.007410276256501674,0.013179141981527209
1761412808970860000,2.320860107421875,0.023723989936709402,0.017403554743528366,0.0068026657521724695
1761412808980873200,2.330873291015625,0.012954174119234085,0.013042875315994023,0.00947871656101197
1761412808990886000,2.340885986328125,0.001017068088054657,0.02650499895736575,0.005325578936934471
1761412809000899000,2.350899169921875,0.02364741756916046,0.007146218492835759,0.006503975066542625
1761412809010912300,2.360912353515625,0.03356032429635525,0.006230564952641725,-0.0046965237857773895
1761412809020926000,2.370926025390625,0.023301380610466,-0.0165403620429337,0.0034911665840074418
1761412809030939100,2.380939208984375,0.03534136249423027,-0.014003537041693924,-0.005702230229601263
1761412809040952000,2.3909521484375,0.021198855373263357,-0.013876841922104357,-0.0014164792018011212
1761412809050965000,2.400965087890625,0.016616203758120535,-0.002440817280858755,-0.003683291622623801
1761412809060978200,2.410978271484375,0.03821779471337795,0.005664893893897533,-0.0006085968850180506
1761412809070991000,2.4209912109375,0.03586217149794101,0.0014170271910727023,-0.013273469201475381
1761412809081004000,2.431004150390625,0.03435001336932182,0.003221300134062767,-0.01128667929843068
1761412809091017000,2.441016845703125,0.019637597405910492,0.023330898965895176,0.005089943550154566
1761412809101030100,2.451030029296875,0.022460253611207008,-0.000520662873238325,-0.0036144276374951005
1761412809111043000,2.46104296875,0.020960370442271233,-0.0024678514182567596,0.010830934887565672
1761412809121056000,2.471055908203125,0.036519174101948736,-0.009508417579531669,0.007890570586733519
1761412809131069200,2.481069091796875,0.02127893487215042,0.006249854175001382,-0.0043599487751722335
1761412809141082000,2.49108203125,0.0213321263641119,-0.008908990381658077,0.00993015012294054
1761412809151095000,2.501094970703125,0.017366145342588422,-0.005446721098572016,0.011121990256011485
1761412809161108000,2.51110791015625,0.03869301100969314,-0.010384615892171859,-0.0025035437861457466
1761412809171121200,2.52112109375,0.007647884404659271,0.011237433329224587,0.007233202656544744
1761412809181134000,2.531134033203125,0.01205985562801361,-0.008191197501122951,-0.01104735411722213
1761412809191147000,2.54114697265625,0.026344986090064047,-0.011373042407631873,-0.012282887261547148
1761412809201160000,2.551159912109375,0.028394904357194897,0.014600918412953615,-0.003948883756250143
1761412809211174000,2.561173828125,0.024334230789542197,-0.00652750207260251,0.0027216435162350536
1761412809221187000,2.57118701171875,0.017610475492477417,0.002075344969332218,0.009633395666070282
1761412809231200000,2.581199951171875,0.03125613900721073,0.02145136882960796,-0.005083915668167174
1761412809241213200,2.591213134765625,0.034088732084631916,-0.0013463000424206255,-0.003556961829215288
1761412809251226000,2.60122607421875,0.03086567838490009,-0.020169804586470125,-0.004967486214265227
1761412809261239000,2.611239013671875,0.037760698595643044,0.005511164636909961,-0.009301533363200724
1761412809271252200,2.621252197265625,0.03355564812123775,0.019220687168091534,0.011874489123746753
1761412809281265000,2.631264892578125,0.03507014433741569,-0.016271920365095137,0.01045260309446603
1761412809291278000,2.641278076171875,0.02968845129907131,0.008407616730779409,0.006784362910501659
1761412809301291000,2.651291015625,0.024732874718308446,0.02205386476740241,0.0001347322955727577
1761412809311304200,2.66130419921875,0.0459492657482624,0.015244330883026121,0.004468962107598781
1761412809321316900,2.67131689453125,0.026701544442772864,0.001661211210489273,-0.004798851649090647
1761412809331330000,2.681330078125,0.03733692022562027,-0.0019524492420256137,0.013122151097282767
1761412809341343200,2.69134326171875,0.04801671967208385,0.02308919916450977,0.003327208193950355
1761412809351356000,2.70135595703125,0.04624503382444382,0.018964082058519124,-0.01616791200134903
1761412809361369000,2.711369140625,0.038321255087852474,0.008902852901816367,-0.0024047595867887138
1761412809371382000,2.721382080078125,0.04474456613361835,0.0051829555958509445,-0.008962181873619557
1761412809381395200,2.731395263671875,0.03783785548508167,0.014975012422353029,0.00013549948055297136
1761412809391407900,2.741407958984375,0.03111234662234783,0.02137289676591754,-0.0019551891883835197
1761412809401421000,2.751421142578125,0.04349778094291687,0.014609686241298913,-0.005123553558811545
1761412809411435000,2.76143505859375,0.024160043266415594,0.011413228287547827,0.006726093384623527
1761412809421448000,2.771447998046875,0.02041150438785553,0.02070639568120241,-0.012057079149037598
1761412809431461000,2.781461181640625,0.041647184640169144,0.008805237746238708,-0.012927943699434398
1761412809441474000,2.79147412109375,0.03204816616773605,-0.0016080197185277937,-0.0018701412534341214
1761412809451487000,2.801487060546875,0.017966449323296545,0.0090495678961277,0.011276596295833587
1761412809461500200,2.811500244140625,0.02378419569134712,-0.004203150778263807,-0.02053323107138276
1761412809471513000,2.82151318359375,0.02453179918825626,-0.007220452772825956,0.007944858057238161
1761412809481526000,2.831526123046875,0.03933832317590713,0.01406608088389039,0.000616268734820187
1761412809491539000,2.8415390625,0.04096387855112552,0.016124328587949276,-0.00007175006195902824
1761412809501552000,2.85155224609375,0.03183423115611076,0.012357523400336504,0.002045351689867675
1761412809511565000,2.86156494140625,0.024769115075469014,0.03462780739739537,0.007314853058010339
1761412809521578000,2.871577880859375,0.045237318086624144,0.010722469544410704,-0.002887172808870673
1761412809531591200,2.881591064453125,0.021748890471458435,0.010426701468229294,0.0070968629257753485
1761412809541604000,2.89160400390625,0.022838439273834228,0.005382423690706491,-0.017532295689731834
1761412809551617000,2.901616943359375,0.02523380997776985,-0.005209551341831683,-0.004517440891824662
1761412809561630000,2.9116298828125,0.033630466923117636,0.0014279869765043258,0.007845233607664703
1761412809571643100,2.92164306640625,0.022879940328001974,-0.01683057716116309,0.0026047391382977366
1761412809581656000,2.931656005859375,0.019148937106132507,-0.014770722021907568,-0.007671594073809683
1761412809591669000,2.9416689453125,0.03412614148557186,0.011192425143718718,-0.0026293986555188894
1761412809601683000,2.951682861328125,0.033793548530340195,-0.0007948036395013331,0.009097827484644948
1761412809611695900,2.96169580078125,0.024959084689617154,0.007313684014230966,0.0032652123410254713
1761412809621708800,2.971708740234375,0.02436637949347496,0.00009425415471196174,0.006816146288253367
1761412809631721700,2.9817216796875,0.004816460371017456,-0.012723434103280305,0.03137267805896699
1761412809641735000,2.99173486328125,0.024401450806856153,-0.029028379955142736,0.016556436394900082
1761412809651747600,3.00174755859375,0.013466799816489218,-0.03729892630279064,0.010821290276385844
1761412809661760800,3.0117607421875,0.010207505759596823,-0.02088379807472229,-0.0006996361693367362
1761412809671774000,3.02177392578125,0.03381459131836891,-0.02331526300534606,0.00928118469491601
1761412809681787000,3.031786865234375,0.035110476347804065,-0.0042642333157360554,-0.004344166684150695
1761412809691799800,3.0417998046875,0.04134323325753212,0.01148907000273466,0.0069846712555736296
1761412809701812700,3.051812744140625,0.03450257358253002,0.01253390288054943,-0.021812018835544584
1761412809711826000,3.061825927734375,0.02856441570520401,0.011891367193311452,-0.020452676648460327
1761412809721838600,3.071838623046875,0.02962883006632328,0.01582286142334342,0.009980674733780323
1761412809731851800,3.081851806640625,0.03353518985509872,0.007688216415047645,-0.011761457203328609
1761412809741865000,3.091864990234375,0.030551790130138395,-0.0010690905362367629,0.0021950623588636517
1761412809751878000,3.1018779296875,0.029646365723013875,0.02044277630895376,0.007171243336237966
1761412809761890800,3.111890869140625,0.026427988198399543,0.00441109444051981,-0.017677037922665475
1761412809771903700,3.12190380859375,0.03637538171708583,0.017988515024632213,0.0022340426623821256
1761412809781917000,3.1319169921875,0.028101474368572233,0.003456131803244352,-0.001940320412814617
1761412809791929600,3.1419296875,0.022516952234506605,0.0027346856608986853,-0.0158868665702641
1761412809801942800,3.15194287109375,0.03997545203566551,0.00813332983404398,-0.004342997640371322
1761412809811957000,3.16195703125,0.028423545929789542,0.012868833923339843,0.015111571348831057
1761412809821969700,3.1719697265625,0.021818448576331136,0.026440701549500227,0.006316928061842918
1761412809831982800,3.18198291015625,0.025707272708415982,0.008204056982696056,0.023604309079796073
1761412809841995800,3.191995849609375,0.03245616244673729,-0.00879661604836583,-0.0036771906754001975
1761412809852008700,3.2020087890625,0.027117724028229713,-0.005887742864340543,0.015509703820943832
1761412809862022000,3.21202197265625,0.01978665048778057,0.022957389478385447,0.007500183029659092
1761412809872034800,3.222034912109375,0.007151040798425674,0.0015353928737342356,0.012599625060521065
1761412809882048000,3.232048095703125,0.024995325046777723,0.02363762682750821,-0.008704188524559139
1761412809892060700,3.242060791015625,0.03151040602922439,0.0012076222240924835,-0.005729593160562217
1761412809902073900,3.252073974609375,0.04410860631763935,0.015351152258366346,-0.006955225965380668
1761412809912086800,3.262086669921875,0.02482522917687893,0.014007336433976888,-0.012096936235390604
1761412809922099700,3.272099609375,0.01793839227259159,0.010081102900952101,0.012679814157262444
1761412809932113000,3.28211279296875,0.03181728002130985,0.027088351803272962,-0.00035327041707932944
1761412809942125800,3.292125732421875,0.035004093363881106,-0.000050999534875154493,-0.00046725218556821344
1761412809952139000,3.302138916015625,0.03245440888106823,-0.00787146402746439,-0.00955634837448597
1761412809962151700,3.312151611328125,0.023062311157584187,0.006164660109579563,-0.0013633607750758528
1761412809972164900,3.322164794921875,0.01277180328965187,-0.009252689252793789,-0.010006357164308428
1761412809982177800,3.332177734375,0.013084522500634193,-0.0019908815562725067,0.005536152947694063
1761412809992190700,3.342190673828125,0.03421615785658359,0.015759440798312426,-0.003478051374107599
1761412810002203600,3.35220361328125,0.02034428437054157,0.006248977392166853,0.0090171634638682
1761412810012216800,3.362216796875,0.030099370187520978,0.008658522751927375,-0.006234400877542793
1761412810022230800,3.372230712890625,0.023677228185534475,0.009958353304117918,0.016408552356809377
1761412810032243700,3.38224365234375,0.028802900636196133,-0.005117927535623312,-0.00904693754762411
1761412810042257000,3.3922568359375,0.03465805640518665,0.004681289684027433,-0.0035895123919472095
1761412810052269800,3.402269775390625,0.026738953843712804,0.014931319411098955,-0.011300890486873686
1761412810062282800,3.41228271484375,0.03918459391891956,0.007663666495680808,-0.004110832852311432
1761412810072296000,3.4222958984375,0.03429506831169128,-0.0022618074521422384,0.005599683170579374
1761412810082308900,3.432308837890625,0.02027647983133793,-0.01550517377629876,-0.0021659458622336385
1761412810092321800,3.44232177734375,0.02552665544450283,-0.009685673842579125,0.015526472292654215
1761412810102334700,3.452334716796875,0.03378302713632583,0.00038519992530345915,-0.005038944015279412
1761412810112348000,3.462347900390625,0.02631049929857254,0.00888707081079483,-0.0003315335093066096
1761412810122360800,3.47236083984375,0.036467736175656316,0.006591799480468034,-0.022584245317056773
1761412810132373800,3.482373779296875,0.03421498881280422,0.017370383126288653,0.0015275383608415723
1761412810142387000,3.492386962890625,0.019677929416298864,0.013821896864473819,0.0011209668539464473
1761412810152400000,3.50239990234375,0.02184884371459484,0.011569587893038987,-0.0009234349878504872
1761412810162412800,3.512412841796875,0.024758593681454655,0.03392287399843335,0.007124846911244094
1761412810172425700,3.52242578125,0.04319441408216953,0.0215096748881042,-0.0032213366666808724
1761412810182439000,3.53243896484375,0.03560673543214798,0.011445084730535744,-0.006601188363321125
1761412810192451800,3.542451904296875,0.041945875325798986,-0.01876505235508084,-0.01882931323032826
1761412810202464800,3.55246484375,0.033148236364126206,-0.009169687144458294,-0.0066779799265787
1761412810212478000,3.56247802734375,0.02408230185508728,-0.0019530337639153002,0.008687127791903913
1761412810222491000,3.572490966796875,0.03074409783184528,-0.0016940905667841434,0.004601794707030058
1761412810232504800,3.5825048828125,0.02363572713136673,-0.0014183423653244972,0.001119870875403285
1761412810242517800,3.592517822265625,0.02209726551771164,0.0018517653465270996,0.0023282968170940874
1761412810252530700,3.60253076171875,0.025777415335178373,-0.017826748591661452,0.011922894842736422
1761412810262544000,3.6125439453125,0.03842705354988575,-0.004396773654222488,0.008798479211889207
1761412810272556800,3.622556884765625,0.03328501448631287,0.013000059087574482,-0.008391469313576818
1761412810282570000,3.632570068359375,0.029333646512031554,0.013092413546144962,-0.0029083251947537065
1761412810292582700,3.642582763671875,0.03480360235571861,-0.00335208690688014,0.011425137921050191
1761412810302595800,3.652595947265625,0.031415713483095166,0.006933014133572578,-0.02184413100685924
1761412810312608800,3.66260888671875,0.03548281679153442,0.01113046582341194,-0.009950425725989044
1761412810322621700,3.67262158203125,0.03261924405395984,0.027791531636565923,-0.016292159435525536
1761412810332635000,3.682634765625,0.024653964263200757,0.015649550683051346,0.011973090660013258
1761412810342647800,3.692647705078125,0.03955459627509117,0.003862812907993793,0.01939706664830446
1761412810352661000,3.702660888671875,0.03848082956373691,0.02061842513680458,0.008838263233006
1761412810362673700,3.712673583984375,0.028981179812550543,0.021410744558274745,-0.008260938269086181
1761412810372686800,3.722686767578125,0.03574702068567276,0.012104133161157368,-0.0016737418984994292
1761412810382699800,3.73269970703125,0.03612637539207935,-0.00028232407271862027,0.0032412469435483217
1761412810392712700,3.742712646484375,0.024399112719297407,0.0016360767692327497,-0.0027380466617643834
1761412810402726000,3.752725830078125,0.017628011149168014,-0.005091039528697729,-0.021095468064025045
1761412810412738800,3.76273876953125,0.02705810279548168,-0.005302344191819429,0.0026548618903383613
1761412810422752000,3.772751953125,0.014159458255767822,-0.018812544758617877,0.011333404516987501
1761412810432765700,3.782765625,0.017796937975287436,-0.025264789637923238,0.0024052710434421896
1761412810442779000,3.79277880859375,0.023403671941161153,-0.005308189410716295,0.009928286959417163
1761412810452791800,3.802791748046875,0.027220015358924866,0.002214461179077625,-0.01287109894566238
1761412810462804700,3.8128046875,0.030139702197909353,-0.007062777993083,-0.016058789071068166
1761412810472818000,3.82281787109375,0.015707856741547583,0.012985153779387474,-0.010913608202338217
1761412810482830800,3.832830810546875,0.032873511075973506,0.008667290580272675,0.00961016092095524
1761412810492843800,3.84284375,0.020111060136556624,0.0016376842044293878,-0.013344817404635249
1761412810502856700,3.852856689453125,0.03579845861196518,-0.006939882265776395,-0.0012787512315437196
1761412810512870000,3.862869873046875,0.036704467540979384,-0.0003704407475888729,0.00015135463681071996
1761412810522882800,3.8728828125,0.037732641544938085,0.006165829153358936,-0.011182963195629418
1761412810532895700,3.882895751953125,0.024565116935968398,-0.00009235445857048034,0.000455854008719325
1761412810542909000,3.892908935546875,0.031873978644609446,0.008770750954747199,0.007315729840844869
1761412810552921900,3.902921875,0.04172784866094589,0.013660276561975479,-0.00976191741656512
1761412810562934800,3.912934814453125,0.04333645290136337,0.027423136715590952,-0.014978190760128199
1761412810572947700,3.92294775390625,0.03551379645168781,0.013059534189850092,0.005038286428153515
1761412810582961000,3.9329609375,0.029492636466026304,-0.012218114929646253,-0.010107917842641471
1761412810592973800,3.942973876953125,0.027651392513513562,-0.010982289524376392,-0.0156134564563632
1761412810602986000,3.952986083984375,0.010853986969590187,0.006356091028451919,-0.012968641036003828
1761412810612999200,3.962999267578125,0.02844634228348732,-0.008971972615271806,0.0010963073367252945
1761412810623012400,3.973012451171875,0.021812603357434273,0.006258037481456994,0.0004873451255261898
1761412810633025300,3.983025390625,0.0171101247549057,0.008276683827489613,0.00047013826239854093
1761412810643038200,3.9930380859375,0.045641222712397574,0.006382102252542972,0.009452851467393338
1761412810653052200,4.00305224609375,0.050102293774485586,0.011155308003723621,0.025912841750495134
1761412810663065000,4.013065185546875,0.03312485548853874,-0.0005346913985908032,0.006131671155430376
1761412810673078300,4.023078369140625,0.016291209587454794,0.0012568681932985783,-0.01563687386456877
1761412810683091200,4.03309130859375,0.019675006806850432,0.0020718378379940986,-0.001052760455943644
1761412810693104400,4.0431044921875,0.022741408640146253,0.002504822427779436,-0.005697627119719982
1761412810703117000,4.053116943359375,0.025810148561000824,-0.001230564708262682,-0.011122538245283066
1761412810713130200,4.063130126953125,0.01544832902252674,0.006171966633200645,-0.00988748002499342
1761412810723143200,4.07314306640625,0.02648994751870632,-0.01337999831587076,-0.014907865470275282
1761412810733156000,4.083156005859375,0.02272328846156597,0.0002848082907497883,0.006203603880479931
1761412810743169300,4.093169189453125,0.03631809857189655,-0.0011196516796946525,0.0018126389125362038
1761412810753182200,4.10318212890625,0.017767711880803106,0.003378536522388458,-0.00779869105219841
1761412810763195400,4.1131953125,0.034226679250597955,0.019393121125549077,-0.010493190833181142
1761412810773208000,4.1232080078125,0.03196107240617275,0.003235182528942823,-0.017008089152537285
1761412810783221200,4.13322119140625,0.028340543821454046,0.022870441847294566,-0.001284011928550899
1761412810793234200,4.143234130859375,0.040891397836804386,0.020862316895276307,0.009485986552014946
1761412810803247000,4.1532470703125,0.02378594925701618,0.011463497170060873,-0.02600260239318013
1761412810813260000,4.163260009765625,0.019846856242418286,0.010586714335530996,0.003384052947722375
1761412810823273200,4.173273193359375,0.029696050083637234,0.010964461606740951,-0.0050370443191379306
1761412810833286400,4.183286376953125,0.02712181568145752,0.004062719394266605,0.01989741738587618
1761412810843299000,4.193299072265625,0.039238369932770724,-0.0015909224532544611,0.004533076852373779
1761412810853312300,4.203312255859375,0.04133212734162807,-0.003801730370521545,0.003152070822753012
1761412810863325200,4.2133251953125,0.03296937266588211,0.0021200608938932415,0.002021167096681893
1761412810873339100,4.223339111328125,0.030409166789054868,-0.0009578852467238902,-0.003417845619469881
1761412810883352300,4.233352294921875,0.029226094484329224,0.019211919339746236,0.011976122867316008
1761412810893365200,4.243365234375,0.041375966483354565,0.0030661095723509787,-0.010591573173739016
1761412810903378200,4.253378173828125,0.02553133161962032,-0.001809387509524822,-0.004635185519978404
1761412810913391000,4.26339111328125,0.03703764501810074,-0.0013289105162024497,-0.02230498998425901
1761412810923404300,4.273404296875,0.027462591943144796,-0.00866699831932783,0.0025398572085425257
1761412810933417000,4.2834169921875,0.04241933805644512,0.009142360746115446,-0.007162329377420246
1761412810943430100,4.29343017578125,0.03137771956026554,0.018745032480359077,0.00012826602216809988
1761412810953443300,4.303443359375,0.041243280014395714,0.011060177066177129,0.0003108195148408413
1761412810963456300,4.313456298828125,0.023882979890704155,-0.015090601626038551,0.005191833022050559
1761412810973469200,4.32346923828125,0.023448095604777335,-0.004199935907870531,0.007418313432484865
1761412810983482000,4.333482177734375,0.028522330129146574,-0.006014291853457689,0.004235701340995729
1761412810993495300,4.343495361328125,0.025111644902825355,-0.001751665972918272,-0.008361804827675222
1761412811003508000,4.353508056640625,0.03708323772549629,0.005270780009776353,-0.02560509097557515
1761412811013521200,4.363521240234375,0.027199557092785834,-0.007118599833548069,-0.010058744938671588
1761412811023534300,4.373534423828125,0.020162498062849043,0.0056019116602838035,-0.009233436563052236
1761412811033547300,4.38354736328125,0.015649404552578926,0.00449278137460351,-0.007096643730066716
1761412811043560200,4.393560302734375,0.003339373555779457,0.008973287789523601,-0.011925488658621907
1761412811053573000,4.403572998046875,0.01809387509524822,0.011010784966498613,-0.0054994741991162294
1761412811063586300,4.41358642578125,0.028479660031199453,0.014646364989876747,0.0006260229438543319
1761412811073599000,4.423598876953125,0.025846388918161392,0.0005111643925309181,0.005977430441789329
1761412811083612200,4.433612060546875,0.02727379137277603,0.020269319438189267,-0.007572882939688861
1761412811093626400,4.44362646484375,0.012668927437067032,0.008056172944605351,-0.005014065302349627
1761412811103639000,4.45363916015625,0.03277589592039585,0.020067805516719817,-0.009620938043296336
1761412811113652200,4.46365234375,0.03701484866440296,0.011930968551337719,-0.006365041519887745
1761412811123665200,4.4736650390625,0.033769583132863046,0.011638561476022005,0.006963774598017334
1761412811133678000,4.483677978515625,0.03641805181503296,0.006005816286057233,-0.004449636352621018
1761412811143691300,4.493691162109375,0.018421207353472708,0.0013609130896627903,-0.0005939838377758861
1761412811153704200,4.5037041015625,0.005765139397978783,0.00543912231400609,-0.016891184774599968
1761412811163717400,4.51371728515625,0.015112228935956954,-0.008754238211363553,-0.014273988013528286
1761412811173730000,4.52372998046875,0.027775895676016807,-0.007036620638519525,-0.009809482885338365
1761412811183743200,4.5337431640625,0.04138473431169987,0.008812105878442526,0.002717259602062404
1761412811193756200,4.543756103515625,0.023545710760354995,-0.001858195087313652,0.002375496959686279
1761412811203769000,4.55376904296875,0.024095161336660384,-0.0088099139213562,0.0010138532176613808
1761412811213782300,4.5637822265625,0.028885318222641943,0.002704290522634983,-0.007960238289460539
1761412811223795200,4.573795166015625,0.02124970877766609,0.005397328998893499,0.006482822680659592
1761412811233808400,4.583808349609375,0.02934825955927372,-0.0018356909945607184,0.01768576921839267
1761412811243821000,4.593821044921875,0.03410743678510189,0.0052414077848196025,-0.01053151354957372
1761412811253834200,4.603834228515625,0.03556464985609054,0.01228971886113286,-0.02572473529987037
1761412811263847200,4.61384716796875,0.03898936360776424,-0.0019125556230545043,-0.009376936686970294
1761412811273860000,4.623860107421875,0.021713234636187552,0.004920943658798933,-0.004268471099436283
1761412811283873000,4.633873046875,0.033627544313669204,0.017098726578056812,-0.006304981895722449
1761412811293886200,4.64388623046875,0.02730652459859848,0.00018470891714096068,0.018721542006917297
1761412811303899400,4.6538994140625,0.026539047357439994,0.008965542874485253,-0.003536832356639206
1761412811313912000,4.663912109375,0.034597266128659244,0.02388093406409025,-0.00654174979366362
1761412811323926300,4.67392626953125,0.01735971560180187,0.0030877368822693823,-0.0022937369603663682
1761412811333939200,4.683939208984375,0.04849485857784748,-0.015814385855942963,-0.006474566308967769
1761412811343952100,4.6939521484375,0.0350438408523798,0.01227203707396984,0.0062244640054181215
1761412811353965300,4.70396533203125,0.025329087045788762,0.019434037657827138,0.004713730648905038
1761412811363978200,4.713978271484375,0.03193535344302654,-0.005182517204433679,-0.0013058219015598296
1761412811373991200,4.7239912109375,0.0487117161989212,0.0034625615440309044,-0.00009217179547995328
1761412811384004000,4.734004150390625,0.04063771533668041,0.012454554034024476,-0.009641104048490523
1761412811394017300,4.744017333984375,0.035569910553097724,0.0020966800183057784,-0.008355338554270566
1761412811404030200,4.7540302734375,0.03497486726939678,0.013492811040580272,0.005262340974994004
1761412811414043100,4.764043212890625,0.01660685140788555,-0.006087064828723668,-0.0035225481029599903
1761412811424056300,4.774056396484375,0.02708031462728977,-0.0050287879474461075,-0.00948858036790043
1761412811434069200,4.7840693359375,0.030990181547403333,0.003889262523502111,0.010836524378135799
1761412811444082200,4.794082275390625,0.029521862560510634,-0.012037205404788255,0.013801438598334789
1761412811454095000,4.80409521484375,0.02699848156273365,-0.0041438218064606186,-0.0031840733962133524
1761412811464108300,4.8141083984375,0.028960137024521826,0.0049805648915469646,0.0008459127722308039
1761412811474121200,4.824121337890625,0.03318973741829395,0.0026152970649302005,0.0057540700146928424
1761412811484134100,4.834134033203125,0.03741349259316921,0.00622121260240674,0.025146423955261704
1761412811494147300,4.844147216796875,0.030113983234763143,0.012093319506198167,-0.010453297214210032
1761412811504160300,4.85416015625,0.03196691762506962,0.004726444000005722,-0.006212700502388179
1761412811514173200,4.864173095703125,0.028294951114058494,0.006232026257365942,0.0041084947647526855
1761412811524186000,4.87418603515625,0.01695405741035938,0.005075695829093456,-0.0029127456415444612
1761412811534199300,4.88419921875,0.03599310440123081,0.004645341587811708,-0.00397438352368772
1761412811544212200,4.894212158203125,0.018539865297079086,0.01651449694931507,-0.004246807256899774
1761412811554226200,4.90422607421875,0.01764203967452049,0.003195142779499292,0.0044301279345527285
1761412811564239400,4.9142392578125,0.03829612064659595,0.015622224284708499,-0.007746011016890406
1761412811574252000,4.924251953125,0.03427168743610382,0.0007376666247844696,-0.01445986597444862
1761412811584265200,4.93426513671875,0.0315665201306343,0.0178628428183496,-0.0018407324958592652
1761412811594278100,4.944278076171875,0.024373393756151197,0.016697744561731814,-0.004316657622717321
1761412811604291000,4.954291015625,0.01570318056643009,-0.00442000839933753,0.023766733099892735
1761412811614304000,4.964303955078125,0.028720483049750327,0.015337269863486288,0.008199161611869931
1761412811624317200,4.974317138671875,0.036921909683942794,0.01529474589601159,-0.005228146444447339
1761412811634330000,4.984330078125,0.0374748673915863,-0.018179069160670042,-0.003967734587192536
1761412811644343000,4.994343017578125,0.023711714977025983,-0.011031973884999751,-0.006589059534110128
1761412811654356000,5.00435595703125,0.02428454642891884,-0.0002813011594116688,-0.0020856837002560494
1761412811664369200,5.014369140625,0.029219664743542668,-0.0014759177714586257,0.008791939873248339
1761412811674382000,5.024382080078125,0.02760404624044895,0.0006260229438543319,0.014191935753263532
1761412811684395000,5.03439501953125,0.022041735938191413,0.0011683131270110606,0.004952032916806638
1761412811694408200,5.044408203125,0.03044482262432575,-0.0002643500246107578,0.0113252942757681
1761412811704421000,5.054421142578125,0.02017009684741497,0.009404811074584721,0.0006774243375286459
1761412811714434000,5.06443408203125,0.014228431838750838,0.007146072362363338,0.01566672101356089
1761412811724447000,5.074447021484375,0.038511224702000614,0.009535305586457252,0.012397928475961089
1761412811734460200,5.084460205078125,0.02717792978286743,0.0035876492284238337,0.003557400220632553
1761412811744473000,5.09447314453125,0.024483283871412277,0.0024339491486549377,-0.0027349779218435286
1761412811754486000,5.104486083984375,0.02999941694438457,0.0026915771715343,0.005829181077517569
1761412811764499200,5.114499267578125,0.019227263039350507,-0.0049565994940698145,-0.006015424364618957
1761412811774512000,5.12451220703125,0.03450666523575783,0.009926058469712734,-0.011868242046050727
1761412811784525000,5.134525146484375,0.038377369189262385,-0.007041296813637018,-0.004247172583080828
1761412811794538000,5.1445380859375,0.03148760967552662,-0.003128215023130178,-0.00742543729301542
1761412811804552200,5.15455224609375,0.02196224096119404,0.0010052315197885036,-0.018640329996868966
1761412811814565000,5.164565185546875,0.03136602912247181,-0.006938713221997022,-0.023780323233827946
1761412811824578000,5.174578125,0.02152151145637035,-0.005275602315366268,-0.006210873871482908
1761412811834591200,5.18459130859375,0.04308920014202595,0.008259002040326594,-0.009003938656114041
1761412811844604000,5.19460400390625,0.04145195432901382,-0.002375058568269014,-0.01891085403393954
1761412811854617000,5.2046171875,0.02830956416130066,0.018936755660176274,-0.015023673869669437
1761412811864630000,5.214630126953125,0.013787117812037467,-0.012719780841469764,0.01726505958829075
1761412811874643200,5.224643310546875,0.03426408865153789,-0.0050683893054723735,0.013000278283283115
1761412811884655900,5.23465576171875,0.02728080563545227,0.014911591797322033,-0.022705241348221897
1761412811894669000,5.2446689453125,0.02207154655456543,-0.0013821020081639288,-0.0066841904716566205
1761412811904682200,5.25468212890625,0.02773907079696655,-0.007460399008542299,0.010240933105163276
1761412811914695000,5.26469482421875,0.025320319217443463,0.008672405146807432,0.004134469456225634
1761412811924708000,5.2747080078125,0.03909340850412845,0.012836831349879502,0.005347352377325296
1761412811934721000,5.284720947265625,0.03849368904531002,-0.011090718334913253,-0.012570508563891053
1761412811944734200,5.294734130859375,0.018448679882287978,-0.0012834639392793178,0.0037393326587975024
1761412811954747000,5.304746826171875,0.022347440886497497,0.006841682588309049,0.013507460620440542
1761412811964760000,5.314760009765625,0.027585926061868667,0.009813684136420487,-0.016033033575303852
1761412811974773200,5.324773193359375,0.05164718512892723,0.01027472577691078,-0.005041939689964056
1761412811984786000,5.334785888671875,0.031602760487794875,0.0038313948564231396,-0.006596110329404473
1761412811994799000,5.344799072265625,0.026508067697286603,0.004289513887465,-0.013115246432460844
1761412812004812000,5.35481201171875,0.03607786007523536,-0.010349836839735508,0.0070513798162341115
1761412812014825200,5.3648251953125,0.03039338469803333,-0.007068477081507444,-0.00014521715696901082
1761412812024838000,5.374837890625,0.020119243443012236,-0.006117459966987371,0.010322802702337503
1761412812034852000,5.38485205078125,0.036888591936230654,0.003859598037600517,0.012112974054738879
1761412812044865000,5.394864990234375,0.008173954105377197,-0.0008633388310670852,-0.0003456716325134039
1761412812054878000,5.4048779296875,0.018365677773952482,0.0030832068376243113,-0.009385412254370748
1761412812064891100,5.41489111328125,0.026295886251330374,0.005939473051577806,-0.02116308994013816
1761412812074904000,5.424904052734375,0.02926233484148979,0.005216127213090658,-0.001966952691413462
1761412812084917000,5.4349169921875,0.02116904475688934,-0.009665361706912517,-0.000090637425519526
1761412812094930200,5.44493017578125,0.03568681493103504,0.016772563363611697,0.0009725713592022657
1761412812104943000,5.454943115234375,0.03222995247542858,0.01968275172188878,-0.0009961714304983615
1761412812114956000,5.4649560546875,0.02521510527729988,-0.005807663365453481,0.00946231341548264
1761412812124969000,5.474968994140625,0.025583354067802426,0.0006670856066048145,0.02738620223868638
1761412812134982100,5.484982177734375,0.04373685039579868,0.000883650966733694,-0.0015188435977324844
1761412812144995000,5.4949951171875,0.02177168682515621,-0.011506167268007994,-0.00573832445628941
1761412812155008000,5.505008056640625,0.03722352297902107,0.011080343071371316,-0.01310340986419469
1761412812165021200,5.515021240234375,0.02290975094437599,0.0020864508852362633,-0.0009732654789462685
1761412812175034000,5.5250341796875,0.022957681739330292,0.0006508651241660118,0.009731522278301418
1761412812185047000,5.535047119140625,0.024981296521425247,0.01710676375404,-0.009143310594186186
1761412812195060000,5.54506005859375,0.038028409621119495,0.004102466882765293,-0.013783683745935558
1761412812205073200,5.5550732421875,0.03039163113236427,-0.00041647184640169143,0.00829589998461306
1761412812215086000,5.565086181640625,0.018414777612686156,0.005441898792982101,-0.008927804679982363
1761412812225099000,5.57509912109375,0.023374445846676827,-0.004587620051205158,0.003284611161239445
1761412812235112200,5.5851123046875,0.01761690523326397,-0.014449527243524789,-0.0017678133901208638
1761412812245125000,5.595125,0.017973463585972786,0.012748422414064407,-0.01235284722521901
1761412812255138000,5.605137939453125,0.02115560075342655,0.0022634148873388765,0.00033255642261356114
1761412812265151000,5.61515087890625,0.030319150418043134,0.0057474576108157635,-0.004360606362298131
1761412812275165200,5.625165283203125,0.023432898035645484,0.00749868519231677,0.003774915428832173
1761412812285178000,5.63517822265625,0.019575053563714025,0.016677432426065206,-0.007067417635582387
1761412812295191000,5.64519091796875,0.026788638204336166,0.0028019056782126427,-0.024129173204116523
1761412812305204200,5.655204345703125,0.02722410701215267,-0.005759440309554338,-0.0008847469452768564
1761412812315217000,5.665216796875,0.02350070257484913,-0.0062393327809870235,0.006209960556030273
1761412812325230000,5.67522998046875,0.028027824610471725,0.005875614035129547,0.00017265315316617488
1761412812335243000,5.685242919921875,0.054526539957523344,-0.009726298113912343,-0.015306582464277744
1761412812345256200,5.695256103515625,0.02458849781155586,0.01234481004923582,-0.01176375875826925
1761412812355268900,5.705268798828125,0.0171013569265604,0.012511398787796496,0.007048932130821048
1761412812365282000,5.715281982421875,0.02952069351673126,-0.005779752445220947,0.00046732525080442426
1761412812375295200,5.725295166015625,0.028766660279035565,0.004892594347149133,0.010873056996241212
1761412812385308000,5.735307861328125,0.024723522368073462,0.01634922338500619,0.005914886599592864
1761412812395321000,5.745321044921875,0.023249358162283896,0.012653145346045494,-0.012043963939137757
1761412812405334000,5.755333984375,0.038836218872666355,0.006854395939409732,-0.0100797511940822
1761412812415347200,5.76534716796875,0.035220366463065145,0.012922902198135851,-0.00437781322542578
1761412812425360000,5.77535986328125,0.034921091255545614,0.011427402943372725,0.0011580109287053345
1761412812435373000,5.785373046875,0.05335340452492237,0.018771043704450128,-0.0005205532753840089
1761412812445386200,5.79538623046875,0.0409299762815237,0.008508154495805501,-0.005579736361093819
1761412812455399000,5.80539892578125,0.03615092531144619,0.004562339479476213,-0.004119710278511047
1761412812465412000,5.815412109375,0.020874445724487302,0.01088978893533349,-0.005250577471964061
1761412812475425000,5.825425048828125,0.032093758875131606,-0.0018402210392057894,-0.0019250497784465551
1761412812485438200,5.835438232421875,0.02848667429387569,-0.0019309680625796317,-0.00766867146436125
1761412812495451000,5.845450927734375,0.03296294292509556,-0.0054826691947877405,0.009295030557177961
1761412812505464000,5.855464111328125,0.024567455023527144,0.012071546065807341,0.00021251023951917886
1761412812515477200,5.865477294921875,0.026805004817247388,0.007328589322417974,0.007593962260335684
1761412812525490000,5.875489990234375,0.009878419935703276,-0.00017228782698512076,0.0029813904309645292
1761412812535504100,5.885504150390625,0.018854922595620154,0.002818126160651445,0.0020461919400840997
1761412812545517000,5.89551708984375,0.03877192146480083,0.007210954292118549,-0.003882613587006926
1761412812555530000,5.905530029296875,0.025908932760357856,-0.0052127662122249604,-0.009920797772705554
1761412812565543200,5.915543212890625,0.0263905787974596,-0.004415770615637302,0.005406608283892274
1761412812575556000,5.92555615234375,0.03749824826717377,0.011620295166969299,-0.004021327937953174
1761412812585569000,5.935569091796875,0.028495442122220993,0.006648059712350368,-0.003723952426575124
1761412812595582000,5.94558203125,0.036571196550130844,-0.005300444495677948,-0.00581555441096425
1761412812605595400,5.955595458984375,0.03896013751327991,-0.00750131554082036,-0.007244198974594473
1761412812615608600,5.965608642578125,0.031630233016610144,0.01116948265954852,0.0032865108573809265
1761412812625621500,5.97562158203125,0.029237784922122954,0.009223901549726724,0.00032744185607880353
1761412812635634400,5.985634521484375,0.02519113987982273,0.017285335191339252,0.007016454633325338
1761412812645647600,5.995647705078125,0.022337504014372823,0.00113806411921978,-0.005543167210370302
1761412812655660300,6.005660400390625,0.02519289344549179,-0.005486760848015546,0.009036233490519225
1761412812665673500,6.015673583984375,0.03212181592583656,0.0034080548778176304,0.0022451851109042765
1761412812675686400,6.025686279296875,0.025105215162038803,0.002828647554665804,0.002041515764966607
1761412812685699600,6.035699462890625,0.02629530172944069,0.011087357334047556,-0.010693827971816063
1761412812695712300,6.045712158203125,0.02391980476975441,0.0038087446331977843,-0.0032291546469554303
1761412812705725400,6.055725341796875,0.028553309789299965,0.009343874667584896,0.00444134344831109
1761412812715738600,6.065738525390625,0.03078209175467491,-0.0006248539000749588,0.008410868133790791
1761412812725751300,6.075751220703125,0.049936289557814595,0.004473199891299009,0.0008308613335713744
1761412812735764500,6.085764404296875,0.025536592316627502,-0.007048311076313257,-0.018329839275591075
1761412812745777400,6.09577734375,0.028224223965406418,-0.0015370003089308737,-0.007014299208857119
1761412812755790600,6.10579052734375,0.028677812951803206,-0.009203004892170429,-0.0025727730974555016
1761412812765803300,6.11580322265625,0.042936639928817744,0.006023936464637517,-0.00578092148900032
1761412812775817500,6.1258173828125,0.026503976044058797,0.005728752910345793,0.005374678775668144
1761412812785830400,6.135830322265625,0.013209025663137435,0.0032297757014632224,-0.0023790771562606093
1761412812795843300,6.14584326171875,0.02879179472029209,-0.0019607786789536475,-0.01527428762987256
1761412812805856500,6.1558564453125,0.038242929154634474,0.007213146249204874,-0.01403597800657153
1761412812815869400,6.165869384765625,0.03948094651699066,0.023081600379943848,-0.019821393007598817
1761412812825882400,6.17588232421875,0.031236265262961384,0.005859831944108009,-0.008484335228800773
1761412812835895600,6.1858955078125,0.026262568503618237,0.009189560888707636,-0.014556056357920169
1761412812845908500,6.195908447265625,0.02592354580760002,0.008456278178095817,-0.004623385484330356
1761412812855921400,6.20592138671875,0.0357797539114952,-0.00598681932464242,-0.010102620613016188
1761412812865934300,6.215934326171875,0.04174246170818805,-0.0025901626236736774,-0.004730426055379212
1761412812875947500,6.225947509765625,0.02409749942421913,0.004398527219891548,-0.014105682241916656
1761412812885960400,6.23596044921875,0.024423662638664245,0.004569061481207609,-0.00019702040944248437
1761412812895973400,6.245973388671875,0.03441664886474609,0.004888502693921327,0.008245850297808647
1761412812905986600,6.255986572265625,0.0376841262280941,0.0042924364969134324,0.0073306716816499825
1761412812915999500,6.26599951171875,0.019868483552336693,-0.0022333120100200177,0.00634867490697652
1761412812926012400,6.276012451171875,0.01691372539997101,0.010506634836643934,-0.0006353022288531064
1761412812936025300,6.286025390625,0.014283376896381378,0.004994008895009756,0.010092026153765619
1761412812946038500,6.29603857421875,0.013424714240431785,0.008080576733499765,0.010325359985604882
1761412812956051500,6.306051513671875,0.029154198291897773,0.008610153565555811,-0.01116637738700956
1761412812966064400,6.316064453125,0.04097907612025738,0.02326207151338458,-0.008159377590753138
1761412812976077600,6.32607763671875,0.0412742596745491,0.01069718897268176,-0.014502901398576795
1761412812986090500,6.336090576171875,0.03078326079845428,0.0052178807787597176,-0.002315839194320142
1761412812996103400,6.346103515625,0.016689853516221046,0.005491583153605461,-0.014461802203208207
1761412813006116400,6.356116455078125,0.02717442265152931,-0.0051692193314433095,-0.0003590791033580899
1761412813016129500,6.366129638671875,0.028380291309952736,0.002546177351474762,0.0006044321665540337
1761412813026142500,6.376142578125,0.0195458274692297,0.008661883752793073,-0.0007760624064132571
1761412813036155400,6.3861552734375,0.03348784358203411,0.010289192693680524,0.008021211229078472
1761412813046169600,6.396169677734375,0.03170388277471065,0.007243102996051311,-0.017707433060929176
1761412813056182300,6.406182373046875,0.035414427730441095,0.002427227146923542,-0.0017788827734068035
1761412813066195500,6.416195556640625,0.020884382596611975,0.012218114929646253,0.005513429659232497
1761412813076208400,6.42620849609375,0.03882920460999012,0.01016015948653221,-0.016559943526238203
1761412813086221600,6.4362216796875,0.030610242319107053,0.00888181011378765,-0.004390088185109198
1761412813096234500,6.446234375,0.026282442247867584,-0.01303454587906599,-0.002058028508350253
1761412813106247400,6.456247314453125,0.020768647262454032,-0.002713204481452703,0.001974916802160442
1761412813116260600,6.466260498046875,0.027222937968373297,-0.011933160508424042,0.0019738208236172792
1761412813126273300,6.476273193359375,0.02768997095823288,0.003533434823155403,-0.00015380232222378254
1761412813136286500,6.486286376953125,0.03462240056991577,0.007221475686132907,-0.0037696181992068886
1761412813146299400,6.49629931640625,0.03041618105173111,-0.0031881285168230532,-0.01174647882990539
1761412813156312600,6.5063125,0.03160743666291237,0.004792787234485149,-0.010614771386235951
1761412813166325200,6.5163251953125,0.04282616529166698,-0.004650017762929201,0.0030164617443457246
1761412813176338400,6.52633837890625,0.023963059389591215,0.018866466902941463,-0.008124050549045204
1761412813186351600,6.5363515625,0.03129062579870224,0.002560059746354818,-0.012544680002890527
1761412813196364300,6.5463642578125,0.01795358984172344,-0.012172960613667964,-0.010939034904539584
1761412813206377500,6.55637744140625,0.013768997633457182,-0.0035313889965415,-0.01188676408343017
1761412813216390400,6.566390380859375,0.031138065585494038,0.004061258089542389,0.005675086494348943
1761412813226403600,6.576403564453125,0.03491349247097969,-0.004901508305966854,-0.006317768312059342
1761412813236416300,6.586416259765625,0.030753450182080266,-0.018327683851122854,-0.010228219754062592
1761412813246429400,6.596429443359375,0.03328384544253349,0.016720102524012327,0.0004231207828968763
1761412813256442600,6.606442626953125,0.031001287463307377,0.017306816370785235,0.00968023048248142
1761412813266455300,6.616455322265625,0.02230418626666069,0.00014160042777657507,0.0024730755826458334
1761412813276468500,6.626468505859375,0.03888999488651752,0.010730652850866317,0.019684286091849208
1761412813286481400,6.6364814453125,0.037978725260496136,0.009430530037730932,-0.001184862403012812
1761412813296494600,6.64649462890625,0.018961305579543113,-0.012973609472066163,0.011153627503290771
1761412813306508500,6.656508544921875,0.03630816169977188,-0.009661416184157133,0.006977328199334442
1761412813316521500,6.666521484375,0.028209026396274563,0.006285071618854999,0.0026246128825470802
1761412813326534400,6.676534423828125,0.020542437291145323,0.00978723452091217,0.0036884061891585586
1761412813336547300,6.68654736328125,0.03997019133865833,0.006056669690459966,-0.011422251844219862
1761412813346560500,6.696560546875,0.028891747963428496,-0.008163286580890416,-0.005550327603518962
1761412813356573400,6.706573486328125,0.029930443361401556,0.0008263678215444087,-0.0026727263405919074
1761412813366586400,6.71658642578125,0.028138883769512176,-0.0027390695750713345,-0.022247122317180037
1761412813376599600,6.726599609375,0.013623451682925223,0.004191752601414919,0.0009672010643407702
1761412813386612500,6.736612548828125,0.03574351355433464,0.020416765084862707,0.004749240353703499
1761412813396625400,6.74662548828125,0.041381227180361746,0.03156915047913789,-0.02144446416478604
1761412813406638300,6.756638427734375,0.020413842475414275,-0.005036678992956877,-0.011835545352846383
1761412813416651500,6.766651611328125,0.012474866169691085,-0.005281593664735555,0.004831219548732042
1761412813426664400,6.77666455078125,0.02085632554590702,0.015678046125173567,-0.0013902853146195411
1761412813436677400,6.786677490234375,0.011954641687870025,0.004257803574949503,0.0034600773259997365
1761412813446690600,6.796690673828125,0.023005028012394905,-0.017005495336651803,0.004749605679884553
1761412813456703500,6.806703369140625,0.029391514179110526,-0.005438976183533668,-0.02231295409500599
1761412813466716400,6.81671630859375,0.03182721689343452,0.009238222336024046,-0.017136574370414017
1761412813476729300,6.826729248046875,0.025182956573367117,-0.033641426708549256,-0.01801617021653801
1761412813486742500,6.836742431640625,0.03939034562408924,0.019925620567053555,-0.015631649700179696
1761412813496755500,6.84675537109375,0.021268998000025748,0.007644815664738416,-0.0008393003683537244
1761412813506768400,6.856768310546875,0.027815058642625807,-0.011663111395388842,-0.005617839881777763
1761412813516781300,6.86678125,0.018285013753175733,-0.005258212789148092,-0.011590776811540126
1761412813526794500,6.87679443359375,0.03075812635719776,-0.008511807757616043,-0.016998444541357457
1761412813536807400,6.886807373046875,0.027480127599835393,0.008288374265283345,-0.0068419017840176816
1761412813546820400,6.8968203125,0.022270868518948553,0.009916706119477748,-0.013549400066025554
1761412813556833500,6.90683349609375,0.03577858486771583,0.02601867674514651,-0.014959741787984966
1761412813566846500,6.916846435546875,0.023270400950312613,0.027045973966270682,-0.009670622403919697
1761412813576860400,6.9268603515625,0.020467033967375755,-0.007590162868052721,-0.0039578707803040744
1761412813586873600,6.93687353515625,0.01732932046353817,0.004018003469705582,0.006066387366876006
1761412813596886300,6.94688623046875,0.03950023573935032,0.008086129691451787,-0.0066724269686266775
1761412813606899000,6.95689892578125,0.04489069660604,0.0025496844828128812,-0.011251936778612434
1761412813616912000,6.966911865234375,0.03114800245761871,-0.002202624610811472,-0.02366126343142241
1761412813626925000,6.976925048828125,0.027749007669091223,0.010739274548739195,-0.01940959733631462
1761412813636938000,6.98693798828125,0.018769582399725912,0.014348989478498697,-0.004253310062922537
1761412813646951000,6.996950927734375,0.03990940106213092,-0.007968640791624784,0.007065700602531433
1761412813656964000,7.006964111328125,0.02661094354987144,0.006765256351232528,0.006218837982229888
1761412813666977000,7.01697705078125,0.035187633237242694,0.0017905366785824297,-0.006049691960401833
1761412813676990000,7.026989990234375,0.013920973324775696,-0.0003701484866440296,-0.012792444218881427
1761412813687003000,7.0370029296875,0.03737608319222927,0.004640665412694215,0.009959705010987818
1761412813697016000,7.04701611328125,0.01749181754887104,-0.005605857183039188,0.0031271190445870158
1761412813707029000,7.057029052734375,0.020219196686148643,0.014740180753171444,-0.012562434855289756
1761412813717042000,7.0670419921875,0.05148118091225624,0.00369651643037796,-0.005188106695003808
1761412813727055000,7.07705517578125,0.03007832739949226,0.012675503308326005,0.0011673632789403199
1761412813737068000,7.087068115234375,0.027381927922368047,0.006254530350118875,-0.019638802982307968
1761412813747081000,7.0970810546875,0.01851999155282974,-0.003623012802749872,-0.012948292367719112
1761412813757094000,7.107093994140625,0.02884849334359169,-0.002091565451771021,-0.015441095564141869
1761412813767107000,7.117107177734375,0.018826281023025512,-0.009541735327243804,-0.01300396807771176
1761412813777120000,7.1271201171875,0.02749474064707756,-0.011776362511515617,-0.004041895801946521
1761412813787133000,7.1371328125,0.02320610354244709,-0.0028860768303275107,0.002412139175646007
1761412813797146000,7.14714599609375,0.015712532916665075,0.0032945115007460115,0.000734597884863615
1761412813807159000,7.157158935546875,0.03966156378090381,0.0014249182365834712,-0.01363970869798213
1761412813817172000,7.167171875,0.03170329825282096,0.013672551521658896,0.025992190597020088
1761412813827185000,7.177184814453125,0.037951837253570556,0.0004911445178091525,-0.012897292832843958
1761412813837198000,7.187197998046875,0.03793430159687996,0.010459873085469007,0.004191971797123551
1761412813847211000,7.1972109375,0.03390694577693939,0.015468495027720927,-0.014727723130397498
1761412813857224000,7.207223876953125,0.017895137652754783,0.013511077349632977,-0.013440569396689533
1761412813867238100,7.217238037109375,0.02608955002427101,0.006639291884005069,-0.012880414763279259
1761412813877250800,7.227250732421875,0.04166472029685974,0.008346241932362318,0.0015328721230849624
1761412813887264000,7.237263916015625,0.036117607563734055,-0.009837649533897638,-0.027419045062363145
1761412813897277000,7.24727685546875,0.02446165656149387,-0.0019867899030447003,-0.002597213418968022
1761412813907289900,7.257289794921875,0.02293722347319126,0.010968114868551492,0.004854892685264348
1761412813917303000,7.267302978515625,0.028314824858307837,-0.003573474572598934,-0.009482552485913037
1761412813927316000,7.27731591796875,0.027996844950318334,0.0018809914410114288,0.004490954743698239
1761412813937329200,7.2873291015625,0.0320201091170311,0.018569675913453102,0.006140292853303253
1761412813947341800,7.297341796875,0.03246259218752384,0.007987345492094755,-0.010585618356987833
1761412813957355000,7.30735498046875,0.02949848168492317,-0.0014364625439047814,-0.012112170337140559
1761412813967368000,7.317367919921875,0.034274025523662564,0.004170417552441358,0.007075820137746632
1761412813977380900,7.327380859375,0.02928980737030506,-0.0015188801303505897,-0.015210867004841566
1761412813987394000,7.33739404296875,0.028050036442279814,0.015250906754285096,-0.001157609069906175
1761412813997407000,7.347406982421875,0.04313654641509056,-0.00015592121407389639,-0.010929901750013231
1761412814007420200,7.357420166015625,0.0377232891947031,-0.0006174012459814548,-0.0040077012713998555
1761412814017432800,7.367432861328125,0.02332943766117096,-0.0018484043456614017,-0.015310929845832287
1761412814027446000,7.377446044921875,0.034525954458117486,-0.0008148235142230987,-0.0059988385559990995
1761412814037459000,7.387458984375,0.040649405774474144,-0.01286766487956047,0.0123034916581586
1761412814047472000,7.39747216796875,0.03004793226122856,0.004851385553926229,-0.00617024960014969
1761412814057485000,7.407485107421875,0.01972176855802536,0.007408668821305036,-0.01885408234540373
1761412814067498000,7.417498046875,0.031095395487546917,0.005618570534139871,0.0021322993209585547
1761412814077511200,7.42751123046875,0.030218028131127356,0.005082710091769695,-0.015627667644806206
1761412814087523800,7.43752392578125,0.054468087768554684,0.0086269585698843,-0.012955489293485879
1761412814097537000,7.447537109375,0.026481179690361022,0.001191255611181259,-0.009877397022396326
1761412814107550000,7.457550048828125,0.024534137275815007,0.02018441763371229,0.0008306786704808473
1761412814117563100,7.467563232421875,0.03215454915165901,0.007631663922220468,-0.004099653871171176
1761412814127575800,7.477575927734375,0.019912322694063185,-0.008665829275548457,-0.0008223492335528135
1761412814137589000,7.487589111328125,0.033387305817008016,-0.006877776814997196,0.000942505014501512
1761412814147603000,7.49760302734375,0.04584755893945694,0.013722382012754678,-0.005823628119565546
1761412814157615900,7.507615966796875,0.034621231526136394,0.014914076015353201,-0.014737550404667853
1761412814167629000,7.517629150390625,0.02683598447740078,0.003995499376952648,-0.005508790016733109
1761412814177642000,7.52764208984375,0.013984686210751532,0.0007362053200602531,-0.00997545056939125
1761412814187655000,7.537655029296875,0.03405541433691978,-0.021939736868441105,-0.015031309186853468
1761412814197668000,7.547668212890625,0.026263737547397612,0.005491144762188196,-0.01398939891848713
1761412814207681000,7.557680908203125,0.02328442947566509,-0.002218552832305431,-0.010005882240273057
1761412814217694000,7.56769384765625,0.015803133809566498,0.020526216808706522,0.0022823753161355853
1761412814227707000,7.577706787109375,0.027608137893676755,-0.006769055743515491,-0.0036676191294565796
1761412814237720000,7.587719970703125,0.026713234880566594,0.010006722490489482,-0.004895663087069988
1761412814247733000,7.59773291015625,0.0338806422919035,0.008982201748341322,-0.017213438998907805
1761412814257746000,7.607745849609375,0.0332879370957613,0.023921996726840734,-0.006574519552104175
1761412814267759000,7.617759033203125,0.03807926302552223,-0.00665799658447504,-0.011216719334758818
1761412814277772000,7.62777197265625,0.033736265385150906,-0.003670505206286907,-0.005163922101818025
1761412814287785000,7.637784912109375,0.03496376135349274,0.004893617260456085,0.004682677923515439
1761412814297798000,7.6477978515625,0.030211598390340804,0.0026132512383162973,-0.010782090777158736
1761412814307811000,7.65781103515625,0.008902852901816367,0.0072102236397564405,-0.016733181201294064
1761412814317824000,7.667823974609375,0.039823476344347,0.020638152750581503,-0.01209043342936784
1761412814327837000,7.6778369140625,0.036539632368087764,0.0007253916651010513,0.0002878404980525374
1761412814337850000,7.68785009765625,0.03164250797629356,-0.016542554000020027,0.0023290274694561957
1761412814347863000,7.697863037109375,0.016380056914687156,0.011274988860636949,-0.009392353451810777
1761412814357876000,7.7078759765625,0.016208792001008988,0.00999678561836481,0.012618877750262616
1761412814367889000,7.717888916015625,0.025588614764809607,-0.0002868541173636913,-0.006815379103273153
1761412814377902000,7.727902099609375,0.021858196064829825,0.008631634745001792,-0.006851144536398351
1761412814387915000,7.7379150390625,0.033956045615673065,0.01067147000953555,-0.00645735944584012
1761412814397928000,7.747927978515625,0.019587328523397445,-0.004761076921969652,-0.0055489758966490626
1761412814407941000,7.757941162109375,0.016590484794974325,-0.006414250956475734,0.00826294756308198
1761412814417954000,7.7679541015625,0.027233459362387656,-0.006957710183411836,0.00913213161304593
1761412814427967000,7.777967041015625,0.0295277077794075,-0.0006244155086576938,0.0004054755283519625
1761412814437981000,7.78798095703125,0.019494974064826965,0.0005605564922094345,-0.01772858544681221
1761412814447994000,7.797994140625,0.033415362867712975,-0.005597820007055997,-0.019691702213324606
1761412814458007000,7.808007080078125,0.03669569971263408,-0.009154927966743708,0.0026798502011224625
1761412814468020000,7.81802001953125,0.028920974057912826,-0.0019875205554068087,0.006633337067253887
1761412814478033200,7.828033203125,0.04749824875593185,-0.005352320813387632,-0.010904657710902392
1761412814488045800,7.8380458984375,0.031171383333206175,0.0007097557045519352,-0.01270030895601958
1761412814498059000,7.84805908203125,0.030541268736124037,0.009834580793976783,-0.009569901975803076
1761412814508072000,7.858072021484375,0.038922728112339974,0.013726912057399749,-0.007737535449489951
1761412814518085000,7.868085205078125,0.03580781096220016,0.004020049296319484,0.0060306584663689135
1761412814528098000,7.87809814453125,0.023996961659193038,-0.00039192192703485485,-0.0021303996248170733
1761412814538111000,7.888111083984375,0.02389233224093914,-0.00811214091554284,-0.015250431830249727
1761412814548124200,7.898124267578125,0.02181435692310333,0.014711977571994066,-0.008023658914491534
1761412814558136800,7.90813671875,0.02373100419938564,0.002432487843930721,0.0006717252491042018
1761412814568150000,7.91814990234375,0.01610883875787258,-0.004484890329092741,-0.012757445970736444
1761412814578163000,7.928162841796875,0.037218846803903576,-0.000192015440762043,-0.00509604449737817
1761412814588176100,7.938176025390625,0.026016484788060186,0.003295972805470228,0.005348631018958986
1761412814598188800,7.948188720703125,0.01898410193324089,0.00010389876589179038,-0.002454407414793968
1761412814608202200,7.9582021484375,0.013297872990369795,0.01699453555122018,-0.00656882046367973
1761412814618215200,7.968215087890625,0.03859598037600517,-0.0026445231594145295,-0.020005005946196613
1761412814628228000,7.97822802734375,0.031150925067067143,0.0014029986657202243,-0.017789083462394772
1761412814638241300,7.9882412109375,0.028149405163526535,0.008449117784947157,0.009794650642387569
1761412814648254200,7.998254150390625,0.031714404168725015,-0.0038587212547659872,-0.0008842354886233806
1761412814658267100,8.00826708984375,0.03215454915165901,0.004112111493945122,-0.010763459141924977
1761412814668280000,8.018280029296875,0.04175707475543022,-0.013698562745749949,-0.016570099594071505
1761412814678293200,8.028293212890626,0.032360300856828686,-0.009551526068896055,-0.013319244571961462
1761412814688306200,8.03830615234375,0.029115619847178458,-0.006219020645320415,-0.014633761236630379
1761412814698319000,8.048319091796875,0.023140052568912505,-0.0020924422346055506,-0.005414608927257359
1761412814708332300,8.058332275390624,0.035116321566700935,-0.013187982875108717,-0.014085991160757838
1761412814718345200,8.06834521484375,0.028218963268399237,-0.0017445055797696112,-0.028737909108586607
1761412814728358100,8.078358154296875,0.031816110977530475,0.019618308183550835,-0.006024228725582361
1761412814738371000,8.08837109375,0.034621231526136394,0.01678191571384668,-0.0025288608904927967
1761412814748385300,8.09838525390625,0.033387305817008016,-0.010128303043544291,-0.004475574511475861
1761412814758398200,8.108398193359376,0.020919453909993172,-0.0019992109932005404,-0.012222316180728375
1761412814768411100,8.1184111328125,0.02913432454764843,0.010208528672903776,0.008775427129864692
1761412814778424300,8.12842431640625,0.021971593311429023,-0.006011076983064413,-0.012926445862092076
1761412814788437200,8.138437255859374,0.027207740399241447,0.0031400515913963317,0.0056936815969645975
1761412814798450200,8.1484501953125,0.027043489748239516,-0.0012551146276295183,-0.013067936692014335
1761412814808463000,8.158463134765626,0.022591186514496802,-0.007995967189967632,-0.007454919115826487
1761412814818476300,8.168476318359374,0.031280104404687877,-0.006364712726324796,-0.004483575154840946
1761412814828489200,8.1784892578125,0.03006663696169853,0.005839373677968979,0.0006190086811780929
1761412814838502100,8.188502197265626,0.015549451309442519,0.013023439963161944,-0.0070568231763318175
1761412814848515300,8.198515380859375,0.024406126981973645,-0.0019385668471455573,-0.0018642229693010448
1761412814858528300,8.2085283203125,0.03207797678411007,0.00043181554600596424,-0.012412614588439464
1761412814868541200,8.218541259765624,0.030407997745275497,-0.001559212140738964,-0.008561236389912665
1761412814878554000,8.22855419921875,0.029781390279531476,-0.00876110634356737,-0.0027418095214292405
1761412814888567300,8.2385673828125,0.040842297998070716,0.012114216163754462,-0.01943856770247221
1761412814898580200,8.248580322265624,0.033064649733901025,0.011351853489130734,-0.013295096511393784
1761412814908593200,8.25859326171875,0.03246960645020008,0.0011712357364594935,-0.007110124266147613
1761412814918606300,8.2686064453125,0.021862872239947317,0.0067826458774507044,-0.006332965881191194
1761412814928619300,8.278619384765625,0.02800444373488426,0.004511193814128637,-0.0006256210850551724
1761412814938632200,8.288632080078125,0.032630934491753576,-0.0008067863382399082,-0.017493936440721152
1761412814948645000,8.29864501953125,0.03850011878609657,-0.0018760230049490927,-0.005721117593161761
1761412814958658300,8.308658203125,0.02220481754541397,-0.005858809030801057,-0.019120368598774074
1761412814968671000,8.3186708984375,0.025210429102182387,0.004289660017937421,-0.022723544189892707
1761412814978684200,8.32868408203125,0.02837619965672493,-0.005720715734362602,0.0042677404470741745
1761412814988697300,8.338697265625,0.030923546051979063,0.0023741817854344843,0.006187346865423023
1761412814998710300,8.348710205078126,0.039973113948106764,-0.0006407821215689182,-0.016482055984437465
1761412815008723200,8.35872314453125,0.032721535384655,0.005424363136291504,-0.004597922249510884
1761412815018736000,8.368736083984375,0.018376783689856527,-0.0018145020760595798,0.0028894378311932084
1761412815028749300,8.378749267578126,0.036507483664155,0.021135727009177208,-0.026649558527208864
1761412815038762000,8.388761962890625,0.047129999965429305,0.01095540151745081,-0.009784275378845632
1761412815048775200,8.398775146484375,0.04322831635177135,0.010702595800161361,-0.012808920429646969
1761412815058788400,8.408788330078124,0.02916822681725025,-0.001144201599061489,-0.016843290512263773
1761412815068802000,8.418802001953125,0.029456980630755424,0.0189814715847373,-0.01929020874034613
1761412815078815200,8.428815185546876,0.021365444111824033,0.00644318479001522,-0.01742280743326992
1761412815088828200,8.438828125,0.02703764452934265,0.00019259996265172957,-0.012618914282880722
1761412815098841000,8.448841064453125,0.025667525219917296,-0.010318272657692432,0.0022092004820704458
1761412815108854300,8.458854248046874,0.011938859596848487,-0.0008938800998032092,-0.0023173735642805695
1761412815118867200,8.4688671875,0.029600188493728637,-0.000898117883503437,-0.0004741203177720308
1761412815128880400,8.47888037109375,0.02484218031167984,-0.010737813244014977,-0.0022948329389095305
1761412815138893000,8.48889306640625,0.0299415492773056,-0.011192132882773875,0.00015168343037366867
1761412815148906200,8.49890625,0.033082769912481304,-0.009236614900827408,-0.01106193063184619
1761412815158919200,8.508919189453126,0.02682370951771736,-0.007079290736466646,-0.004044599215686321
1761412815168932000,8.51893212890625,0.035633038917183876,0.0036455168955028057,0.002282923305407166
1761412815178945300,8.5289453125,0.030692659905552862,0.0103828623265028,-0.015255984788201749
1761412815188958200,8.538958251953124,0.01035889692902565,0.016746259878575802,-0.00039904578756541013
1761412815198971400,8.548971435546875,0.013337035956978797,-0.0030848142728209494,-0.010420563988387584
1761412815208984000,8.558984130859375,0.028294366592168805,0.009481529572606087,0.01053523987662047
1761412815218997200,8.568997314453124,0.0356231020450592,0.004061111959069967,0.003918780878931284
1761412815229010200,8.57901025390625,0.027702245917916295,0.007013824284821749,0.009029840282350777
1761412815239023000,8.589023193359376,0.03804886788725853,-0.014174071303009987,0.0013057853689417242
1761412815249036300,8.599036376953125,0.02713876681625843,0.0003090659491717815,0.010712094280868768
1761412815259049200,8.60904931640625,0.027897476229071617,-0.0007867664635181426,0.00023362609278410672
1761412815269062400,8.6190625,0.04208557605743408,-0.005738835912942886,-0.01680938824266195
1761412815279075000,8.629074951171875,0.017668927681446074,-0.009019903410226106,-0.0012436799181625247
1761412815289088300,8.639088134765625,0.01887304277420044,-0.006038841772824525,-0.011631876006908714
1761412815299101200,8.64910107421875,0.03299392258524895,-0.01206160919368267,0.004967011290229857
1761412815309114000,8.659114013671875,0.004614215797185898,-0.015564210487157105,-0.0007252090020105242
1761412815319127000,8.669126953125,0.026223990058898923,-0.011056231543421745,-0.017129340912029146
1761412815329140200,8.67914013671875,0.025067221239209174,-0.000027472528815269467,-0.009803126209788024
1761412815339153400,8.6891533203125,0.03586100245416164,0.007839023062586783,-0.008494199035689234
1761412815349166000,8.699166015625,0.03828384568691254,0.0023540157802402974,-0.0017584245072677731
1761412815359179300,8.70917919921875,0.035173020190000535,-0.011692922011762856,-0.007665420061349868
1761412815369192200,8.719192138671875,0.04085983365476131,0.0005650865368545055,-0.014880429474078118
1761412815379205000,8.729205078125,0.01661035853922367,0.0025206045188009736,-0.018737324097938834
1761412815389219300,8.73921923828125,0.034741643035411836,-0.010906155548244714,0.004048289010114968
1761412815399232300,8.749232177734376,0.03264379397332668,-0.00008592471778392792,0.0004295505236834287
1761412815409245200,8.7592451171875,0.03775193076729774,-0.01738704200014472,-0.01121741345450282
1761412815419258000,8.769258056640625,0.0373223071783781,-0.0019324293673038482,-0.012023907531797886
1761412815429271300,8.779271240234374,0.020153730234503744,0.012692308312654494,-0.01845065264366567
1761412815439284000,8.789283935546875,0.022677695754170415,0.001552197878062725,0.005292078526131809
1761412815449297200,8.799297119140626,0.01861936027407646,0.00568593668192625,0.004573080069199204
1761412815459310300,8.809310302734374,0.026699790877103804,-0.0027056056968867777,0.004366780374757945
1761412815469323300,8.8193232421875,0.03404547746479511,-0.025806641429662703,0.004247209115698933
1761412815479336200,8.829336181640626,0.01571720909178257,-0.024765315683186052,-0.008370682253874839
1761412815489349000,8.83934912109375,0.024780220991373062,0.0033408348605036735,-0.010457096606492996
1761412815499362300,8.8493623046875,0.026345570611953733,0.01787804038748145,-0.013542641531676053
1761412815509375000,8.859375,0.03264613206088543,0.0381425375200808,-0.012532989565096795
1761412815519388200,8.86938818359375,0.04758183538615703,0.039420594631880516,-0.018584069764986635
1761412815529401300,8.8794013671875,0.04876140055954456,0.01506473653241992,0.007121412845142185
1761412815539414300,8.889414306640624,0.049016836625337595,0.0001204115092754364,-0.007700308711640537
1761412815549427200,8.89942724609375,0.028631635722517965,-0.007996551711857319,-0.02241100764200091
1761412815559440100,8.909440185546876,0.004753916528820991,0.00035480478703975673,-0.005885039450600743
1761412815569453300,8.919453369140625,0.018336451679468155,-0.011060177066177129,-0.013289507020823656
1761412815579466000,8.929466064453125,0.03809913676977157,-0.0002858312040567398,0.017135697587579487
1761412815589479200,8.939479248046876,0.027796938464045524,-0.0067787003546953195,-0.0018229411108419298
1761412815599492400,8.949492431640625,0.02419511457979679,-0.006758095958083868,-0.00778316468950361
1761412815609505800,8.959505859375,0.027023031482100484,-0.01123874850347638,0.005886427690088749
1761412815619518700,8.969518798828124,0.02274550029337406,-0.01752016686052084,-0.0020365107962861655
1761412815629532000,8.979531982421875,0.03060088996887207,-0.010934797120839357,-0.020369163083471357
1761412815639544800,8.989544921875,0.038836803394556044,0.009115180478245019,-0.002919138849712908
1761412815649557800,8.999557861328125,0.042399464312195774,0.01956497056111693,-0.012836977480351924
1761412815659571000,9.009571044921875,0.034116789135336875,0.0312856573626399,-0.03607588731385767
1761412815669584000,9.019583984375,0.04154840044081211,0.027454408636689184,-0.005529832804761827
1761412815679596800,9.0295966796875,0.03537994093894958,0.0012568681932985783,-0.0017130875281989573
1761412815689609700,9.039609619140625,0.05167173504829407,0.0028245559014379975,-0.001040339365787804
1761412815699623000,9.049622802734374,0.030272973188757896,-0.005009790986031293,-0.019203955228999255
1761412815709635800,9.0596357421875,0.009143675920367241,-0.008961012829840184,-0.02121865605227649
1761412815719648800,9.069648681640626,0.014677929171919821,-0.0013281798638403416,0.0002842237688601017
1761412815729663000,9.0796630859375,0.03848316765129566,-0.004817044892907143,0.004683372043259442
1761412815739675600,9.089675537109375,0.03579962765574455,-0.014860884523391724,-0.009871186477318406
1761412815749688800,9.099688720703124,0.038488428348302836,-0.008118862917274237,-0.010673954227566718
1761412815759701800,9.10970166015625,0.033716391640901566,-0.012687339876592159,-0.017416377692483366
1761412815769715000,9.11971484375,0.03793196350932121,0.002618658065795898,-0.017198131831921638
1761412815779728000,9.129727783203125,0.029444705671072005,-0.0018599486529827117,-0.009622435880638658
1761412815789740800,9.13974072265625,0.030112229669094083,0.0014729951620101928,-0.007110124266147613
1761412815799754000,9.14975390625,0.02486906831860542,0.004480068023502827,-0.014790413103066384
1761412815809766700,9.1597666015625,0.029343583384156224,-0.0019582944609224796,-0.01477221985924989
1761412815819779800,9.16977978515625,0.039620647248625754,0.01126096033528447,-0.01369322898350656
1761412815829792800,9.179792724609374,0.03853285201191902,0.0023211364239454266,-0.012958229239843785
1761412815839806000,9.189805908203125,0.03450491167008877,0.007353431502729654,0.0003648512570187449
1761412815849818600,9.199818603515626,0.013849077132344245,0.02573971367329359,0.001986570707336068
1761412815859831800,9.209831787109374,0.01279752225279808,0.0009235445857048034,-0.009067870737798512
1761412815869845000,9.219844970703125,0.02299158400893211,-0.00661444970369339,-0.010731968025118112
1761412815879857700,9.229857666015626,0.024171149182319638,0.0069740767963230605,-0.016133096416294575
1761412815889870800,9.239870849609375,0.031768180182576176,0.005176525855064392,-0.008260682540759444
1761412815899883800,9.2498837890625,0.03877952024936676,0.015888327874988315,-0.006389153047837316
1761412815909897000,9.25989697265625,0.02636836696565151,0.010635521913319826,-0.006877374956198036
1761412815919909600,9.26990966796875,0.042974633851647376,-0.004757569790631532,-0.012699614836275576
1761412815929922800,9.2799228515625,0.04091010253727436,0.003346826209872961,-0.01381879159193486
1761412815939936000,9.28993603515625,0.020425532913208005,0.0109067400701344,-0.013211254152841865
1761412815949948700,9.29994873046875,0.018490765458345413,0.011933014377951622,-0.014892740966379641
1761412815959961900,9.3099619140625,0.022418168035149573,-0.0029221710570156573,-0.011361096241511404
1761412815969974800,9.319974853515625,0.038166941308975216,-0.007877455376833677,-0.011921762331575155
1761412815979988000,9.329988037109375,0.03985270243883133,-0.00025967384949326515,-0.012268091551214456
1761412815990000600,9.340000732421874,0.024473346999287604,0.01129106321260333,0.010468165989778936
1761412816000013800,9.350013916015625,0.03977262293994426,0.007061755079776048,-0.0032105230117216704
1761412816010027000,9.360027099609376,0.031852935856580736,0.004158434853702784,-0.00682400080114603
1761412816020039700,9.370039794921874,0.04023614879846572,0.0063613517254590985,-0.023981289166025817
1761412816030052900,9.380052978515625,0.0322726225733757,0.018613222794234753,-0.006564728810451924
1761412816040065800,9.390065673828126,0.03372048329412937,0.007011486197263002,-0.003916954248026013
1761412816050079000,9.400078857421875,0.026952304333448408,0.003143558722734451,-0.018559337182529268
1761412816060093000,9.410093017578125,0.023504209706187246,0.008256079430878163,-0.01663918277490884
1761412816070105900,9.42010595703125,0.018450433447957038,0.007332534845173358,-0.009805756558291613
1761412816080118800,9.430118896484375,0.03436521093845367,0.0035245208643376823,-0.0014267083348706365
1761412816090131700,9.440131591796876,0.022861235627532003,0.009569500117003917,-0.000991933646798134
1761412816100145000,9.450144775390624,0.026481179690361022,-0.004038023344427347,-0.006690583679825067
1761412816110157800,9.46015771484375,0.037252164551615716,-0.010463526347279548,0.011549531485699116
1761412816120170800,9.470170654296876,0.03396130631268024,0.01287219492420554,-0.004771963642165065
1761412816130184000,9.480183837890625,0.033820436537265776,-0.004503302768617868,0.010589015890471636
1761412816140196900,9.49019677734375,0.023952537995576857,-0.0009114157564938068,-0.0006357771528884769
1761412816150209800,9.500209716796874,0.032032384076714514,-0.0010172142185270786,-0.007805522651784121
1761412816160222700,9.51022265625,0.03008008096516132,0.0011567688196897506,-0.010028897789679468
1761412816170236000,9.52023583984375,0.041136312508583066,0.016992343594133853,-0.0017830840244889257
1761412816180248800,9.530248779296874,0.040862756264209744,0.0035606150910258293,0.004984437349066138
1761412816190261800,9.54026171875,0.03144084792435169,0.005037263514846563,0.00022259324211627244
1761412816200274700,9.550274658203126,0.034001638323068614,0.005263911877572536,-0.008584471135027706
1761412816210287900,9.560287841796875,0.016151508855819702,-0.004261310706287622,-0.016076105532050133
1761412816220300800,9.57030078125,0.03483341297209263,0.0043438744232058525,-0.014408939504809678
1761412816230313700,9.580313720703124,0.03093991266489029,0.010149345831573009,-0.0008216185811907052
1761412816240327000,9.590326904296875,0.03336509398519993,-0.005847556984424591,0.0004265183163806796
1761412816250339800,9.60033984375,0.026657120779156683,-0.013275222767144441,-0.00949614261984825
1761412816260352800,9.610352783203124,0.03293137874305248,0.011155600264668464,-0.009680632341280578
1761412816270365700,9.62036572265625,0.024497312396764753,0.00929009865373373,-0.013540303444117307
1761412816280379000,9.63037890625,0.031516835770010944,0.016693360647559163,-0.01666212525907904
1761412816290391800,9.640391845703125,0.03680500530600547,0.006154869367927312,-0.012651318715140223
1761412816300404700,9.65040478515625,0.012758359286189078,-0.0022321429662406442,0.0031293840669095515
1761412816310418000,9.66041796875,0.007231120297312736,-0.0027026830874383448,-0.019971505535393952
1761412816320430800,9.670430908203125,0.035191724890470504,0.011763649160414934,0.006203969206660985
1761412816330443800,9.68044384765625,0.043401919353008266,0.024139000478386876,0.0005636617647483944
1761412816340456700,9.690456787109374,0.041180736172199243,0.014117811071127652,0.007172120119072496
1761412816350470000,9.700469970703125,0.02430149756371975,0.0166024674937129,-0.00775521723665297
1761412816360482800,9.71048291015625,-0.0032891046732664107,0.0006930968306958675,-0.017263342555239796
1761412816370495700,9.720495849609375,0.015347206735610961,-0.003916881182789802,-0.014575783971697091
1761412816380509000,9.730509033203125,0.03298807736635208,0.010212620326131582,-0.007297463531792164
1761412816390521900,9.74052197265625,0.05080488908588886,0.009855331321060657,0.008827705306373536
1761412816400534800,9.75053466796875,0.027643209207057953,-0.007961772659420966,0.0016196370910853146
1761412816410547700,9.760547607421875,0.008802315136790275,-0.011305676259845495,-0.01420063051637262
1761412816420561700,9.770561767578124,0.025269465813040733,0.0027022446960210797,-0.006656900605931878
1761412816430573800,9.78057373046875,0.04115326364338398,-0.012808043646812439,-0.011114208808355033
1761412816440587800,9.790587890625,0.051374213406443596,0.001337532214075327,-0.012465404221601783
1761412816450601000,9.80060107421875,0.04165595246851444,0.0025049685582518577,-0.011833097667433321
1761412816460613600,9.810613525390625,0.024146599262952803,0.014636574248224496,-0.004032360788621008
1761412816470626800,9.820626708984374,0.01696457880437374,-0.00405073669552803,0.0021730697227641937
1761412816480640000,9.830639892578125,0.016349661776423455,-0.0005127718277275562,-0.01885558018274605
1761412816490652700,9.840652587890625,0.03490706273019314,0.008326075927168131,-0.009943484528549014
1761412816500665900,9.850665771484374,0.0371481196552515,0.010271657036989927,-0.008211253908462822
1761412816510678800,9.8606787109375,0.02082709945142269,0.010756810205429792,-0.0063178413772955536
1761412816520692000,9.87069189453125,0.02889993126988411,0.0006250000305473804,0.0034362215263769027
1761412816530704600,9.88070458984375,0.02545943542718887,-0.007311930448561907,0.0013377148771658539
1761412816540717800,9.8907177734375,0.018146482065320015,-0.018002835810929537,-0.01772182691246271
1761412816550730800,9.900730712890624,0.020835867279767988,-0.007547638900578022,-0.010085158021561801
1761412816560744000,9.910743896484375,0.03375263199806213,0.0037513153575360774,-0.008717121071368456
1761412816570756900,9.9207568359375,0.04603519046604633,-0.005766016180813312,-0.0065865387834608555
1761412816580769800,9.930769775390624,0.017593524357676506,-0.012631225775182246,-0.012112060739286242
1761412816590783000,9.940782958984375,0.028097967237234112,0.015047493136674165,0.0010197715017944574
1761412816600795600,9.950795654296876,0.017501169899106026,-0.009593173253536223,-0.03012834055367857
1761412816610808800,9.960808837890625,0.01796586480140686,-0.013098112634569406,-0.0031525822794064877
1761412816620821800,9.97082177734375,0.030565234133601186,0.005500935503840446,-0.001214599954150617
1761412816630835000,9.9808349609375,0.030732991915941237,-0.0035546237416565415,-0.013448606572672724
1761412816640848000,9.990847900390625,0.010970891347527503,0.010053922633081674,-0.012464600504003465
1761412816650860800,10.00086083984375,0.027709844702482223,0.0020246376954019068,0.0015681991647928952
1761412816660874000,10.0108740234375,0.03353928150832653,0.002062047096341848,-0.015609218672662973
1761412816670886700,10.02088671875,0.03248948019444942,-0.003611614625900984,-0.009318228769674896
1761412816680899800,10.03089990234375,0.03804594527781009,0.0045180619463324545,0.0024781536165624854
1761412816690912800,10.040912841796874,0.02921615761220455,0.012896014191210269,-0.005928403668291867
1761412816700926000,10.050926025390625,0.01229775603711605,0.00008066402077674865,-0.004998283211328089
1761412816710939000,10.06093896484375,0.036404607811570164,-0.00418298477306962,-0.012480346062406897
1761412816720951800,10.070951904296875,0.03852291513979435,0.013835048606991767,-0.00984440806824714
1761412816730965000,10.080965087890625,0.030753450182080266,-0.01673822270259261,-0.02566884039416909
1761412816740977700,10.090977783203124,0.0197767136156559,0.009377630806714296,0.010289010030589997
1761412816750990800,10.100990966796875,0.04113748155236244,0.023322569528967142,-0.011562756293453276
1761412816761003800,10.111003662109376,0.018216624692082403,0.004099982664734125,-0.013981398275122046
1761412816771017000,10.121016845703124,0.03050678194463253,0.004453033886104822,-0.008004406224749981
1761412816781030000,10.13102978515625,0.03280044583976269,0.002550561265647411,-0.008681026844680308
1761412816791042800,10.141042724609376,0.04266659081578254,0.000966653075069189,0.01008475616276264
1761412816801056800,10.151056884765625,0.03037994069457054,0.005258505050092935,-0.015421477548219263
1761412816811069700,10.161069580078125,0.03908873232901096,-0.006103285311162472,-0.018095190269500017
1761412816821083000,10.171082763671874,0.03879121068716049,-0.021846067235618827,-0.003372727836109698
1761412816831095800,10.181095703125,0.02054302181303501,0.013244389237463473,-0.009802614753134549
1761412816841108700,10.191108642578126,0.038248189851641655,-0.0066916065931320184,-0.010220876697823405
1761412816851122000,10.201121826171875,0.03242167565524578,-0.030839374899864196,-0.021634726039879024
1761412816861134800,10.211134765625,0.028199089524149894,0.00670680416226387,-0.004802724106609821
1761412816871147800,10.221147705078126,0.027396540969610212,0.006235533388704061,-0.013118315172381698
1761412816881160700,10.23116064453125,0.027654899644851683,-0.012361322792619466,-0.004796696224622428
1761412816891174000,10.241173828125,0.013572013756632804,0.006155453889816999,0.0006989055169746279
1761412816901186800,10.251186767578124,0.02687514744400978,0.01205006488636136,-0.016850852764211593
1761412816911199700,10.26119970703125,0.0287783507168293,-0.013934563458710908,-0.001584602310322225
1761412816921213000,10.271212890625,0.025102292552590368,-0.00918269275650382,-0.01280245415624231
1761412816931225900,10.281225830078125,-0.009820552268624305,0.07215893502086401,-0.002932290592230856
1761412816941238800,10.29123876953125,0.03962941507697105,0.1353640176050365,-0.030920002388022838
1761412816951251700,10.301251708984376,0.17347265285551547,0.0017287234887480734,-0.06414579750038683
1761412816961265000,10.311264892578125,0.03304477598965168,-0.15208090525865553,0.06866323839221149
1761412816971277800,10.32127783203125,-0.09315583808124064,-0.09513575985208153,0.028718400690518318
1761412816981290800,10.331290771484374,-0.08026888397932053,-0.029248744707554578,-0.056956872376985844
1761412816991304000,10.341303955078125,-0.017129998499155044,-0.1055373268790543,0.046965091727301476
