time,seconds_elapsed,z,y,x
1761412826448633600,0.066633544921875,0.0035381109982728955,-0.00702639150545001,0.0063252574987709516
1761412826458646800,0.076646728515625,0.05489303518235683,0.006113660574704408,0.007878003366105259
1761412826468659700,0.08665966796875,0.08217676342725753,0.024128040692955256,0.02737511458909139
1761412826478672600,0.096672607421875,0.051346740877628326,0.01681114180833101,-0.006602832331135869
1761412826488685800,0.106685791015625,0.013395488145947456,0.003181552645564079,-0.0020381912967190143
1761412826498698800,0.11669873046875,0.008470306703448295,-0.019083032263070343,-0.0025317834999412296
1761412826508712000,0.1267119140625,0.00265606746673584,-0.00037321722656488416,-0.0022015103659592567
1761412826518724600,0.136724609375,0.03636369127929211,0.023526129277050493,0.021826248290296644
1761412826528737800,0.14673779296875,0.038136546170711515,0.03141089117750525,0.003604454232752323
1761412826538750700,0.156750732421875,0.03702361649274826,0.0035812194876372813,0.0072953263736329965
1761412826548763600,0.166763671875,0.016211130088567734,0.011685030966252088,0.015146459999121724
1761412826558776600,0.176776611328125,0.01281622695326805,0.003182867819815874,-0.007438041046261787
1761412826568789800,0.186789794921875,0.019627076011896134,-0.0006127250708639621,-0.013174812866281718
1761412826578803000,0.196802978515625,0.03631809857189655,0.014208558094501495,0.006122300538886338
1761412826588815600,0.206815673828125,0.04987199214994907,0.015816285552084444,0.005215981082618237
1761412826598828800,0.216828857421875,0.024333061745762823,-0.005748480524122714,-0.0044074411787092685
1761412826608841700,0.226841796875,0.02142448082268238,-0.00858794173374772,-0.004860445643216371
1761412826618854700,0.236854736328125,0.008490764969587325,0.004472030847519636,-0.002869436222780496
1761412826628867600,0.24686767578125,0.019131985971331596,-0.011915478721261023,-0.012129998254776
1761412826638880800,0.256880859375,0.022265023300051687,0.0014753332495689392,0.0010959785431623459
1761412826648894000,0.26689404296875,0.03125847709476948,0.013814298079907894,0.0012349303561262786
1761412826658906600,0.27690673828125,0.0287041164368391,0.005562018041312694,-0.006600530776195227
1761412826668919800,0.286919921875,0.03911737390160561,-0.0021032558895647526,0.01241157340882346
1761412826678932700,0.2969326171875,0.023126024043560026,0.004431114315241575,0.013009648899827152
1761412826688945700,0.306945556640625,0.019147183540463446,0.010717793369293212,0.0008352452477440237
1761412826698958600,0.31695849609375,0.039683775612711907,0.006596183394640684,0.0005334675558842718
1761412826708971800,0.3269716796875,0.041162031471729275,0.001957271547615528,-0.0011725874433293937
1761412826718985000,0.33698486328125,0.0335667540371418,-0.003681318861246109,-0.004869560531433672
1761412826728997600,0.34699755859375,0.036710897281765936,0.008991261837631463,0.012969353422056884
1761412826739010800,0.3570107421875,0.016390578308701515,0.00965220996439457,0.008241466383635997
1761412826749023700,0.367023681640625,0.01836450873017311,0.008511223235726355,0.005637074305210262
1761412826759036700,0.37703662109375,0.029099253234267233,0.008749415905773638,-0.005067731718346476
1761412826769049600,0.387049560546875,0.019301497319340704,0.007745937951654195,0.01169536969717592
1761412826779062800,0.397062744140625,0.01674012239873409,0.0015589198797941208,-0.000982544763945043
1761412826789075700,0.40707568359375,0.026496377259492873,0.015977613593637943,-0.00712846364043653
1761412826799088600,0.417088623046875,0.02924363014101982,0.0026062369756400584,0.0015278123554773627
1761412826809101800,0.427101806640625,0.020186463460326192,0.00935498058348894,-0.004753624267876148
1761412826819114800,0.43711474609375,0.027748423147201537,0.005465718059986829,-0.02059986656680703
1761412826829127700,0.447127685546875,0.033031916508078574,0.007898352034389973,-0.004051266418490559
1761412826839140600,0.457140625,0.045479894670844075,0.022130144874006507,0.0024887663421221074
1761412826849153800,0.46715380859375,0.032197219249606134,0.004533844037353992,0.01844530061511323
1761412826859166700,0.477166748046875,0.02456628597974777,-0.006833499281853437,0.0034207499626092612
1761412826869179600,0.4871796875,0.024077041158080098,0.0028325930774211884,0.0031634142006747423
1761412826879192800,0.49719287109375,0.02508008072078228,0.03448459953442216,0.014513422792591154
1761412826889205800,0.507205810546875,0.03449789740741253,0.02135872211009264,0.009981204456742852
1761412826899218700,0.51721875,0.03176993374824524,-0.008911766860634088,0.016947116212919354
1761412826909231600,0.527231689453125,0.024171149182319638,-0.023870704931020736,0.003101053021568805
1761412826919244800,0.537244873046875,0.03474631921052933,-0.009599456863850355,-0.006821808844059705
1761412826929257700,0.5472578125,0.0326473011046648,-0.002781447412073612,-0.0062342730133794245
1761412826939270700,0.557270751953125,0.012968787166476248,0.001329202777147293,-0.006302716873399913
1761412826949283800,0.567283935546875,0.038275077858567236,0.008727496334910392,0.004968162067700177
1761412826959296800,0.577296875,0.04246609980762005,0.008071955035626887,0.004914057260286063
1761412826969309700,0.587309814453125,0.017415245181322096,0.006983721407502889,0.004775963963847607
1761412826979322600,0.597322509765625,0.009393851289153099,0.006499006630480289,0.010418810422718524
1761412826989335800,0.607335693359375,0.029759762969613072,0.001948942110687494,0.01693743506912142
1761412826999348700,0.6173486328125,0.04810790508687496,-0.005815408280491829,0.00796314263259992
1761412827009361700,0.627361572265625,0.022470190483331678,0.009575637596845626,0.004860920567251742
1761412827019374800,0.637374755859375,0.0253448691368103,-0.0022328736186027526,-0.0016295739632099866
1761412827029387800,0.6473876953125,0.012931377765536307,0.016419512142241,0.011668810483813285
1761412827039400700,0.657400634765625,0.010274141255021095,0.012043635145574808,0.005377637917734682
1761412827049413600,0.66741357421875,0.02647650351524353,0.00867401258200407,0.019789883624482897
1761412827059426800,0.6774267578125,0.014531798699498175,0.005080079743266105,-0.0036892099067568776
1761412827069439700,0.687439697265625,0.028545126482844352,0.017120500018447636,0.004681180086173117
1761412827079452700,0.69745263671875,0.038763153636455536,0.002092296104133129,0.012422752389963716
1761412827089465600,0.707465576171875,0.011247370201349258,-0.007886807727068661,-0.010113580398447812
1761412827099478800,0.717478759765625,0.03114332628250122,-0.0014129355378448962,-0.005564904118143022
1761412827109491700,0.72749169921875,0.02866144633889198,-0.004896832130849361,-0.008727313671819866
1761412827119504600,0.737504638671875,0.02839256626963615,-0.002077098535001278,-0.006912409736961126
1761412827129517800,0.747517822265625,0.02104804872572422,0.0025748189240694043,0.011360657850094139
1761412827139530800,0.75753076171875,0.02733516617119312,0.015122896460443734,-0.0005499802992679179
1761412827149543700,0.767543701171875,0.012273206117749213,0.003308686156570911,-0.007944949388783425
1761412827159556600,0.777556640625,0.02857961327433586,0.009730389767140149,0.0026801241957582532
1761412827169569800,0.78756982421875,0.030054946523904797,0.0037245734810829162,0.013034765074774622
1761412827179582700,0.797582763671875,0.03648351826667785,-0.003264993145316839,0.015096720839571207
1761412827189595600,0.807595703125,0.03691372637748718,0.008814882357418537,-0.0030717538618482646
1761412827199608800,0.81760888671875,0.032706337815523144,0.01265738312974572,-0.013000570544227957
1761412827209621800,0.827621826171875,0.02146364378929138,0.019319179106503725,-0.00692830142583698
1761412827219634700,0.837634765625,0.02959785040616989,0.017828794418275354,-0.010655322592332959
1761412827229647600,0.847647705078125,0.03183072402477264,0.019687720157951116,0.007471760652773082
1761412827239660800,0.857660888671875,0.024368717581033705,0.017780132970958946,0.0169950287415646
1761412827249673700,0.867673828125,0.022414076381921767,0.015722031397372483,0.012831369723472744
1761412827259686700,0.877686767578125,0.02119476372003555,0.01579524276405573,0.008126571299694478
1761412827269699800,0.887699951171875,0.023870704931020736,0.008106149566173552,0.0114326271077618
1761412827279712800,0.897712646484375,0.028229484662413595,-0.0003439911320805549,0.005688621829356998
1761412827289725700,0.9077255859375,0.02530745973587036,0.022941899648308752,0.003843651549797505
1761412827299738600,0.917738525390625,0.032848376634716986,0.012318360433727502,0.00015665186643600462
1761412827309751800,0.927751708984375,0.028258126235008237,-0.004712269344180822,-0.0034457382733933625
1761412827319764700,0.9377646484375,0.029636428850889206,0.00423179235085845,0.002062321090977639
1761412827329777700,0.947777587890625,0.020377602118253707,0.015643997725099324,0.003284921688493341
1761412827339790800,0.957790771484375,0.015183540606498718,0.007330489018559455,0.010394059573952109
1761412827349803800,0.9678037109375,0.035841713231801985,0.012668050654232502,0.003917136911116541
1761412827359816700,0.977816650390625,0.025051439148187638,0.003927110315859317,-0.0008484883218072355
1761412827369829600,0.98782958984375,0.018517653465270994,0.002606821497529745,0.013400164321064948
1761412827379842800,0.9978427734375,0.02647591899335384,-0.003667144205421209,-0.006601608488429337
1761412827389855700,1.007855712890625,0.02468786653280258,0.009172609753906727,-0.0018821787510998546
1761412827399868700,1.01786865234375,0.024682021313905716,0.02026405874118209,-0.006625446021743119
1761412827409881900,1.0278818359375,0.019621815314888953,0.01578749784901738,-0.009581026158016174
1761412827419894800,1.037894775390625,0.016789222237467764,0.0026999066084623337,-0.0010028386333025992
1761412827429907700,1.04790771484375,0.027386019575595853,0.00433569111675024,0.021845994170382618
1761412827439920600,1.057920654296875,0.023368016105890274,0.014103782545775174,-0.0014194018112495541
1761412827449933800,1.067933837890625,0.027870003700256347,0.009360095150023699,-0.01523432094566524
1761412827459946800,1.07794677734375,0.03845160346925258,0.0031404899828135963,-0.00032132264254614706
1761412827469959700,1.087959716796875,0.030681553989648818,0.001589315018057823,0.008226944667939096
1761412827479972900,1.097972900390625,0.027391280272603034,-0.005602788443118334,-0.007644578202720731
1761412827489985800,1.10798583984375,0.027690555480122565,-0.0060385495118796826,-0.013200531829427927
1761412827499998700,1.117998779296875,0.02067161662876606,-0.008638941268622875,0.004591949166450649
1761412827510011600,1.12801171875,0.01990647747516632,0.003554916002601385,-0.019328476657811552
1761412827520024800,1.13802490234375,0.018445172750949857,0.008922288254648447,0.0021866963893175124
1761412827530037800,1.148037841796875,0.02490706224143505,-0.007804682401567697,-0.0070235054286196825
1761412827540050700,1.15805078125,0.037488895916938776,0.015017390259355307,0.012944876567926257
1761412827550063900,1.16806396484375,0.03377309026420116,0.016979337982088328,-0.0025025939380750057
1761412827560076800,1.178076904296875,0.02716390125751495,0.007094342175126075,0.010008823116030543
1761412827570089700,1.18808984375,0.017244564789533613,0.013172493045032024,0.005528225369565189
1761412827580102700,1.1981025390625,0.017047580912709234,0.01938727590665221,0.017951525748800486
1761412827590115800,1.20811572265625,0.03286825037896633,0.0326209976196289,0.016805333122052252
1761412827600128800,1.218128662109375,0.021057401075959204,0.014002367997914551,0.006843216958269477
1761412827610141700,1.2281416015625,0.01895136870741844,-0.0001553366921842098,0.01252411213889718
1761412827620155100,1.238155029296875,0.024634090518951414,-0.005841419504582881,-0.0012564115355722606
1761412827630168000,1.24816796875,0.04322773182988167,0.0012820026345551014,-0.010000895537901669
1761412827640181000,1.258180908203125,0.029471593677997586,-0.0035679216146469114,0.009549151448719203
1761412827650194000,1.26819384765625,0.019019173246622084,0.010833820964396,0.0005641184224747121
1761412827660207000,1.27820703125,0.018146482065320015,0.013381605751067399,-0.005236329750902951
1761412827670219800,1.2882197265625,0.03196808666884899,-0.0005381985299289226,-0.015715912183839827
1761412827680233000,1.29823291015625,0.02477203768491745,-0.004668868593871593,-0.005927837412711232
1761412827690246000,1.308245849609375,0.028200843089818954,-0.0005782382793724537,0.0051547158820554615
1761412827700259000,1.318259033203125,0.019215572601556777,0.0024527999795973298,0.002479687986522913
1761412827710272000,1.32827197265625,0.022200725892186163,-0.0013772797025740145,0.005803955304715782
1761412827720285000,1.338284912109375,0.03744330320954323,0.016691022560000417,-0.014797098572179675
1761412827730298000,1.348298095703125,0.024238953721523283,0.002655775205790996,-0.007380666569527238
1761412827740310800,1.358310791015625,0.01092003794312477,0.0016151801116764545,-0.019504362947680053
1761412827750324000,1.368323974609375,0.024200959798693654,0.009439736257493496,-0.016029435112420467
1761412827760337000,1.3783369140625,0.02014087075293064,0.007755582562834024,0.0013940481742843985
1761412827770350000,1.38835009765625,0.025091186636686323,0.01590016444325447,-0.001201941401977092
1761412827780363000,1.398363037109375,0.0193757315993309,0.01678089280053973,-0.023813166057504713
1761412827790376000,1.4083759765625,0.020415596041083336,-0.0030981121458113193,-0.009864902867004274
1761412827800389000,1.41838916015625,0.02869944026172161,-0.011600713683664799,-0.006383746220357716
1761412827810401800,1.42840185546875,0.024830489873886107,0.00430193497762084,0.006814264858420938
1761412827820415000,1.4384150390625,0.024517186141014096,0.01036152727752924,0.011020776637550442
1761412827830428000,1.448427978515625,0.03874035728275776,0.00044452889710664746,0.0027835845702327785
1761412827840441000,1.458441162109375,0.032466683840751645,0.004575052830576897,0.002623516904003918
1761412827850454000,1.4684541015625,0.024714754539728163,0.005620177969336509,-0.005633000918291509
1761412827860467000,1.478467041015625,0.02893558710515499,0.006978606840968132,-0.008405991029273719
1761412827870480100,1.488480224609375,0.023097382470965384,0.007605068176239728,0.003239365513715893
1761412827880492800,1.498492919921875,0.021757073777914047,0.018794862971454857,0.005951200021989643
1761412827890506000,1.508506103515625,0.024622400081157684,0.002518850953131914,-0.012482136160694062
1761412827900519000,1.518518798828125,0.01220364801287651,-0.0034840427234768866,-0.011080872794333846
1761412827910532000,1.528531982421875,0.04106032466292381,0.001427110193669796,0.00165828860104084
1761412827920544800,1.538544677734375,0.03433481580018997,0.004818798458576202,0.00893595145381987
1761412827930558000,1.548557861328125,0.025257190853357314,-0.005321341153234243,-0.012359605759568511
1761412827940571100,1.558571044921875,0.023497195443511008,0.0006463350795209408,0.003530402615852654
1761412827950583800,1.568583740234375,0.034621231526136394,0.00037160979136824607,0.01151221341630444
1761412827960597000,1.578596923828125,0.02235679323673248,0.004652648111432791,-0.0073106883395463226
1761412827970610000,1.58860986328125,0.01830605654120445,0.0012654898911714553,-0.0004131291118450463
1761412827980623000,1.598623046875,0.0230880301207304,-0.006028904900699854,0.0005274396738968789
1761412827990635800,1.6086357421875,0.03161211283802986,0.005369125817716121,0.004543561713770032
1761412828000649000,1.61864892578125,0.029661563292145726,-0.0064244800895452495,0.01666369616165757
1761412828010662100,1.628662109375,0.027247487887740132,-0.0016875146955251693,0.0028633170092478392
1761412828020674800,1.6386748046875,0.029316110855340957,0.0002288403198122978,-0.0027989282698370516
1761412828030688000,1.64868798828125,0.01972293760180473,0.006890636296570301,-0.005417129677906632
1761412828040701000,1.658700927734375,0.025840543699264525,0.0060804889574646945,0.018951880164071917
1761412828050714000,1.668714111328125,0.02730827816426754,0.0005300152234733104,0.004931282389722764
1761412828060726800,1.678726806640625,0.01680032815337181,0.008326514318585396,-0.024472561547998338
1761412828070740000,1.688739990234375,0.02008767926096916,0.011944412554800509,0.011296579637937247
1761412828080753200,1.698753173828125,0.04220072686970234,0.002236088488996029,0.01696382988570258
1761412828090766000,1.70876611328125,0.03574994329512119,-0.0035107845999300478,-0.001576035411376506
1761412828100779000,1.718779052734375,0.034086978518962856,0.015447452239692211,-0.015056662823818623
1761412828110792000,1.7287919921875,0.020593875217437742,-0.0013400164321064948,-0.0003230214092880487
1761412828120805000,1.73880517578125,0.032687633115053176,0.017638386412709952,0.013898286568932234
1761412828130817800,1.74881787109375,0.029071780705451963,-0.0006485270366072655,-0.014317498361691832
1761412828140831000,1.7588310546875,0.026694530180096626,-0.000870060832798481,0.006642287558689713
1761412828150844200,1.76884423828125,0.022975801917910574,0.002311491812765598,-0.0045501010524109
1761412828160857000,1.778857177734375,0.031682839986681935,-0.002625818458944559,0.005300334897823632
1761412828170870000,1.7888701171875,0.027182021436095237,-0.007488309928774833,-0.011637556829024105
1761412828180883000,1.798883056640625,0.038564416193962094,-0.008413461949676274,0.000678100190963596
1761412828190896000,1.808896240234375,0.023893501284718514,0.009586305121332406,-0.00565596166877076
1761412828200908800,1.81890869140625,0.03931611134409904,0.013273323071002959,-0.0014995726416818797
1761412828210922000,1.828921875,0.03515373096764087,0.012979746951907872,-0.011989840865414589
1761412828220935000,1.838934814453125,0.010457681128382683,0.006413666434586048,-0.0070121437843888995
1761412828230948000,1.848947998046875,0.021835984233021737,-0.0007968494661152362,-0.0045941411235369736
1761412828240961000,1.8589609375,0.010734744504094123,0.01758928657397628,-0.0014260324814356863
1761412828250974000,1.868973876953125,0.020872107636928556,0.0017744623266160487,0.002319711651839316
1761412828260987100,1.878987060546875,0.02609597976505756,0.016195932519435883,-0.002135386327188462
1761412828270999800,1.888999755859375,0.02533493226468563,0.01806640256643295,0.005863284276518971
1761412828281013000,1.899012939453125,0.03234627233147621,0.004270224665105343,-0.004098630957864224
1761412828291026000,1.90902587890625,0.03372457494735718,-0.008155980057269334,0.001799468903709203
1761412828301039000,1.9190390625,0.025967384949326513,-0.004703647646307945,-0.018811174785438926
1761412828311052000,1.929052001953125,0.02509820089936256,-0.0060381111204624175,-0.004070299912523478
1761412828321065000,1.93906494140625,0.01988601920902729,-0.005549889212101698,0.000887870484124869
1761412828331078100,1.949078125,0.03231996884644031,-0.00817950706332922,0.002891410592570901
1761412828341090800,1.9590908203125,0.02710778715610504,-0.011570610806345938,0.0028639197974465787
1761412828351104000,1.96910400390625,0.031016485032439232,0.007497662279009818,-0.014730791870318352
1761412828361117000,1.979116943359375,0.031176059508323667,0.00656213499456644,-0.004576989059336483
1761412828371130000,1.989130126953125,0.04032791873514652,0.00913826909288764,0.002053060072287917
1761412828381143000,1.99914306640625,0.02420037527680397,0.0068881520785391325,0.006422434262931346
1761412828391156000,2.009156005859375,0.011673486658930778,0.0011262275509536265,-0.000226283036544919
1761412828401169200,2.019169189453125,0.027860066828131674,0.004278700232505798,-0.0002694097922183573
1761412828411181800,2.029181884765625,0.01649403868317604,0.0010934943251311778,0.0042861894192174075
1761412828421195000,2.039195068359375,0.01303542266190052,0.00642535687237978,0.010185330460406839
1761412828431208000,2.0492080078125,0.017844868770241735,0.011429741030931473,0.008763846289925277
1761412828441221000,2.05922119140625,0.023706454280018805,0.015189678086340426,-0.008728117389418184
1761412828451233800,2.06923388671875,0.034033202505111694,-0.016547668566554784,-0.004727941837348044
1761412828461247000,2.0792470703125,0.02278641682565212,0.0022642916701734067,0.0006531301464885472
1761412828471260200,2.08926025390625,0.025312135910987854,0.014478314946591853,-0.011612166659440844
1761412828481272800,2.09927294921875,0.013474398601055145,0.009301204569637775,0.0076334905531257385
1761412828491286000,2.1092861328125,0.012853636354207991,-0.0015093816496431827,-0.01574733023541048
1761412828501299000,2.119298828125,0.023310732960700988,0.0039547289751470085,-0.002541903035156429
1761412828511312100,2.12931201171875,0.027524551263451574,0.0011275427252054214,0.01385903227077797
1761412828521324800,2.13932470703125,0.020371172377467155,0.007709405333548784,0.01713631864208728
1761412828531338000,2.149337890625,0.023795886129140853,-0.0014789865113794803,0.0054771345031447705
1761412828541351200,2.15935107421875,0.028583704927563666,0.003596709317713976,0.013581219976395368
1761412828551363800,2.16936376953125,0.029666823989152907,0.011651713218539953,-0.0018986549618653951
1761412828561377000,2.179376953125,0.02940612722635269,0.007115531093627214,-0.00036687881732359526
1761412828571390000,2.189389892578125,0.03855857097506523,0.001022036524116993,0.0156610401914455
1761412828581403100,2.199403076171875,0.022111878564953804,-0.006070405954867601,0.012747107239812611
1761412828591415800,2.209415771484375,0.0209486800044775,0.000030979660153388974,0.007910206868965179
1761412828601429000,2.219428955078125,0.017072130832076073,-0.0009304127179086208,0.0049726738460361955
1761412828611442200,2.229442138671875,0.028895839616656302,-0.005294307015836238,0.010262596947699784
1761412828621454600,2.23945458984375,0.02861877624094486,0.001602612891048193,-0.006392952440120279
1761412828631467800,2.2494677734375,0.01679857458770275,-0.006333002413809299,0.0009510536471381783
1761412828641480700,2.259480712890625,0.02686813318133354,0.012898498409241437,0.004465802036132663
1761412828651494000,2.269493896484375,0.019857377636432645,-0.004419131616503,0.007496785496175289
1761412828661506600,2.279506591796875,0.034951486393809315,-0.004172024987637996,-0.005380980652291327
1761412828671519700,2.289519775390625,0.024050737673044203,0.011429448769986628,-0.0018659217360429464
1761412828681532700,2.29953271484375,0.03315057445168495,0.007536679115146398,-0.004698423481918871
1761412828691545600,2.309545654296875,0.04672843342721462,-0.00033624621704220767,-0.016782956893462687
1761412828701558800,2.319558837890625,0.014402619361877441,0.008674304842948913,0.0038161059557460246
1761412828711571700,2.32957177734375,0.026060908451676367,0.009185907626897097,0.0009050225483253597
1761412828721585000,2.3395849609375,0.027726795837283134,0.008789894046634435,0.008128507528454065
1761412828731597600,2.34959765625,0.013947861331701278,-0.013736264407634735,0.021359525827690958
1761412828741610800,2.35961083984375,0.021299977660179138,-0.007847498629987239,-0.0014985131957568228
1761412828751623700,2.369623779296875,0.03060088996887207,-0.00662161009684205,-0.010756700607575475
1761412828761636600,2.37963671875,0.031086043137311933,-0.0055905134834349154,0.009330686392448842
1761412828771649800,2.38964990234375,0.020327917757630348,0.0030257775619626044,-0.005754435340873896
1761412828781662700,2.399662841796875,0.022763035950064656,0.015392799443006514,0.0031601262650452554
1761412828791676000,2.409676025390625,0.01726560757756233,-0.0038156127654016014,0.004497055690921843
1761412828801688600,2.4196884765625,0.024485037437081334,0.0036121991477906703,-0.02106026888648048
1761412828811701800,2.42970166015625,0.041565936097502705,0.010521247883886099,0.011941964869387447
1761412828821714700,2.439714599609375,0.02901215947270393,0.02436754853725433,0.0036545039195567367
1761412828831727600,2.4497275390625,0.021080781951546668,0.01311973994448781,0.0019340368025004863
1761412828841740800,2.45974072265625,0.040491584864258766,0.018555647388100623,0.0008567446934990584
1761412828851753700,2.469753662109375,0.03013502602279186,0.017370529256761073,0.009512381368596107
1761412828861767000,2.479766845703125,0.03714344348013401,0.016756342881172896,-0.004953896080330014
1761412828871779600,2.489779541015625,0.016467150676250458,0.0044866438947618005,0.004600716994795948
1761412828881792800,2.499792724609375,0.024374562799930572,0.019422201089560984,0.010292316232528537
1761412828891805700,2.5098056640625,0.024231939458847045,0.01576952380090952,0.0027430881630629298
1761412828901819000,2.51981884765625,0.019470424145460127,0.010238485419750212,-0.005836999057792127
1761412828911831600,2.52983154296875,0.03488368185460567,-0.01565422685816884,-0.007485442118253558
1761412828921844700,2.5398447265625,0.026216391274333,0.0001641045205295086,0.013740447392407804
1761412828931858000,2.54985791015625,0.02173544646799564,-0.008120470352470875,-0.006105732996575534
1761412828941870600,2.55987060546875,0.020391046121716497,-0.0006646013885736465,-0.004267338588275015
1761412828951883800,2.5698837890625,0.02517711135447025,-0.008714198461920022,0.002933477902319282
1761412828961896700,2.579896728515625,0.02622983527779579,-0.013060557103157042,-0.003640639790985733
1761412828971910000,2.589909912109375,0.01935702689886093,-0.00038709962144494055,-0.0038705578230321404
1761412828981922600,2.599922607421875,0.025352467921376225,0.00031871056035161015,0.00787241387553513
1761412828991935700,2.609935791015625,0.042843116426467896,-0.0037694355361163616,0.003663490943610668
1761412829001949000,2.619948974609375,0.022520459365844726,0.007753682866692543,-0.0021983137618750335
1761412829011961600,2.629961669921875,0.03137479695081711,-0.0007690846763551234,-0.0075134261037223034
1761412829021974800,2.639974853515625,0.03091711631119251,-0.0020503566585481164,-0.010784465397335588
1761412829031987700,2.64998779296875,0.016233341920375823,-0.00886485897898674,-0.016747227992955593
1761412829042001000,2.6600009765625,0.0265431390106678,-0.0008722527898848056,0.004380900231655687
1761412829052013600,2.670013671875,0.0208703540712595,0.01075666407495737,-0.007082396009005606
1761412829062026800,2.68002685546875,0.02296761861145496,-0.00196633163690567,-0.0021990078816190362
1761412829072040000,2.6900400390625,0.021136311531066893,0.01601560751646757,0.016546974446810782
1761412829082052600,2.700052490234375,0.024115035080909727,0.0101094522126019,0.007327328947093337
1761412829092065800,2.710065673828125,0.029813538983464238,0.005713263080269098,-0.011464848876930772
1761412829102078700,2.72007861328125,0.032063363736867904,-0.0014912614710628986,-0.019050828760210425
1761412829112092000,2.730091796875,0.03132452806830406,-0.004520838425308466,-0.006691752723604441
1761412829122104600,2.7401044921875,0.03656242872178554,0.01207680676281452,-0.017981829555518924
1761412829132117800,2.75011767578125,0.02088029094338417,0.010742197158187626,0.010455854497477412
1761412829142130700,2.760130615234375,0.018507132071256635,0.003181698776036501,0.010710815639235078
1761412829152143600,2.7701435546875,0.024077041158080098,0.015888912396878004,0.013815905515104532
1761412829162156800,2.78015673828125,0.019036124381422995,0.0029106267496943473,-0.0015924568232148885
1761412829172169700,2.790169677734375,0.02206803942322731,0.0033010873720049857,-0.0043332799639552826
1761412829182183000,2.800182861328125,0.028267478585243224,0.0019327216282486914,-0.0021251571941189465
1761412829192195600,2.810195556640625,0.013334697869420051,-0.002254062537103891,0.005634316092543303
1761412829202208800,2.820208740234375,0.01231821430325508,-0.014684066651761531,-0.008868987164832651
1761412829212221700,2.8302216796875,0.027765374282002448,-0.0010974398478865624,0.009530793808121234
1761412829222234600,2.840234619140625,0.01764905393719673,0.005314911412447691,0.008219893872644752
1761412829232247800,2.850247802734375,0.029826398465037342,-0.000962123030424118,-0.002079308758396655
1761412829242260700,2.8602607421875,0.026896190232038496,0.009056874419748782,0.008108542452659457
1761412829252274000,2.87027392578125,0.018096797704696653,-0.002622165197134018,0.013900058400910346
1761412829262286600,2.88028662109375,0.021276596784591675,0.008398264380544423,-0.0024759433931671082
1761412829272299800,2.8902998046875,0.025361235749721527,0.00758037212640047,0.004491173939406872
1761412829282312700,2.900312744140625,0.02809153749644756,0.010695143146067856,0.012568828063458203
1761412829292325600,2.91032568359375,0.026754151412844655,-0.007463321617990732,0.013125165038276463
1761412829302338800,2.9203388671875,0.015080664753913878,0.000163519998639822,0.009876976897288113
1761412829312351700,2.930351806640625,0.024498481440544128,0.0020132395185530187,0.009160864517185837
1761412829322365000,2.940364990234375,0.022703999239206313,0.0009460486784577369,0.01008298433078453
1761412829332377600,2.950377685546875,0.031986206847429276,0.004200666560232639,0.0029593977948650717
1761412829342390800,2.960390869140625,0.019580314260721206,0.004577829309552908,-0.001677230763528496
1761412829352403700,2.97040380859375,0.010170096358656882,-0.002250847666710615,0.0004988894328474998
1761412829362416600,2.980416748046875,0.02886369091272354,0.00752352737262845,-0.004069971118960529
1761412829372429800,2.990429931640625,0.011188918012380599,0.018080284961313007,-0.0019082630404271184
1761412829382442800,3.00044287109375,0.03664133917689323,0.0037850714966654775,-0.017216215477883816
1761412829392456000,3.0104560546875,0.03933247795701027,0.007676525977253913,-0.012232125188689678
1761412829402468600,3.020468505859375,0.0374228449434042,0.004197597820311785,0.010791625790484248
1761412829412481800,3.030481689453125,0.03252572055160999,-0.0010873568452894687,0.00942667584652081
1761412829422494700,3.04049462890625,0.024490298134088515,-0.019730974777787923,-0.0070631067866459485
1761412829432507600,3.050507568359375,0.03814239138960838,0.006268558875471353,0.0023241503649391233
1761412829442520600,3.0605205078125,0.021838906842470168,0.008802607397735118,0.011396953006181865
1761412829452533800,3.07053369140625,0.029180501776933668,0.003987169940024614,0.0009599858722649515
1761412829462547000,3.080546875,0.030550036564469335,0.00775616708472371,0.005575936968810856
1761412829472559600,3.0905595703125,0.011420388680696487,0.003898468743264675,0.017911887858156113
1761412829482572800,3.10057275390625,0.02668517782986164,-0.0025277649119496344,0.0018820508869364858
1761412829492585700,3.110585693359375,0.03423135542571545,-0.0009175532363355159,-0.006186196087952703
1761412829502598700,3.1205986328125,0.02809679819345474,-0.002280512152612209,-0.013174191811773926
1761412829512611600,3.130611572265625,0.019575638085603714,0.006647767451405525,0.003968976696208119
1761412829522624800,3.140624755859375,0.030957448321580885,-0.00895633665472269,0.005369472877588123
1761412829532638000,3.150637939453125,0.022590017470717427,0.012381050406396388,0.015264076763112098
1761412829542650600,3.160650634765625,0.023328268617391585,0.008982640139758587,-0.006348894102685153
1761412829552663800,3.170663818359375,0.020316227319836615,0.002035451350361109,-0.012625161360576748
1761412829562676700,3.1806767578125,0.025940496942400932,0.011310498565435409,0.013062328935135155
1761412829572689700,3.190689697265625,0.03131283763051033,-0.0031308453716337678,0.030978911234717816
1761412829582702600,3.20070263671875,0.026655367213487623,-0.011964140168577431,-0.0010655651385895906
1761412829592715800,3.2107158203125,0.01750000085532665,0.00644230800718069,-0.015518234187271445
1761412829602729000,3.22072900390625,0.027045827835798262,0.0030927053183317185,-0.009228705589007586
1761412829612741600,3.23074169921875,0.02566343356668949,0.005939034660160541,0.021599289400316773
1761412829622754300,3.24075439453125,0.0391524452149868,-0.008053396465629338,0.020890246081817894
1761412829632767200,3.250767333984375,0.02765723773241043,-0.007567804905772209,0.012564937339629977
1761412829642780400,3.260780517578125,0.03186053464114666,-0.010799041911959647,0.017350217121094465
1761412829652793000,3.27079296875,0.02212415352463722,-0.0037536534450948234,-0.009315342692844569
1761412829662806300,3.28080615234375,0.025537176838517188,0.0016341770730912684,0.007593998792953789
1761412829672819200,3.290819091796875,0.03378127357065677,-0.009198182586580514,0.017016053263284266
1761412829682832100,3.30083203125,0.02138297976851463,-0.008663198927044868,-0.009822031839657575
1761412829692845300,3.31084521484375,0.027364976787567136,0.009002075492590664,-0.012437712497077882
1761412829702858200,3.320858154296875,0.02086976954936981,0.006739391257613897,-0.004061623415723443
1761412829712871400,3.330871337890625,0.023237083202600477,0.005378624298423528,0.0029240159542299805
1761412829722884000,3.340884033203125,0.04223638270497322,0.0007711305029690265,0.0046337607478722925
1761412829732897300,3.350897216796875,0.03685585871040821,-0.005249298830330372,-0.008236132621392608
1761412829742910200,3.36091015625,0.022369652718305585,-0.0018229776434600352,-0.012411774338223039
1761412829752923100,3.370923095703125,0.01712707588970661,-0.01005173067599535,0.0003571976735256612
1761412829762936000,3.38093603515625,0.014164134430885314,0.012870002967119216,-0.003704608405288309
1761412829772949200,3.39094921875,0.019270517659187317,0.0020214228250086306,-0.0006501527381129563
1761412829782962400,3.40096240234375,0.01674187596440315,-0.011539192754775286,0.007594565048534422
1761412829792975000,3.41097509765625,0.025181787529587746,0.010417787509411573,-0.0006842559371143579
1761412829802988300,3.42098828125,0.029275778844952582,-0.0040779169633984565,0.0031820093032903967
1761412829813001200,3.431001220703125,0.036002456751465794,-0.013635872773081063,0.013384437028970568
1761412829823014100,3.44101416015625,0.02748772638440132,-0.003508592642843723,0.01270712228929624
1761412829833027000,3.451027099609375,0.039190439137816425,0.020756810694187878,-0.002985628214664757
1761412829843040300,3.461040283203125,0.021841244930028914,0.005727583866566419,0.0022282339761033653
1761412829853053400,3.471053466796875,0.029459903240203856,0.001430763455480337,-0.007264127517770976
1761412829863066000,3.481066162109375,0.03426058152019977,0.0016784546062350273,-0.002829506071191281
1761412829873079300,3.491079345703125,0.027412323060631752,0.0012013386137783527,0.004871003569848835
1761412829883092200,3.50109228515625,0.02006546742916107,0.014299012856930493,0.0011508870681747794
1761412829893105200,3.511105224609375,0.01286766487956047,0.0025664894871413706,0.0031795068189501762
1761412829903118000,3.5211181640625,0.026325112345814704,-0.008004881148785352,0.006637300856318324
1761412829913130200,3.531130126953125,0.03666998074948787,-0.00825944043174386,0.022766524815093725
1761412829923144400,3.54114453125,0.04146247572302818,0.00847249866053462,0.011632844121288507
1761412829933157000,3.5511572265625,0.018969488885998725,0.009920067120343446,0.02021430131532252
1761412829943170300,3.56117041015625,0.04003974944353103,0.014898440054804086,-0.005328391948528587
1761412829953183200,3.571183349609375,0.012933131331205367,0.011570172414928675,0.002574234402179718
1761412829963196200,3.581196044921875,0.00943126069009304,0.0033358664244413374,-0.012244089621119201
1761412829973209000,3.591208984375,0.013712883532047271,0.0075436933778226375,-0.03903097425978631
1761412829983222300,3.60122216796875,0.02893324901759624,0.009118249218165874,-0.006053692282084375
1761412829993235200,3.611235107421875,0.033519407764077185,0.006077127956598997,-0.013141038460843264
1761412830003248000,3.621248046875,0.028977672681212423,0.014125263725221156,-0.014543617001455277
1761412830013261300,3.63126123046875,0.015188801303505896,0.01454100491926074,0.013594444784149527
1761412830023274200,3.641274169921875,0.034031448939442634,0.007022007591277361,-0.011257069611456245
1761412830033286400,3.651286376953125,0.021913141122460365,-0.012132336342334746,-0.01474785260297358
1761412830043300000,3.661300048828125,0.01162497134208679,0.00816007171049714,-0.009796093680802732
1761412830053313300,3.671313232421875,0.00699088180065155,0.0008219839073717594,-0.008594499338697641
1761412830063326200,3.681326171875,0.012094342419505119,-0.005657002848386764,-0.009469528607558458
1761412830073338400,3.69133837890625,0.037416415202617646,-0.0013413316063582896,-0.008416421091742813
1761412830083351000,3.70135107421875,0.020538345637917517,-0.0040498599126935,-0.0003806333480402827
1761412830093364200,3.7113642578125,0.01698152993917465,0.007886077074706553,0.0012412687653675675
1761412830103377400,3.72137744140625,0.0195674547791481,-0.021801351311057805,0.007602839686535298
1761412830113390000,3.73139013671875,0.027256255716085434,-0.0037090836510062218,0.009867953340616076
1761412830123403300,3.7414033203125,0.01905249099433422,-0.0020630700096487997,0.0329511063568294
1761412830133416200,3.751416259765625,0.014127894073724745,-0.013350333829969167,0.02460577773991972
1761412830143429400,3.761429443359375,0.03407937973439693,-0.001909779144078493,0.02290043512675911
1761412830153442000,3.771442138671875,0.03141337539553642,0.005422317309677601,0.017020966900419442
1761412830163455200,3.781455322265625,0.02737316009402275,0.009894786548614502,0.0017591916922479866
1761412830173468200,3.79146826171875,0.013154665127396582,0.015432693061977623,-0.0062852542819455265
1761412830183481300,3.8014814453125,0.021536709025502202,0.015392653312534093,-0.004121774371434003
1761412830193494300,3.811494384765625,0.03456745551228523,0.019956015705317257,0.02106081687575206
1761412830203507200,3.821507080078125,0.03216156341433525,0.012664981914311646,0.0071415788503363725
1761412830213520400,3.831520263671875,0.030038579910993575,0.01236789866387844,0.0037136136956512924
1761412830223533000,3.841532958984375,0.020552374163269996,0.007109685874730348,0.0196386751181446
1761412830233546200,3.851546142578125,0.030954525712132454,0.004165887507796288,-0.007251615096069872
1761412830243559200,3.86155908203125,0.03269932355284691,0.0027928455889225006,0.0161707432792522
1761412830253572400,3.871572265625,0.02908230209946632,0.01177227085828781,0.009587163637857884
1761412830263585300,3.881585205078125,0.010660510224103926,0.004692395599931478,-0.0004584295582957566
1761412830273598200,3.89159814453125,0.011249123767018317,0.00789016872793436,-0.023895711508113888
1761412830283611400,3.901611328125,0.025415011763572692,0.01099105735272169,-0.032898408055212346
1761412830293624000,3.9116240234375,0.031330373287200924,0.0035382571287453173,-0.004622837495058775
1761412830303637200,3.92163720703125,0.025759879678487776,-0.0031738077305257318,-0.0024035357440821826
1761412830313650200,3.931650146484375,0.034712416940927505,0.011826046872138977,-0.013800817543826997
1761412830323663400,3.941663330078125,0.033517654198408124,-0.0016195640258491039,0.0025100831247866153
1761412830333676300,3.95167626953125,0.014985972207784653,-0.0029416064098477363,-0.00022219138331711292
1761412830343689200,3.961689208984375,0.007358546069264412,-0.011038549756258726,-0.01004552013091743
1761412830353702400,3.971702392578125,0.03207622321844101,0.015300591114908457,0.0027984350794926284
1761412830363715000,3.981715087890625,0.0376624989181757,-0.010378916803747414,0.01623438309999183
1761412830373728300,3.991728271484375,0.025896657800674436,-0.014539543614536523,0.0107342513137497
1761412830383741200,4.0017412109375,0.023249358162283896,-0.016128566371649503,0.009674184334184974
1761412830393754400,4.01175439453125,0.014196867656707763,-0.010670739357173442,0.012937259517051278
1761412830403767300,4.021767333984375,0.04690028286278248,0.0071964873753488055,0.017473076315782963
1761412830413780200,4.0317802734375,0.02300736609995365,0.016356968300044537,0.009153357064165174
1761412830423793400,4.04179345703125,0.021952304089069365,0.001098755022138357,0.018125567141454666
1761412830433806000,4.05180615234375,0.041858781564235684,0.014121464332938193,-0.0006337861252017319
1761412830443819300,4.0618193359375,0.040516719305515286,0.0007845745064318179,0.0107875889361836
1761412830453832200,4.071832275390625,0.028534605088829993,0.02206000224724412,0.023078074982296675
1761412830463845400,4.081845458984375,0.020259528696537018,0.027534488135576247,0.01923098936639726
1761412830473858000,4.091858154296875,0.01782148789465427,0.0036591070294380184,0.008480444504972547
1761412830483871200,4.101871337890625,0.01869651716351509,0.0037606677077710628,0.03108560474589467
1761412830493884400,4.111884521484375,0.008501286363601684,-0.00091170801743865,-0.007247267714515328
1761412830503897000,4.12189697265625,0.014468670335412024,0.0022059856116771696,0.002119622502475977
1761412830513910300,4.13191015625,0.02136076793670654,-0.009690350017696619,0.009525679241586475
1761412830523923200,4.141923095703125,0.038109073641896245,-0.006342647024989128,-0.01325436264220625
1761412830533936400,4.151936279296875,0.02826104884445667,-0.004849778118729591,-0.007772131838835775
1761412830543949000,4.161948974609375,0.02799918303787708,0.004677636422216892,0.004899754740297794
1761412830553962200,4.171962158203125,0.03219897281527519,-0.01048763787522912,0.012706702164188026
1761412830563975400,4.181975341796875,0.033875381594896316,0.00895092982724309,0.014292528317216783
1761412830573988000,4.191988037109375,0.0209007492095232,0.013057634493708609,0.01618188572777435
1761412830584001300,4.202001220703125,0.022391864550113678,0.01832549189403653,0.03146780899651348
1761412830594014200,4.21201416015625,0.030621932756900786,0.006214490600675344,-0.0004678184411488473
1761412830604027400,4.22202734375,0.022679449319839475,-0.0045204000338912005,0.007421528302878141
1761412830614040000,4.2320400390625,0.016664719074964522,-0.005118365927040577,0.004581519103981554
1761412830624054300,4.24205419921875,0.028919220492243766,0.0075569912508130065,-0.01961335801379755
1761412830634067000,4.25206689453125,0.028125439766049382,-0.007919833213835954,-0.00586523877158761
1761412830644080000,4.262080078125,0.024371640190482137,0.0017019816122949122,0.011900902206636964
1761412830654093300,4.27209326171875,0.02006546742916107,-0.0016270166799426079,-0.013663363568205385
1761412830664106200,4.282106201171875,0.02666471956372261,-0.006225011994689703,-0.00702065588440746
1761412830674119200,4.292119140625,0.03432780153751373,-0.0038398704238235947,0.006943352864496409
1761412830684132000,4.302132080078125,0.033251696738600726,0.010985650525242089,-0.008522073423303663
1761412830694145300,4.312145263671875,0.03127659727334976,0.018917466437816617,0.007164174274634569
1761412830704158000,4.322157958984375,0.028151158729195592,0.017178221555054187,0.008910634349472821
1761412830714171100,4.332171142578125,0.04584522085189819,0.010738397765904665,0.008023585849255324
1761412830724184000,4.34218408203125,0.024774375772476195,0.006273819572478532,-0.0030276772581040857
1761412830734197200,4.352197265625,0.009347089537978172,0.012957681250572204,0.0051327415122650565
1761412830744210200,4.362210205078125,0.03807458685040474,-0.01365428521260619,-0.016370357504580168
1761412830754223000,4.37222314453125,0.04079378268122673,-0.006603928309679031,0.007451338919252157
1761412830764236300,4.382236328125,0.025737667846679687,-0.0003141805157065391,-0.004022679644823074
1761412830774249000,4.3922490234375,0.024253566768765448,-0.0034064474426209923,-0.0020932459522038697
1761412830784262100,4.40226220703125,0.013487842604517936,-0.013064064234495161,0.04321490888092667
1761412830794275000,4.412275146484375,0.03777238903343677,-0.006378156729787587,0.0293764992730692
1761412830804288300,4.422288330078125,0.028881811091303822,0.00008913958817720413,0.01896075759027153
1761412830814301200,4.43230126953125,0.011132803910970688,-0.002484948683530092,0.016928831637557595
1761412830824314000,4.442314208984375,0.02102057619690895,0.005844488244503736,0.0007063581710681319
1761412830834327300,4.452327392578125,0.04094225124120712,0.021336510278284548,-0.0047043600323610005
1761412830844340000,4.462340087890625,0.037976387172937394,0.009787088390439748,0.0005271108803339302
1761412830854353200,4.472353271484375,0.01717851381599903,0.011403583676367998,-0.0003895107742398977
1761412830864366000,4.482365966796875,0.025523732835054398,0.005276917489618063,0.0060102732654660936
1761412830874379300,4.492379150390625,0.02360299390554428,0.01621098395809531,0.006214819394238293
1761412830884392200,4.50239208984375,0.02149462344944477,0.014623568636178969,0.021976214687619358
1761412830894405000,4.512405029296875,0.03507891216576099,-0.002112169848382473,-0.007774871785193681
1761412830904418300,4.522418212890625,0.026986791124939916,0.023387743719667196,-0.015113251849263905
1761412830914431000,4.532430908203125,0.02922843257188797,0.009020487932115793,0.002095912833325565
1761412830924444200,4.542444091796875,0.03696691786944866,0.004578413831442594,0.0008143485901877283
1761412830934457000,4.55245703125,0.0310918883562088,0.0005729775823652744,0.02446165656149387
1761412830944470300,4.56247021484375,0.02778349446058273,0.00081759999319911,0.008964702624268829
1761412830954483000,4.57248291015625,0.03466273258030415,-0.006454582966864108,0.014379311551526188
1761412830964496100,4.58249609375,0.01237140579521656,0.02314063709080219,0.014032708337251096
1761412830974509300,4.59250927734375,0.017449731972813604,0.012724164755642413,-0.00923946444503963
1761412830984522000,4.60252197265625,0.028356910434365272,0.014765022933483123,-0.03745029920591041
1761412830994535200,4.61253515625,0.02053600755035877,0.008667582841217518,-0.007231138563621789
1761412831004548000,4.622548095703125,0.03311141148507595,0.01028437038809061,0.0002456453241407871
1761412831014561300,4.632561279296875,0.03264204040765762,0.024791473037749527,0.0017615480461157858
1761412831024574000,4.642573974609375,0.02196341000497341,0.0065390463799238204,0.00478219277523458
1761412831034587100,4.652587158203125,0.02358078207373619,0.00012304185777902603,-0.02603796596750617
1761412831044600300,4.662600341796875,0.03658697864115238,0.004663607896864414,-0.020749376306403427
1761412831054613000,4.672613037109375,0.028311902248859405,-0.001247369712591171,-0.011272541175223886
1761412831064626200,4.682626220703125,0.012411737805604934,-0.0053645957730710505,0.002078742502816021
1761412831074639000,4.69263916015625,0.018083353701233863,-0.004839110594242811,-0.01302523006144911
1761412831084652300,4.70265234375,0.014674422040581702,-0.0038351942487061023,0.005632836521510034
1761412831094665000,4.7126650390625,0.016965747848153113,0.028380291309952736,0.012113558576628564
1761412831104678100,4.72267822265625,0.025469372299313543,0.010392799198627472,0.01137538049519062
1761412831114691300,4.73269140625,0.032201310902833936,-0.03868146670237183,0.021668975369352847
1761412831124704000,4.7427041015625,0.03537351119816303,-0.003240589356422424,0.018844748261477796
1761412831134717200,4.75271728515625,0.02376549099087715,-0.00208528184145689,0.03102815720392391
1761412831144730000,4.762730224609375,0.013814005818963051,-0.00815115775167942,0.02495954134734347
1761412831154743300,4.772743408203125,0.026724340796470642,0.0043850832164287566,0.021951774366106836
1761412831164756000,4.782755859375,0.04829612113535404,0.02553308518528938,0.0013515242068096994
1761412831174769200,4.79276904296875,0.032440964877605435,0.014852262825518846,-0.0034846637779846787
1761412831184782000,4.802781982421875,0.013700024050474166,-0.010413841986656189,-0.011994480507913977
1761412831194795000,4.812794921875,0.019063596910238265,0.003906359788775444,-0.0009196355955675244
1761412831204808200,4.82280810546875,0.02492109076678753,0.021310206793248652,0.007081701889261603
1761412831214821000,4.832821044921875,0.026440847679972648,0.008906067772209644,0.0047384814976714545
1761412831224834300,4.842834228515625,0.03378127357065677,0.008826134403795004,0.014587437876872717
1761412831234847000,4.852846923828125,0.03120470108091831,0.024376900887489318,-0.00019197890814393758
1761412831244860200,4.862860107421875,0.04481470876038074,0.03323167686387896,-0.005098894041590392
1761412831254873000,4.872873046875,0.026831892824172972,-0.0020883505813777447,0.0036453524987213313
1761412831264886000,4.882885986328125,0.0045317982107400895,0.005570639739185572,-0.0051233526294119655
1761412831274899200,4.892899169921875,0.013314239603281021,0.009843787013739346,-0.004884776366874575
1761412831284912000,4.902912109375,0.02314239065647125,0.010398790547996759,-0.014709365489799528
1761412831294925300,4.91292529296875,0.016219313395023346,0.011654928088933229,-0.01124704140778631
1761412831304938000,4.92293798828125,0.02262275069653988,0.004623129756003618,-0.014629413855075836
1761412831314951200,4.932951171875,0.015430793365836143,0.012879063056409358,0.010620872333459555
1761412831324964000,4.942964111328125,0.01795183627605438,0.0043548342086374755,0.004929821084998548
1761412831334977000,4.95297705078125,0.03202303172647953,0.0016828385204076767,-0.007356025318615138
1761412831344990200,4.962990234375,0.02962123128175735,-0.008455839786678552,-0.0016908026311546562
1761412831355003100,4.973003173828125,0.02347439908981323,0.010428601164370775,0.001461122061125934
1761412831365016300,4.983016357421875,0.027087328889966008,-0.010920476334542035,-0.014284710336942225
1761412831375029000,4.993029052734375,0.022363807499408722,-0.0218722245901823,0.010485902575869113
1761412831385042200,5.003042236328125,0.02272504202723503,-0.006634615708887577,0.025441552710626272
1761412831395055000,5.01305517578125,0.012646715605258941,0.00652487172409892,-0.0006344071797095239
1761412831405068000,5.023068115234375,0.02524433137178421,0.02735723187252879,-0.004136423951294273
1761412831415081200,5.033081298828125,0.02284662258028984,0.005309942976385354,0.006065510584041476
1761412831425094100,5.04309423828125,0.037062194937467575,0.0033288521617650985,0.030609329003654418
1761412831435107300,5.053107421875,0.0349959100574255,0.005758563526719808,0.04076541510326787
1761412831445120000,5.0631201171875,0.019300328275561333,0.0013547756098210811,0.04095165839036927
1761412831455133200,5.07313330078125,0.027372575572133063,0.00020750527083873748,0.01721983220707625
1761412831465146000,5.08314599609375,0.04022387383878231,0.019323855281621217,-0.028107483984250572
1761412831475159300,5.0931591796875,0.02418810031712055,0.023296412174403668,-0.004256250938680023
1761412831485172000,5.103171875,0.03072422408759594,0.004936871880292892,0.0038120325688272712
1761412831495185200,5.11318505859375,0.01321837801337242,0.006417319696396589,0.013047478425875305
1761412831505198300,5.1231982421875,0.021458967614173888,-0.0009638765960931778,0.02909388293940574
1761412831515211000,5.1332109375,0.018608838880062102,0.0022035013936460017,0.009409103657212108
1761412831525224200,5.14322412109375,0.030559388914704323,0.019203736033290623,-0.0131706481478177
1761412831535237000,5.153237060546875,0.03443009286820888,0.016873685650527475,0.004585756887681782
1761412831545250300,5.163250244140625,0.020931728869676588,0.018969781146943566,0.007180285159219056
1761412831555263000,5.173262939453125,0.02899403929412365,0.012341010656952858,-0.0025929391026496885
1761412831565276200,5.183276123046875,0.038516485399007795,0.01115077795907855,-0.000740991093032062
1761412831575289300,5.193289306640625,0.018567922347784042,0.02246756013482809,-0.007632394574582577
1761412831585302000,5.203302001953125,0.02193944460749626,0.01415302851498127,-0.01812134762406349
1761412831595315200,5.213315185546875,0.023794132563471793,0.019386837515234946,-0.011466164051182568
1761412831605328100,5.223328125,0.013544541227817534,-0.007162585105746984,0.007390731305815279
1761412831615341300,5.23334130859375,0.03221358586251735,-0.007257716043293476,-0.004861888681631535
1761412831625353200,5.243353271484375,0.026050971579551694,0.013569237277656793,0.0012473149136640132
1761412831635365000,5.253365234375,0.029492051944136618,-0.0015324702642858028,-0.015117361768800764
1761412831645378000,5.2633779296875,0.008669044145941733,-0.00408799996599555,-0.0022606932072900235
1761412831655391200,5.27339111328125,0.020504443368315695,0.007045242336392402,0.008680515388026833
1761412831665404400,5.283404296875,0.023343466186523436,0.0018326222546398638,0.0035944260290823875
1761412831675417000,5.2934169921875,0.020795535269379616,-0.01923266986683011,-0.020373181671462952
1761412831685430300,5.30343017578125,0.021079612907767293,-0.002992898205667734,-0.0048295025156810875
1761412831695443200,5.313443115234375,0.04230944794118404,0.0027601123631000517,0.021107085436582563
1761412831705456400,5.323456298828125,0.026589900761842727,-0.0036316345006227493,0.020827665707003323
1761412831715469000,5.333468994140625,0.02436813305914402,-0.008671966755390167,0.009289989055879414
1761412831725482200,5.343482177734375,0.023839725270867345,-0.0037859482795000073,0.014959358195494859
1761412831735495400,5.353495361328125,0.02251929032206535,-0.01008285646662116,0.024613961046375334
1761412831745508000,5.363508056640625,0.029144845941662785,-0.011510112790763378,0.02360206232378259
1761412831755521300,5.373521240234375,0.026627310162782667,0.01036342697367072,0.01862063891571015
1761412831765534200,5.3835341796875,0.03757482063472271,0.004245236354321241,0.013789401100669056
1761412831775547400,5.39354736328125,0.019056582647562027,0.01811974018886685,-0.007487213950231671
1761412831785560000,5.40356005859375,0.029557518395781517,0.0130319155305624,-0.0041534846839495
1761412831795573200,5.4135732421875,0.023875381106138228,0.006392915907502174,0.020995843614451587
1761412831805586400,5.42358642578125,0.02686462604999542,0.004453180016577243,0.025682923718448727
1761412831815599000,5.43359912109375,0.03147884184718132,-0.0000659048430621624,0.003608545885980129
1761412831825612300,5.4436123046875,0.02831073320508003,0.007533756505697965,-0.006236903361883014
1761412831835625200,5.453625244140625,0.02771393635571003,0.007968494661152362,0.004339216514397413
1761412831845638400,5.463638427734375,0.02439677463173866,0.011541969233751297,0.005100355346314609
1761412831855651000,5.473651123046875,0.011624386820197105,0.015396306574344635,-0.010718286559637635
1761412831865664300,5.483664306640625,0.019213819035887716,-0.0035464404352009296,0.007455156577844172
1761412831875677400,5.493677490234375,0.024110358905792235,0.0019365210205316541,-0.011438654989749192
1761412831885690000,5.503690185546875,0.03321253377199173,0.012842676568776369,-0.009672156773880124
1761412831895703300,5.513703369140625,0.024196283623576162,0.010467618000507354,-0.0030325178300030526
1761412831905716200,5.52371630859375,0.03611819208562374,0.015543752221018075,-0.0000655760494992137
1761412831915729400,5.5337294921875,0.03925356750190258,-0.0021903496511280537,-0.005743493821751326
1761412831925742000,5.5437421875,0.028150574207305906,0.004990647894144058,-0.01732968578971922
1761412831935755300,5.55375537109375,0.025465280646085737,0.024828736308217046,-0.019298921769764273
1761412831945768200,5.563768310546875,0.0038882396101951595,0.0052379006534814835,0.002640961229149252
1761412831955781000,5.573781005859375,0.02733399712741375,-0.00048822190836071965,0.02174878087360412
1761412831965794300,5.583794189453125,0.03557926290333271,0.005594897397607565,0.02361521406630054
1761412831975807200,5.59380712890625,0.036353754407167434,0.005500058721005916,0.003488718898594379
1761412831985820400,5.6038203125,0.014643442380428313,-0.010583791726082563,-0.013920845460612325
1761412831995833000,5.6138330078125,0.02075871039032936,0.010303805740922689,0.021102244864683598
1761412832005846300,5.62384619140625,0.04007949693202972,0.009015081104636192,0.021403876426070927
1761412832015859200,5.633859130859375,0.04025076184570789,-0.005113689751923084,0.016882800538744778
1761412832025872100,5.6438720703125,0.03968085300326347,-0.002554068396985531,0.016119268820341676
1761412832035885300,5.65388525390625,0.012895721930265426,-0.00105374683663249,0.0011909085513092576
1761412832045898200,5.663898193359375,0.03115560124218464,0.003112286801636219,-0.01156434546234086
1761412832055911400,5.673911376953125,0.03238075912296772,0.00503521768823266,-0.006689871293772012
1761412832065924000,5.683924072265625,0.015922960796952247,0.0005322071805596351,0.0009057349343784153
1761412832075937300,5.693937255859375,0.024450550645589826,0.009507833057641982,0.00426089058117941
1761412832085950200,5.7039501953125,0.019537059640884397,0.008440203826129436,0.02590714266207069
1761412832095963100,5.713963134765625,0.012971125254034994,0.005617693751305342,0.032492457602825014
1761412832105976300,5.723976318359375,0.03633738779425621,0.019136223755031823,0.015000347793009131
1761412832115989200,5.7339892578125,0.02516658996045589,-0.0004351765468716621,0.022040932220593095
1761412832126002400,5.74400244140625,0.02148994727432728,0.015694558868557213,0.012971180052962153
1761412832136015000,5.75401513671875,0.035115737044811246,0.004870528645813465,-0.007129450021125376
1761412832146028300,5.7640283203125,0.042136429461836815,0.001638853248208761,0.015732972916495055
1761412832156041200,5.774041259765625,0.03912029651105404,0.00999488592222333,0.005761230407841504
1761412832166054100,5.78405419921875,0.034489129579067225,0.011471388215571641,-0.0003802132229320705
1761412832176067000,5.794067138671875,0.04176759614944458,0.02908917023167014,-0.004865523677133023
1761412832186080300,5.804080322265625,0.032716859209537506,0.0030997195810079574,-0.0003605221417732537
1761412832196093400,5.814093505859375,0.02280161439478397,0.002093465147912502,-0.004949767894484102
1761412832206106000,5.824106201171875,0.028331191471219062,0.007812281186133622,0.0013014927863143383
1761412832216119300,5.834119384765625,0.026360183659195898,0.017986761458963156,-0.020260003620572387
1761412832226132200,5.84413232421875,0.02571662505865097,0.03259410961270332,-0.026035152955912053
1761412832236145200,5.854145263671875,0.037515783923864364,0.009947539649158716,-0.011523611593153326
1761412832246158000,5.864157958984375,0.03178337775170803,0.016914456052333115,-0.009780128926690668
1761412832256171300,5.874171142578125,0.015606734454631805,0.0019034955337643622,0.0011638013486750423
1761412832266184400,5.884184326171875,0.020969722792506217,0.0013157587736845017,-0.006150942111480981
1761412832276197000,5.894197021484375,0.025443653336167334,0.00335296368971467,0.005927325956057757
1761412832286210300,5.904210205078125,0.017515782946348188,-0.028548779744654893,0.0023694690776988863
1761412832296223200,5.91422314453125,0.02727554493844509,-0.015844634863734244,-0.014757826007716357
1761412832306236200,5.924236083984375,0.03212532305717468,-0.009993132356554269,-0.004445581232011318
1761412832316249000,5.9342490234375,0.018255203136801717,0.0038308103345334526,0.014859569349139928
1761412832326262300,5.94426220703125,0.01799801350533962,-0.0029800387240946293,0.012093118576798588
1761412832336275500,5.954275390625,0.023121347868442534,-0.004960691147297621,-0.0024286153864115476
1761412832346288000,5.9642880859375,0.029319617986679074,-0.0046929801218211645,0.025837073100544512
1761412832356301300,5.97430126953125,0.0364162982493639,0.013533143050968647,0.04637055990025401
1761412832366314200,5.984314208984375,0.02898351790010929,0.00881692818403244,0.021464210044872013
1761412832376327200,5.9943271484375,0.03126139970421791,0.007305500707775354,0.027973957265075296
1761412832386340000,6.004340087890625,0.02035948193967342,0.006588146218657494,0.028677411093004045
1761412832396353300,6.014353271484375,0.031183658292889594,0.025630554210394618,0.008176803649589419
1761412832406366500,6.024366455078125,0.02744856341779232,0.015112959588319062,0.004034114354290068
1761412832416379100,6.034379150390625,0.02650514508783817,0.029112551107257603,0.008024700094107539
1761412832426392300,6.044392333984375,0.035329672056436535,0.01880757632255554,0.005491729284077883
1761412832436405200,6.0544052734375,0.026584640064835546,0.021076398037374017,0.0003534348138608038
1761412832446418200,6.064418212890625,0.011872224101424217,0.0027329320952296254,0.009622362815402448
1761412832456431000,6.07443115234375,0.02914601498544216,0.00809168264940381,0.01845247927457094
1761412832466444300,6.0844443359375,0.026876316487789154,0.003289835325628519,0.019700744036305694
1761412832476457200,6.094457275390625,0.0321112945318222,-0.0025410627849400042,0.004676759639382362
1761412832486470100,6.10447021484375,0.024758593681454655,0.002500292383134365,-0.013013119498547165
1761412832496483300,6.1144833984375,0.027755437409877775,0.017303016978502273,0.0050334823888726525
1761412832506496300,6.124496337890625,0.0162082074791193,0.020593729086965322,-0.019519085592776535
1761412832516509200,6.13450927734375,0.03158697839677334,0.009693418757617473,0.012781283504050224
1761412832526522000,6.144522216796875,0.03726034785807133,0.004984510414302349,0.012573887831065804
1761412832536535300,6.154535400390625,0.019898878690600395,0.000680529610067606,0.010775259177573025
1761412832546548200,6.16454833984375,0.03234451876580715,0.017315438068658113,0.004592588487267494
1761412832556561200,6.17456103515625,0.03610708616971969,-0.00928206147775054,0.0018936499931849538
1761412832566574300,6.18457421875,0.021128712746500966,0.00891629690527916,-0.004251026774290949
1761412832576587300,6.194587158203125,0.025936405289173126,-0.009882657719403505,0.001927351333387196
1761412832586600200,6.20460009765625,0.016861118429899215,-0.010900310329347847,0.019168226328492164
1761412832596613000,6.214613037109375,0.03161854257881641,-0.0015079203449189663,0.005566438488103449
1761412832606626300,6.224626220703125,0.014009820652008056,0.013781418723613024,0.0004486936155706644
1761412832616639200,6.23463916015625,0.011019406664371489,-0.01200929448455572,-0.0011124364876188336
1761412832626652400,6.24465234375,0.034814708271622655,0.008923165037482977,-0.0029016762582585215
1761412832636665600,6.25466552734375,0.037061610415577886,0.018654139326512813,0.010098675090260804
1761412832646678500,6.264678466796875,0.02599193486869335,0.008144143489003181,0.021763229524064807
1761412832656691500,6.27469140625,0.011471826606988906,0.014606471370905637,0.014453637163061648
1761412832666704400,6.284704345703125,0.036133974176645274,0.013574790235608815,-0.004552767933532595
1761412832676717600,6.294717529296875,0.047915597385168075,0.020332155541330575,0.007892378951329737
1761412832686730500,6.30473046875,0.023188567885756493,0.015594751755893229,0.004233436318673193
1761412832696742700,6.31474267578125,0.03183540019989013,0.0033497488193213938,0.0005582184046506881
1761412832706756600,6.324756591796875,0.016709142738580703,0.008193535588681697,-0.004172207650728524
1761412832716769500,6.33476953125,0.023877134671807288,0.011109276904910802,0.008074311389494687
1761412832726781700,6.34478173828125,0.0367167425006628,-0.0036859950363636014,-0.01124724233718589
1761412832736795400,6.35479541015625,0.01651449694931507,0.01129281677827239,0.004845138476230203
1761412832746807600,6.3648076171875,0.014604279413819312,0.00721548433676362,0.012889639249350875
1761412832756820500,6.374820556640625,0.015661094990372656,0.006429302395135164,0.0051751193492673335
1761412832766833700,6.384833740234375,0.029409634357690808,-0.0017030045256018638,0.011060012669395654
1761412832776846300,6.394846435546875,0.03361059317886829,0.004656885895133018,-0.009293222192581743
1761412832786859500,6.404859619140625,0.030604981622099875,0.0027867081090807914,0.02503931031897664
1761412832796872700,6.414872802734375,0.037332244050502776,0.018256664441525936,0.0058164677264168855
1761412832806885400,6.424885498046875,0.0461760602414608,0.011610796686261892,0.0017543511203490197
1761412832816898600,6.434898681640625,0.03466156353652477,0.0006217851601541042,-0.003847578806243837
1761412832826911500,6.444911376953125,0.019695465072989464,0.00662511722818017,-0.020575937701947985
1761412832836924700,6.454924560546875,0.022658991053700447,0.01680383528470993,0.0026471352416090666
1761412832846937300,6.464937255859375,0.04749474162459373,0.0020006722979247567,0.01797645926065743
1761412832856950500,6.474950439453125,0.044047816041111944,0.004278261841088533,-0.003821183989662677
1761412832866963700,6.484963623046875,0.03580255026519298,-0.005979074409604072,0.010892729811090976
1761412832876976400,6.494976318359375,0.03040215252637863,-0.0006843290023505688,0.017819277671258897
1761412832886989600,6.504989501953125,0.024396190109848975,0.014088731107115745,-0.00028307299138978124
1761412832897002500,6.51500244140625,0.02800093660354614,0.0008588087864220142,0.010703107256814837
1761412832907015700,6.525015625,0.020246669214963913,-0.01634396268799901,0.01306978158922866
1761412832917028400,6.5350283203125,0.008894085073471069,0.0022590309731662273,-0.022380977829918262
1761412832927041500,6.54504150390625,0.015180033475160597,0.007336334237456321,0.00048822190836071965
1761412832937054700,6.5550546875,0.016104747104644775,0.009747779293358325,0.006215495247673243
1761412832947067400,6.5650673828125,0.01569967343509197,0.014913929884880781,0.01632067314395681
1761412832957080600,6.57508056640625,0.026179566395282745,-0.005322656327486038,0.007555950071197003
1761412832967093500,6.585093505859375,0.021877485287189483,0.011695552360266447,0.02780313074281439
1761412832977106700,6.595106689453125,0.018334113591909406,0.015935381887108087,0.014947722556628285
1761412832987119400,6.605119384765625,0.026747721672058102,0.017099749491363763,-0.0024574944210238752
1761412832997132500,6.615132568359375,0.036952889344096185,0.020996464668959377,0.011990516718849539
1761412833007145500,6.6251455078125,0.02930734302699566,0.01762596532255411,0.0012086451373994349
1761412833017158400,6.635158447265625,0.02286708084642887,0.027375352051109074,0.009204283533804118
1761412833027171600,6.645171630859375,0.03900339213311672,0.02567936178818345,0.00539652528129518
1761412833037184500,6.6551845703125,0.023996377137303352,0.003462415413558483,0.013513378904573619
1761412833047197700,6.66519775390625,0.025613164684176442,0.005118950448930263,0.0036809535350650546
1761412833057210400,6.67521044921875,0.02527005033493042,0.01806172639131546,-0.009206311094108969
1761412833067223600,6.6852236328125,0.03361702291965484,-0.0004962590843439102,0.006607855566125363
1761412833077236500,6.695236572265625,0.025703765577077865,-0.009723960026353597,-0.006636497138720005
1761412833087249400,6.70524951171875,0.021503975799679755,0.0005272387444972992,0.008685867416579276
1761412833097262600,6.7152626953125,0.008772504520416259,-0.0011899404369294642,0.012997666201088576
1761412833107275500,6.725275634765625,0.01357961254119873,0.0090495678961277,0.008311335015762597
1761412833117288700,6.735288818359375,0.02226619234383106,0.00945697965323925,0.0015640161800198255
1761412833127301400,6.74530126953125,0.025879706665873525,0.012944091116636991,-0.0029977570438757535
1761412833137314600,6.755314453125,0.016785130584239957,0.006058130995184183,-0.007302468500472605
1761412833147327500,6.765327392578125,0.021425065344572065,0.01757891131043434,-0.005912493713106959
1761412833157340400,6.77534033203125,0.02637713479399681,-0.00613777210265398,0.009479958670027553
1761412833167353600,6.785353515625,0.030000585988163946,0.0025092063419520855,-0.009174180656485259
1761412833177366500,6.795366455078125,0.024214403802156448,0.019023703291267156,0.009037786126788705
1761412833187379700,6.805379638671875,0.006896189254522323,0.017620996886491776,0.030599191202130168
1761412833197392400,6.815392333984375,0.020519640937447545,0.01653846234679222,0.010982782714720815
1761412833207405600,6.825405517578125,0.03668810092806816,0.0007988952927291393,0.012133267924096434
1761412833217418500,6.83541845703125,0.020240823996067046,0.004468669846653938,0.00836374105643481
1761412833227431400,6.845431396484375,0.018743278914690017,-0.0009131693221628665,-0.0015229717835783957
1761412833237444600,6.855444580078125,0.03221358586251735,0.006254384219646454,0.0007115823354572057
1761412833247457500,6.86545751953125,0.03606500059366226,0.0030025428168475627,0.007785612374916672
1761412833257470700,6.875470703125,0.04355389504432678,0.0076056526981294155,0.007642861169669776
1761412833267483400,6.8854833984375,0.022296587482094763,0.014359803133457898,0.018958035910222677
1761412833277496600,6.89549658203125,0.01568798299729824,0.009254004427045583,-0.0033222032252699135
1761412833287509500,6.905509521484375,0.018386136040091514,-0.013068155887722968,0.007298650841880589
1761412833297522400,6.9155224609375,0.02798398546874523,-0.0031600714661180972,0.009315762817952782
1761412833307535400,6.925535400390625,0.025167759004235266,0.0028283552937209606,0.0005855082703754306
1761412833317548500,6.935548583984375,0.02099135010242462,0.0026451076813042164,0.020044899565167723
1761412833327561700,6.945561767578125,0.026377719315886495,-0.007644377273321151,0.003560359362699091
1761412833337574400,6.955574462890625,0.033141806623339654,0.00822027746513486,0.02521550713609904
1761412833347587600,6.965587646484375,0.021306991922855376,0.017561667914688585,0.0024182949217967688
1761412833357600500,6.9756005859375,0.027453239592909812,0.012277736162394285,-0.009023885465599596
1761412833367613400,6.985613525390625,0.024010405662655828,0.0001600128673017025,-0.0005112374577671289
1761412833377626400,6.99562646484375,0.020697920113801956,0.022726211071014402,0.00336207857793197
1761412833387639600,7.0056396484375,0.0287608150601387,0.00801364897713065,0.008392254764866084
1761412833397652700,7.01565283203125,0.016916063487529755,0.005897533605992794,0.008730144949723035
1761412833407665400,7.02566552734375,0.008394318857789039,-0.002539455349743366,0.002002444129902869
1761412833417678600,7.0356787109375,0.02022796451449394,0.005628799667209386,0.012327584919799118
1761412833427691500,7.04569140625,0.014248305583000182,0.0014110358417034148,0.006384659535810351
1761412833437704400,7.055704345703125,0.026782208463549614,0.00952361514866352,-0.0066614671831950545
1761412833447717400,7.06571728515625,0.015098200410604477,0.014515139825642108,0.020479802117403596
1761412833457730600,7.07573046875,0.021270167043805122,0.014013035522401332,0.014227481990680097
1761412833467743700,7.08574365234375,0.015307459247112274,0.014338468084484338,0.003574899344705045
1761412833477756400,7.09575634765625,0.007819733840227126,0.01692453905493021,-0.0133988308805041
1761412833487769600,7.10576953125,0.033711715465784074,0.010917845986038446,0.009841156665235757
1761412833497782500,7.115782470703125,0.021284780091047287,0.016193740562349557,0.011792546461336314
1761412833507795500,7.12579541015625,0.028914544317126274,0.012459522470086812,-0.0006438143288716674
1761412833517808400,7.135808349609375,0.021570611295104025,0.0052099897332489485,0.012560443827603011
1761412833527821600,7.145821533203125,0.014679682737588882,0.009576660510152577,0.007828099809773266
1761412833537834500,7.15583447265625,0.01408113232254982,0.008827741838991642,-0.003269212662708014
1761412833547847400,7.165847412109375,0.022349778974056243,0.0046137774057686326,-0.00781186106102541
1761412833557860600,7.175860595703125,0.019698387682437896,0.002909896097332239,-0.007557301778066903
1761412833567873500,7.18587353515625,0.024651041653752325,0.015682283908873794,-0.009087762748356909
1761412833577886500,7.195886474609375,0.02973112139701843,0.013322422909736632,0.006418178212922066
1761412833587899400,7.2058994140625,0.026566519886255264,0.02453954410329461,0.006525803305860609
1761412833597912600,7.21591259765625,0.03311258052885532,0.027604630762338638,0.005996792729385197
1761412833607924500,7.225924560546875,0.033950200396776195,0.028962182851135727,0.004600242070760578
1761412833617938400,7.2359384765625,0.01366319917142391,0.007680471500009298,-0.012126491123437881
1761412833627950800,7.245950927734375,0.01659457644820213,0.0005105798706412315,-0.0072329834608361124
1761412833637963000,7.255962890625,0.01760170766413212,0.010008622186630964,0.01753280714638531
1761412833647976000,7.265975830078125,0.028487843337655066,-0.006690583679825067,0.0007526815308257937
1761412833657990000,7.275989990234375,0.01859013417959213,-0.01256765901967883,-0.008112798502668737
1761412833668002000,7.286001953125,0.029813538983464238,0.009248597599565983,0.008412073710188268
1761412833678015000,7.296014892578125,0.019757424393296242,0.02135609176158905,0.004330284289270639
1761412833688028200,7.306028076171875,0.022146365356445312,-0.01333645143508911,0.012245934518333524
1761412833698041000,7.316041015625,0.04490004895627498,-0.01798456950187683,0.01585323829529807
1761412833708054000,7.326053955078125,0.038650340911746024,0.0005555880561470986,-0.010933025288861245
1761412833718067000,7.33606689453125,0.0339022696018219,0.004081277964264154,-0.01668678477630019
1761412833728080100,7.346080078125,0.020877368333935737,0.0036418636336922644,-0.009996255895402283
1761412833738093000,7.356093017578125,0.023583120161294935,0.0026727263405919074,0.0020688604296185075
1761412833748106000,7.36610595703125,0.03875321676433086,0.020052315686643122,0.005786109120771288
1761412833758119200,7.376119140625,0.02094341930747032,0.016178396862745283,0.003866667099203914
1761412833768132000,7.386132080078125,0.024212065714597702,0.004015373121201992,0.005678356163669377
1761412833778145000,7.39614501953125,0.021048633247613906,0.007995674929022789,0.004332074387557804
1761412833788158000,7.406157958984375,0.01669803682267666,0.008200257590413092,0.013725176758039742
1761412833798171100,7.416171142578125,0.0255541279733181,-0.005684329246729612,0.006744834617711603
1761412833808183800,7.426183837890625,0.013325930041074753,0.010713555585592985,0.012960275066457689
1761412833818197000,7.436197021484375,0.009151274704933167,0.029635698198527096,0.02071353780804202
1761412833828210200,7.446210205078125,0.015472878941893576,0.003435965798050165,0.012883410437963903
1761412833838223000,7.45622314453125,0.02912029602229595,-0.0013398703016340731,0.003914086437504738
1761412833848236000,7.466236083984375,0.03167874833345413,0.01758957883492112,0.013067717496305703
1761412833858249000,7.4762490234375,0.028101474368572233,0.018705869513750074,-0.017677220585756003
1761412833868262100,7.48626220703125,0.013721066838502884,0.0071047174386680125,-0.004589538013655692
1761412833878274800,7.49627490234375,0.014165303474664687,0.008747223948687315,0.008352452477440238
1761412833888288000,7.5062880859375,0.02945405802130699,0.01908975426480174,-0.00509341414887458
1761412833898301200,7.51630126953125,0.04395429253876209,0.008105565044283867,0.0014478424544446169
1761412833908314000,7.526314208984375,0.024154782569408416,-0.00526873418316245,0.014291140077728777
1761412833918327000,7.5363271484375,0.03712356973588466,0.000058452188968658445,0.0036467590045183894
1761412833928340000,7.546340087890625,0.023058219504356384,0.01741203031092882,0.004376954708900303
1761412833938353200,7.556353271484375,0.015894319224357602,0.006245324130356312,0.009965038773231207
1761412833948365800,7.56636572265625,0.01965688662827015,-0.007932400434464216,-0.007386182994861155
1761412833958379000,7.57637890625,0.026694530180096626,-0.0007702537201344967,0.015677516402211038
1761412833968392200,7.58639208984375,0.024331308180093762,0.016736907528340814,-0.007714063242357224
1761412833978405000,7.596405029296875,0.023456278911232947,0.013638941513001919,0.008247549064550549
1761412833988418000,7.60641796875,0.010751111117005347,0.010123919129371642,0.004651332937180995
1761412833998431000,7.616430908203125,0.02810556602180004,0.0011721125192940235,0.008624967542197555
1761412834008444200,7.626444091796875,0.03291618117392063,0.011679624138772486,0.004879223408922553
1761412834018456800,7.636456787109375,0.024281039297580718,0.010716770455986261,0.012315492623206227
1761412834028470000,7.646469970703125,0.027728549402952194,0.02250394662246108,0.0064645198389887805
1761412834038483000,7.65648291015625,0.03331657866835594,0.004739741872996092,0.005951875875424594
1761412834048496000,7.66649609375,0.02332593052983284,0.014737842665612696,-0.015112575995828955
1761412834058509000,7.676509033203125,0.02320727258622646,0.005152268196642398,0.004809007716923952
1761412834068522000,7.68652197265625,0.026805589339137077,0.025168781917542217,-0.008172858126834034
1761412834078535200,7.69653515625,0.012318798825144767,0.013047259230166672,0.005250120814237744
1761412834088547800,7.7065478515625,0.01784428424835205,-0.0057560793086886405,0.0023490473441779612
1761412834098561000,7.71656103515625,0.02446165656149387,-0.0011490239046514034,0.003925082755554467
1761412834108574000,7.726573974609375,0.015264789149165153,-0.002307107898592949,0.004170673280768096
1761412834118587100,7.736587158203125,0.03597264613509178,0.008912351382523774,-0.006639602411258965
1761412834128600000,7.74660009765625,0.021197686329483986,0.01736132303699851,0.005436236237175762
1761412834138613000,7.756613037109375,0.020623101311922073,0.02635404617935419,0.00982289035618305
1761412834148626200,7.766626220703125,0.03859598037600517,0.011768033074587583,-0.0005365362958051264
1761412834158638800,7.776638916015625,0.04011807537674904,-0.005110913272947073,0.006042221039999276
1761412834168652000,7.786652099609375,0.03010404636263847,0.00500862194225192,-0.013525580799020826
1761412834178665000,7.7966650390625,0.019649287843704222,0.0009855039060115813,0.00012722484255209564
1761412834188678100,7.80667822265625,0.0250572843670845,0.003267477363348007,0.012821871242765336
1761412834198691000,7.816691162109375,0.047965281745791434,0.01775660596489906,-0.0038429756963625546
1761412834208704000,7.8267041015625,0.03585457271337509,0.013994915343821048,0.019022406383324413
1761412834218717200,7.83671728515625,0.0265823019772768,0.008855214367806912,0.012972002036869525
1761412834228729900,7.846729736328125,0.03302022607028484,0.012262684723734854,0.015224932062812148
1761412834238743000,7.856742919921875,0.03379413305222988,0.0027089666977524757,0.004830543695297092
1761412834248756000,7.866755859375,0.03171908034384251,0.025364889011532065,0.008980685644689948
1761412834258769200,7.87676904296875,0.04339139795899391,0.005454466013610363,-0.012603132191859184
1761412834268782000,7.886781982421875,0.03321428733766079,-0.006503828936070204,-0.011376403408497571
1761412834278795000,7.896794921875,0.03348959714770317,0.019648995582759378,0.006190653067361563
1761412834288808200,7.90680810546875,0.027209493964910507,0.021573972295969725,0.021346958607062694
1761412834298820900,7.91682080078125,0.02238601933121681,0.008148089011758565,0.006738459675852209
1761412834308834000,7.926833984375,0.01952303111553192,0.009730974289029836,0.007335841047111899
1761412834318847000,7.936846923828125,0.02429974399805069,-0.006238894389569759,0.0003014123656786978
1761412834328860200,7.946860107421875,0.012348609441518783,-0.010989888308942318,-0.0036665048846043643
1761412834338872800,7.956872802734375,0.022546178328990935,0.008945522999763488,-0.0014340513911098242
1761412834348886000,7.966885986328125,0.028549802657961844,0.022161855186522007,0.006284797624219208
1761412834358899200,7.976899169921875,0.01717033050954342,0.0004752162963151931,-0.005444803136121481
1761412834368912000,7.986911865234375,0.028859599259495734,0.009055413115024566,0.005264551198389381
1761412834378925000,7.996925048828125,0.024113866037130356,0.008244242862612008,0.011648407016601412
1761412834388937000,8.00693701171875,0.02878185784816742,0.005557049605250358,0.01589380776770413
1761412834398950100,8.0169501953125,0.015618424892425537,0.0037280806124210357,-0.01109428026517853
1761412834408963000,8.026963134765625,0.018638064974546432,-0.005976444061100482,-0.00892102787932381
1761412834418976000,8.03697607421875,0.026876316487789154,0.0044654549762606615,0.002265679909661412
1761412834428989000,8.046989013671874,0.02748246568739414,0.0045725686125457285,-0.002705021174997091
1761412834439002000,8.057002197265625,0.015680384212732313,-0.010917407594621181,0.004370872027985751
1761412834449015000,8.06701513671875,0.03379880922734737,0.01085252566486597,0.003062821636721492
1761412834459028000,8.077028076171874,0.030216274565458296,0.025455782165378332,0.012203775877039878
1761412834469041200,8.087041259765625,0.019879589468240737,0.0027643501468002795,0.0019640666145831344
1761412834479054000,8.09705419921875,0.02165712053477764,0.004193360036611557,0.006217047883942723
1761412834489067000,8.10706689453125,0.03675298285782337,0.013398118494451045,0.002040876444149762
1761412834499080000,8.117079833984375,0.03661503569185733,0.01137464984282851,0.0005348557953722775
1761412834509093000,8.127093017578124,0.00952361514866352,-0.00041851767301559446,0.002996478402242064
1761412834519105800,8.137105712890625,0.028539281263947485,0.0025115444295108315,0.0007464161868207157
1761412834529119000,8.147118896484375,0.034056583380699154,0.018465192625671624,0.01699225226258859
1761412834539132200,8.157132080078124,0.003960135802626609,0.01451090204194188,-0.01470437878742814
1761412834549145000,8.16714501953125,0.015149638336896896,0.003460661847889423,0.010131408316083251
1761412834559158000,8.177157958984376,0.030120412975549696,0.012259469853341578,0.009744527890346943
1761412834569171000,8.1871708984375,0.025945173117518424,-0.0014198036700487136,0.014499302935693412
1761412834579184000,8.19718408203125,0.02095394070148468,-0.0012803951993584633,0.008906926288735122
1761412834589196800,8.20719677734375,0.018674305331707,0.012816811475157737,0.014562431299779563
1761412834599210000,8.2172099609375,0.01883037267625332,0.0026021453224122524,0.007057097170967608
1761412834609223200,8.22722314453125,0.030486908200383186,0.02049348358288407,0.0005079860547557473
1761412834619236000,8.237236083984374,0.014908230796456336,0.019528145682066678,0.007221183425188064
1761412834629249800,8.247249755859375,0.018752631264925,0.01737374412715435,0.003926562326587737
1761412834639263000,8.257262939453126,0.03129004127681255,0.02159063116982579,0.005494286567345261
1761412834649276000,8.26727587890625,0.025446575945615765,0.007567366514354944,-0.001364529818855226
1761412834659288800,8.277288818359375,0.026971593555808065,0.0032194004379212855,0.006182926418632269
1761412834669302000,8.287302001953124,0.025477555605769156,0.0026005378872156143,0.006552198122441768
1761412834679315000,8.29731494140625,0.026683424264192578,0.011368220102041958,0.020202884872164577
1761412834689327900,8.307327880859376,0.03983458226025104,0.01235094752907753,0.011031389363110065
1761412834699340800,8.3173408203125,0.03459025186598301,0.007467413271218538,0.006109185328986496
1761412834709354000,8.32735400390625,0.023642741394042967,0.014176993912458418,0.005655340614262968
1761412834719367000,8.337366943359376,0.03920329861938953,0.008030892372876405,0.0007192359189502895
1761412834729379800,8.3473798828125,0.021508651974797247,0.019463117621839044,0.01249508697381243
1761412834739393000,8.35739306640625,0.03587503097951412,0.006582008738815784,-0.005671414966229349
1761412834749406000,8.367406005859374,0.03539513850808143,0.0029801848545670507,-0.00016205869391560553
1761412834759419000,8.3774189453125,0.03178337775170803,-0.0021691607326269147,-0.01110750507293269
1761412834769431800,8.387431884765626,0.024727029499411583,0.0036417175032198426,0.0073384896619245405
1761412834779445000,8.397445068359374,0.0275321500480175,0.008011018628627062,0.006884425751492381
1761412834789458000,8.4074580078125,0.02509527828991413,0.011834668570011853,0.004420227595046162
1761412834799470800,8.417470947265626,0.030323826593160626,-0.00007423427999019622,-0.0011288944320753216
1761412834809484000,8.427484130859375,0.032689386680722236,0.0012723580233752728,0.026853337471000847
1761412834819497000,8.4374970703125,0.042401217877864834,0.011380056670308112,-0.0021107816088944673
1761412834829510000,8.447510009765624,0.028758476972579956,-0.0004563654653728008,-0.0035947913552634415
1761412834839522800,8.457522705078125,0.0324859730631113,0.006797258924692869,0.008947386163286865
1761412834849536000,8.467535888671875,0.020056699600815773,0.005652034412324428,0.009454531967826188
1761412834859549000,8.477548828125,0.02246317622065544,0.020982290013134477,0.008992120354156941
1761412834869561900,8.487561767578125,0.03294657631218433,0.006725801123678684,0.016055902994237838
1761412834879575000,8.497574951171876,0.02530395260453224,-0.007428104174137115,0.0030672786161303517
1761412834889588000,8.507587890625,0.022606384083628653,-0.009657470661401749,0.015292298210598528
1761412834899601000,8.517600830078125,0.020526655200123787,-0.007942629567533731,0.013030052367039024
1761412834909613800,8.52761376953125,0.022474282136559484,0.0046207916684448715,0.011590539349522441
1761412834919627000,8.537626953125,0.030530162820219992,0.013722235882282257,0.0076566522330045695
1761412834929640000,8.547639892578125,0.029316695377230643,0.013209171793609857,0.016185739918984473
1761412834939652900,8.55765283203125,0.029492051944136618,0.00393792397081852,0.01834054333269596
1761412834949665800,8.567665771484375,0.012257424026727675,0.010669424182921647,0.015134769561327994
1761412834959679000,8.577678955078126,0.03693184655606747,0.00011105915904045104,0.015019965808931737
1761412834969692000,8.58769189453125,0.03540390633642673,0.004455079712718725,-0.0018329693145118652
1761412834979704800,8.597704833984375,0.025346038180589673,0.013888386229425669,-0.00748666596096009
1761412834989718000,8.607718017578126,0.02844926489293575,0.014523177001625299,0.007335420922003686
1761412834999731000,8.61773095703125,0.03068272303342819,0.007983692230284214,0.004237436640355736
1761412835009744000,8.627743896484375,0.028426468539237974,0.004144114067405462,-0.01619045262672007
1761412835019756800,8.6377568359375,0.028126608809828757,0.008642594530433416,-0.002674315509479493
1761412835029770000,8.64777001953125,0.03454524368047714,0.005574731392413377,-0.00019734920300543306
1761412835039782000,8.657781982421875,0.028531682479381558,-0.002531564304232597,0.006494147792272269
1761412835049794800,8.667794921875,0.020744681864976883,0.008131284007430076,0.016432627352140843
1761412835059808000,8.67780810546875,0.015796704068779945,0.003694032212346792,0.011208718691393732
1761412835069821000,8.687821044921876,0.024907646763324735,0.009761077166348695,0.016071392824314534
1761412835079834000,8.697834228515624,0.029388007047772405,0.00665536623597145,0.017633235313557087
1761412835089846800,8.7078466796875,0.04241641544699669,0.005105506445467472,0.004929273095726967
1761412835099860000,8.71785986328125,0.03179506818950176,0.005421586657315492,0.009810432733409107
1761412835109873000,8.727872802734375,0.018180968856811523,0.004065203612297773,0.018854666867293417
1761412835119885800,8.7378857421875,0.027757190975546835,-0.002217822179943323,-0.009440813969727605
1761412835129898800,8.747898681640624,0.03213175279796123,-0.004947247143834829,0.003558203938230872
1761412835139912000,8.757911865234375,0.022688801670074463,0.0042493280075490475,-0.015420509433839468
1761412835149925000,8.767925048828126,0.03299801423847675,0.009879296718537807,0.006524963055644184
1761412835159937800,8.777937744140624,0.032249826219677924,0.006432225004583597,-0.0008556669812649488
1761412835169951000,8.787950927734375,0.0322597630918026,0.011602759510278702,-0.006075958912819624
1761412835179964000,8.7979638671875,0.02549041508734226,0.005188654684275388,0.020288334665913135
1761412835189976800,8.807976806640625,0.03858838159143924,-0.01286415774822235,0.026772983977477995
1761412835199989800,8.81798974609375,0.03141337539553642,0.006538754118978977,0.0097766400616616
1761412835210003000,8.8280029296875,0.025292262166738508,0.019476269364356993,0.007615023314673453
1761412835220016000,8.83801611328125,0.02349193474650383,0.012601707419753074,0.003119227999076247
1761412835230028800,8.84802880859375,0.025404490369558334,0.00886924289315939,0.009607950697559863
1761412835240042000,8.8580419921875,0.03375789269506931,-0.001176496433466673,0.0023777071830816563
1761412835250055000,8.868054931640625,0.023574936854839322,0.013098112634569406,0.004632281176839024
1761412835260067800,8.87806787109375,0.01774316196143627,0.006493307542055845,0.013764412789884954
1761412835270080800,8.888080810546874,0.03777414259910583,-0.004944470664858818,0.004584185985103249
1761412835280094000,8.898093994140625,0.02116086145043373,-0.0022395956203341482,0.013512867447920143
1761412835290107100,8.908107177734376,0.02088496711850166,0.002118015067279339,0.0014533406134694814
1761412835300119800,8.918119873046875,0.022525135540962218,0.005730068084597587,0.010059621721506118
1761412835310133000,8.928133056640625,0.01082943705022335,-0.004781242927163839,0.006080214962828904
1761412835320146000,8.93814599609375,0.017117723539471625,-0.004196721037477254,-0.01005057989852503
1761412835330158800,8.948158935546875,0.026533202138543127,0.0024438860207796095,-0.0020255327445454895
1761412835340171800,8.958171875,0.0069242463052272794,0.004115472494810819,0.004797481675911695
1761412835350185000,8.96818505859375,0.016190087300539016,0.00043780689537525175,0.006912628932669759
1761412835360198000,8.978197998046875,0.03202186268270016,-0.0020880583204329014,-0.0022439247355796397
1761412835370210800,8.9882109375,0.020795535269379616,-0.0013199965573847292,0.007335256525222211
1761412835380224000,8.99822412109375,0.025241993284225463,0.014152151732146739,0.005578914377186447
1761412835390237000,9.00823681640625,0.024044892454147336,0.005162205068767071,0.003543791820388287
1761412835400249900,9.018249755859374,0.02403378653824329,0.0034377193637192245,0.025637769402470437
1761412835410262800,9.0282626953125,0.011294131952524185,0.012081482937932014,0.0022189729574136436
1761412835420276000,9.03827587890625,0.018771920487284658,0.022119477349519728,0.004377009507827461
1761412835430289000,9.048288818359374,0.03131108406484127,0.011944704815745354,0.0035736207030713555
1761412835440301800,9.0583017578125,0.02063011557459831,-0.001086480062454939,0.005614497147221118
1761412835450315000,9.06831494140625,0.019436521875858304,0.0042779695801436896,0.002574289201106876
1761412835460328000,9.078327880859375,0.01673719978928566,0.008185936804115772,0.006342720090225339
1761412835470340900,9.0883408203125,0.020605565655231476,0.006657558193057775,0.0060765069020912044
1761412835480353800,9.098353759765626,0.026579963889718054,0.007897913642972708,-0.0042281390890479085
1761412835490367000,9.108366943359375,0.024919921723008154,0.012316606868058442,0.0051119361862540244
1761412835500380000,9.1183798828125,0.020551789641380307,0.004545680605620146,0.024069259710423646
1761412835510392800,9.128392822265624,0.017989245676994323,0.0034451720178127285,0.011637520296406
1761412835520406000,9.138406005859375,0.034331308668851854,0.010173603489995003,-0.0008747370079159736
1761412835530419000,9.1484189453125,0.04632803593277931,0.007336334237456321,0.021196060627978294
1761412835540432000,9.158431884765625,0.02404080080091953,0.008037029852718114,0.020275511716958135
1761412835550444800,9.16844482421875,0.027790508723258972,0.0032040567383170124,0.01175977670289576
1761412835560458000,9.1784580078125,0.027491233515739438,0.008877864591032266,0.015550492489058524
1761412835570471000,9.188470947265625,0.013731003710627555,0.004340367291867733,-0.00012687778268009422
1761412835580483800,9.19848388671875,0.02796118911504745,-0.0003825695767998695,-0.0017174349097535014
1761412835590496800,9.208496826171874,0.021492285361886024,0.004871989950537681,0.009112696260213852
1761412835600510000,9.218510009765625,0.022506430840492246,0.016420242794603107,0.028870741708017882
1761412835610523000,9.22852294921875,0.022036475241184232,0.006361790116876364,0.015470047663990407
1761412835620535800,9.238535888671874,0.03343114495873451,0.013422668413817881,0.0024173268074169753
1761412835630548200,9.24854833984375,0.009492050966620445,0.013399579799175262,-0.0042422954785637556
1761412835640561400,9.2585615234375,0.022820319095253942,-0.00819470463246107,-0.016001597257424144
1761412835650573300,9.2685732421875,0.008286766830086707,0.008966711918264626,-0.011764251948613674
1761412835660586200,9.278586181640625,0.024144261175394057,0.020957009441405532,0.006484174387529492
1761412835670599400,9.288599365234376,0.02295125199854374,0.02497472065016627,0.0016771394319832324
1761412835680612400,9.2986123046875,0.02086976954936981,0.015476386073231697,0.008110040290001778
1761412835690625500,9.30862548828125,0.021323358535766602,0.004230769437551498,-0.0019224924951791761
1761412835700638200,9.31863818359375,0.026278350594639777,0.010426993729174137,0.0004778283785097301
1761412835710651400,9.3286513671875,0.021488778230547904,0.0056466275848448275,0.024133703248761594
1761412835720664300,9.338664306640625,0.023571429723501205,0.007953004831075668,0.019042864649463444
1761412835730677200,9.34867724609375,0.04032616516947746,0.01663695428520441,0.007647482545860111
1761412835740690400,9.3586904296875,0.023725743502378462,0.0017759236313402652,0.008859744412451982
1761412835750703400,9.368703369140626,0.01893967826962471,0.0053689796872437,0.011686547069903462
1761412835760716500,9.378716552734375,0.03631166883111,0.021004209583997725,0.011643109786976129
1761412835770729200,9.388729248046875,0.02715045725405216,0.014735942969471215,-0.004268525898363441
1761412835780742400,9.398742431640626,0.026994389909505843,0.00652925563827157,0.0029603841755539177
1761412835790755300,9.40875537109375,0.02311199551820755,0.00736906746327877,0.010021317271422595
1761412835800768300,9.418768310546875,0.03204991973340511,0.009817483528703451,0.0002357997835613787
1761412835810781200,9.42878125,0.02664718390703201,0.008245558036863804,0.02502425888031721
1761412835820794400,9.43879443359375,0.02170855846107006,-0.003583703705668449,-0.002459795975964516
1761412835830807600,9.4488076171875,0.023834464573860167,-0.003140343852341175,0.0019218897069804368
1761412835840820200,9.4588203125,0.0311965177744627,0.01629793158918619,0.013377934222947805
1761412835850833400,9.46883349609375,0.02222702937722206,0.0015900456704199314,-0.0050076355615630746
1761412835860846300,9.478846435546876,0.03583002279400825,-0.0035828269228339194,-0.005370240062568336
1761412835870859300,9.488859375,0.018638649496436118,-0.004878858082741498,-0.003369987889751792
1761412835880872200,9.4988720703125,0.015499182426929473,0.007214315292984247,-0.009604133038967847
1761412835890885400,9.508885498046874,0.010398059895634651,0.01295198216214776,0.00443513290323317
1761412835900898600,9.518898681640625,0.01203764379620552,0.018987316803634167,-0.0006586465718224644
1761412835910911200,9.5289111328125,0.023527006059885024,0.002236526880413294,-0.0019590251132845875
1761412835920924400,9.53892431640625,0.032501170632243156,0.004792787234485149,0.015462229683715849
1761412835930937300,9.548937255859375,0.038165772265195845,0.012836392958462237,0.015764646696392447
1761412835940950300,9.5589501953125,0.023202011889219283,0.011495499743521213,-0.008276482898090035
1761412835950963200,9.568963134765625,0.02156476607620716,0.00994169443026185,-0.005676511266455054
1761412835960976400,9.578976318359375,0.03115501672029495,-0.0011897943064570426,0.008934344018623232
1761412835970989600,9.588989501953124,0.02698445303738117,0.01651347403600812,0.007566544530447572
1761412835981002200,9.599002197265625,0.023109072908759114,-0.004804916063696146,0.016924776516947893
1761412835991015400,9.609015380859375,0.028207857352495192,0.009213526286184787,0.024488270573783666
1761412836001028400,9.6190283203125,0.039296237599849695,0.020957301702350377,0.011767211090680211
1761412836011041300,9.629041259765625,0.024638766694068906,0.007593377738445997,-0.002802855526283383
1761412836021054200,9.63905419921875,0.018072832307219504,0.009890402634441853,0.01827377997310832
1761412836031067400,9.6490673828125,0.020925299128890035,-0.001988251207768917,0.009953951123636215
1761412836041080300,9.659080322265625,0.024635844084620474,0.006092617786675691,0.007486245835851877
1761412836051093200,9.66909326171875,0.020556465816497803,0.002545300568640232,0.002018993405904621
1761412836061106400,9.6791064453125,0.034759763213992115,0.000653641603142023,-0.0061330045959912234
1761412836071119400,9.689119384765625,0.025340777483582495,0.005827244848757982,-0.002280895745102316
1761412836081132300,9.69913232421875,0.025354221487045286,-0.002639408592879772,0.00566487562758848
1761412836091145200,9.709145263671875,0.03539280042052269,0.012100772160291672,0.02355648788269609
1761412836101158400,9.719158447265626,0.013698855006694793,0.01627133584320545,0.00812090874388814
1761412836111171300,9.72917138671875,0.03285129924416542,0.018083645962178707,0.006414196157548576
1761412836121184300,9.739184326171875,0.023452771779894827,0.011964140168577431,0.0011501198831945657
1761412836131197400,9.749197509765626,0.013137713992595671,0.008169570191204548,0.0033749015268869694
1761412836141210400,9.75921044921875,0.019582652348279952,0.0018266309052705765,-0.004272398355882614
1761412836151223300,9.769223388671875,0.018863690423965452,0.017831570897251365,0.004070007651578634
1761412836161236200,9.779236328125,0.04206219518184662,0.009573007248342036,0.006285035086236894
1761412836171249400,9.78924951171875,0.02607902863025665,0.007188304068893194,-0.0054904689087532455
1761412836181262300,9.799262451171876,0.022052841854095458,0.002477203768491745,0.010823171706218273
1761412836191274500,9.8092744140625,0.03506780624985695,-0.003936462666094303,0.01040156702697277
1761412836201287200,9.819287109375,0.03374678677916527,0.011054331847280264,0.016181392537429926
1761412836211301400,9.82930126953125,0.03256605256199836,0.018307079454511405,0.005457224226277322
1761412836221313300,9.839313232421874,0.02476853055357933,0.004613192883878946,0.01672925394484773
1761412836231326500,9.849326416015625,0.02883621838390827,0.008361293371021747,-0.0022683833234012126
1761412836241339400,9.85933935546875,0.026451953595876692,-0.004419277746975422,-0.0028253596190363165
1761412836251352300,9.869352294921875,0.04592296226322651,0.0034216450117528436,-0.005158551806956529
1761412836261365500,9.879365478515625,0.029324294161796566,0.004868775080144405,-0.001639985759370029
1761412836271378200,9.889378173828124,0.039033787271380425,0.011404460459202527,0.002511891489382833
1761412836281391400,9.899391357421875,0.03202244720458984,0.010846972706913947,0.02153128393171355
1761412836291404300,9.909404296875,0.02618015091717243,0.0005589490570127964,0.009609503333829343
1761412836301417500,9.91941748046875,0.020837036323547362,0.011102993294596672,0.01540154900504276
1761412836311430400,9.929430419921875,0.022794015610218047,0.0203147660151124,0.0007165690378285944
1761412836321443300,9.939443359375,0.025188217270374298,0.011928922724723815,0.011418397653009742
1761412836331456500,9.94945654296875,0.017999182549118996,0.010909078157693148,0.011993530659843236
1761412836341469200,9.95946923828125,0.014683774390816688,0.012679010439664126,0.012300897842273116
1761412836351482400,9.969482421875,0.015430208843946455,0.007458645442873239,-0.003196585817914456
1761412836361495300,9.979495361328125,0.020807810229063032,0.008259732692688704,0.0008921995993703603
1761412836371508500,9.989508544921875,0.02244096438884735,-0.0015564356617629527,-0.004408025700598955
1761412836381521400,9.999521484375,0.02051028858721256,0.00015256021320819854,0.017938227875810116
1761412836391534300,10.009534423828125,0.03354571124911308,-0.015645605160295964,0.01722333933841437
1761412836401547500,10.019547607421876,0.021135727009177208,0.005396890607476234,-0.0042418753534555435
1761412836411560200,10.029560302734374,0.031495208460092544,-0.015117635763436554,-0.009344477455783635
1761412836421573400,10.039573486328125,0.02519406248927116,-0.0017165946595370768,0.01008873821813613
1761412836431586300,10.04958642578125,0.03178396227359771,-0.00682750793248415,0.010445917625352739
1761412836441599500,10.059599609375,0.03434825980365276,-0.010367957018315792,0.017249131366796792
1761412836451612400,10.0696123046875,0.023607670080661773,0.011773001510649918,0.0051272250869311385
1761412836461625300,10.079625244140624,0.023449849170446395,0.0007344517543911934,0.014963029723614454
1761412836471638500,10.089638427734375,0.02131634427309036,0.019823767627775667,0.008398483576253056
1761412836481651200,10.099651123046876,-0.03949497504234314,0.05938114038184285,-0.028860165515076367
1761412836491664400,10.109664306640624,0.10623802249431609,0.00043619946017861366,-0.08093427081918343
1761412836501677300,10.11967724609375,0.23042612769901752,-0.03423179381713271,0.060878685463219874
1761412836511690500,10.1296904296875,-0.12463584897220134,-0.07770765518918633,0.22586875665560363
1761412836521703200,10.139703125,-0.262242238676548,-0.1094433944068849,0.04061358554242179
