time,seconds_elapsed,z,y,x
1761412872219228400,0.061228515625,0.1544879664003849,0.012661182522028684,-0.053846375673636794
1761412872229241600,0.07124169921875,0.17446634006798267,0.061382981723546975,0.10767063084701076
1761412872239254500,0.081254638671875,0.07106617134809494,0.0681941230431199,0.0935802009731531
1761412872249267500,0.091267333984375,-0.060065469384193416,-0.05836874846890568,-0.013618848573043942
1761412872259280400,0.1012802734375,-0.10352467188239096,-0.1058674356162548,-0.071769040654134
1761412872269292500,0.11129248046875,-0.010074234768748283,0.005786766707897186,-0.03143502097176388
1761412872279305500,0.121305419921875,0.09686112233996391,0.09398366720750928,0.03731235203994438
1761412872289318700,0.131318603515625,0.12239011587202549,0.07728519199341535,0.04071819669436663
1761412872299331300,0.141331298828125,0.05154547832012176,-0.0035813656181097027,-0.03691042017554864
1761412872309344500,0.151344482421875,-0.0439537080168724,-0.017322744592279195,-0.048443347586318845
1761412872319357700,0.161357666015625,-0.045562312257289884,-0.010708441019058226,-0.006537658140435815
1761412872329370600,0.17137060546875,0.0185305129468441,-0.004306465022265911,0.03588752513490617
1761412872339383600,0.181383544921875,0.09624152913689613,0.019626199229061603,0.008991517565958201
1761412872349396500,0.191396484375,0.07877426150739192,0.03393646413236856,-0.019848390612378714
1761412872359409700,0.20140966796875,0.011590484550595283,0.004233399786055088,-0.004405596281494945
1761412872369422300,0.21142236328125,-0.009649871876835822,-0.028882103352248667,-0.002007613495364785
1761412872379435500,0.221435546875,0.021464812833070755,-0.01485445478260517,-0.005160688965115696
1761412872389448700,0.23144873046875,0.04176467353999615,0.0165153737321496,0.009618472091574222
1761412872399460600,0.241460693359375,0.05766717607080936,0.003118424281477928,-0.0023094459861516953
1761412872409473500,0.2514736328125,0.032494740891456604,0.015262597192078828,-0.01066788981296122
1761412872419486500,0.261486572265625,0.032868834900856014,-0.003048720046132803,0.011188771881908177
1761412872429499600,0.271499755859375,0.005813654714822769,-0.012913403717428445,0.009958079309482127
1761412872439512600,0.2815126953125,0.0021586393386125564,-0.00887377293780446,0.016244941026624292
1761412872449525500,0.291525390625,0.013549801924824714,0.007318067928403615,0.009786850928422063
1761412872459538400,0.301538330078125,0.04137304387390613,0.009747925423830748,0.012674407329782842
1761412872469551600,0.311551513671875,0.04313829998075962,-0.003250087837129831,0.011867821920942514
1761412872479564500,0.321564453125,0.010353051710128784,-0.006160714586824178,-0.0019904979637823997
1761412872489577500,0.331577392578125,0.002648468682169914,0.007955342918634414,-0.012171353178471326
1761412872499590700,0.341590576171875,0.007224106034636497,-0.004928396312892437,-0.0038678726756013926
1761412872509603600,0.351603515625,0.025671032351255417,0.014156243385374545,0.005692202025931328
1761412872519616500,0.361616455078125,0.041674657168984414,0.005820522847026586,-0.006827197405230253
1761412872529628400,0.37162841796875,0.03088789021670818,0.006036211424320936,0.0058756871003657575
1761412872539641600,0.3816416015625,0.0338888255983591,0.005666647459566593,-0.006305694281775504
1761412872549654500,0.391654541015625,0.016385902133584023,0.0020350129589438437,0.009590926497522741
1761412872559667700,0.401667724609375,0.020305705925822256,0.011614011556655169,-0.0035550986656919118
1761412872569680400,0.411680419921875,0.032308278408646585,0.012058978845179081,-0.0016437486190348863
1761412872579693600,0.421693603515625,0.035737083813548086,-0.010466448956727981,0.0029931174013763666
1761412872589706500,0.43170654296875,0.03421031263768673,-0.012591916678100824,0.004776311023719609
1761412872599719400,0.441719482421875,0.02195171956717968,-0.0047376960463821885,-0.003726253981515765
1761412872609732600,0.451732666015625,0.008848492366075515,-0.0068852294690907,0.01369816088695079
1761412872619745500,0.46174560546875,0.012028291445970535,0.014023995307832956,0.01809845993882045
1761412872629758700,0.4717587890625,0.022537410500645637,0.011761311072856186,0.009043814008776099
1761412872639771400,0.481771484375,0.032601708397269245,0.0003543663956224918,-0.0018687712802551687
1761412872649783600,0.491783447265625,0.04684826041460037,0.015325141034275293,-0.0005107442674227059
1761412872659796500,0.50179638671875,0.02961830867230892,0.021733985163271425,-0.009409816043265164
1761412872669809200,0.51180908203125,0.0159989486426115,0.014112842635065317,-0.008816307129524647
1761412872679822000,0.521822021484375,0.021387655943632126,0.015748919404298067,-0.0001607069870457053
1761412872689835000,0.5318349609375,0.02857435257732868,0.017673603856563566,-0.017671357100550084
1761412872699848200,0.54184814453125,0.02242342873215675,0.009079524642974138,0.015734470753837375
1761412872709861400,0.551861328125,0.030879122388362882,0.006181611244380473,0.004126907204277813
1761412872719874000,0.5618740234375,0.023050620719790457,0.013480536080896853,-0.011310681228525936
1761412872729887200,0.57188720703125,0.0323117855399847,0.00652837885543704,0.0006244155086576938
1761412872739900200,0.581900146484375,0.023008535143733022,-0.009191168323904274,-0.006804437584150582
1761412872749913000,0.5919130859375,0.02746376098692417,-0.00047653147056698797,0.003571903670020401
1761412872759926000,0.601926025390625,0.02805763522684574,0.002989683335274458,-0.0068795303806662555
1761412872769939200,0.611939208984375,0.0376402870863676,0.004480068023502827,0.004523066915012895
1761412872779952000,0.6219521484375,0.020271803656220434,-0.015217004484683274,-0.009678129856940358
1761412872789964300,0.63196435546875,0.01593289766907692,-0.003870265562087297,-0.0029819384202361106
1761412872799977000,0.64197705078125,0.028306641551852224,0.00401873412206769,0.016004885193053632
1761412872809990100,0.651990234375,0.03785772922933101,-0.008548048114776611,0.0037126455812714993
1761412872820003300,0.66200341796875,0.027061025404930113,0.006385901644825935,0.009697455611918121
1761412872830016300,0.672016357421875,0.02302081010341644,0.002189034476876259,0.014300528960581867
1761412872840029200,0.682029296875,0.02392155833542347,0.004564677567034959,0.02175919266976416
1761412872850042000,0.6920419921875,0.01748129615485668,-0.012004764439910649,0.01598771486254409
1761412872860055300,0.70205517578125,0.0354272872120142,-0.0015926760189235209,0.022811094609182327
1761412872870068000,0.71206787109375,0.0315448928207159,0.0013518530003726482,-0.0053661484093405305
1761412872880081200,0.7220810546875,0.016432663884758947,0.014490297645330429,-0.00644736777478829
1761412872890094300,0.73209423828125,0.03172200295329094,0.006858049201220274,0.0007879903062246739
1761412872900107300,0.742107177734375,0.027101941937208173,0.0009052782766520976,-0.004144461127277463
1761412872910120200,0.7521201171875,0.02424655250608921,0.003946691799163818,-0.00008135814052075148
1761412872920132000,0.762132080078125,0.027557284489274022,0.0030785306625068184,0.002601213740650564
1761412872930145300,0.772145263671875,0.021093641433119772,0.028349457780271765,-0.006540014494303614
1761412872940158200,0.782158203125,0.00984860931932926,0.01854921764731407,0.0024245602658018468
1761412872950171100,0.792171142578125,0.025234394499659536,0.011965163081884384,0.02747773471334949
1761412872960184000,0.80218408203125,0.03452127828299999,0.009679974754154682,0.0019401012171059845
1761412872970197200,0.812197265625,0.0253840321034193,-0.02363675004467368,-0.006839435832295566
1761412872980210200,0.822210205078125,0.01284369948208332,-0.0008927110560238361,-0.0016036175380460917
1761412872990223000,0.83222314453125,0.015711363872885704,0.010047639022767544,-0.012263141381461173
1761412873000236300,0.842236328125,0.0031248540222644804,0.004743249004334211,0.0072906501985155045
1761412873010249200,0.852249267578125,0.018299042278528212,-0.007823971623927355,0.011068049845378845
1761412873020262100,0.86226220703125,0.03796469673514366,0.004595949488133192,-0.011296817099954932
1761412873030275000,0.872275146484375,0.028715806874632835,0.006504267327487468,-0.015921609090082348
1761412873040288300,0.882288330078125,0.023922142857313155,-0.0004958206929266452,-0.016763905133120715
1761412873050300200,0.892300048828125,0.028385552006959913,-0.0005072188697755336,-0.0020732443437911567
1761412873060313300,0.902313232421875,0.0500841735959053,0.007558014164119958,0.01700158634651452
1761412873070326000,0.912325927734375,0.03199029850065708,-0.004763415009528398,0.001093549124058336
1761412873080339200,0.922339111328125,0.018785949012637138,0.0027661037124693394,-0.009314100583828986
1761412873090352000,0.93235205078125,0.02951543281972408,0.018825696501135827,0.020795882329251617
1761412873100365000,0.942364990234375,0.03277589592039585,0.027533465222269297,0.008923512097354978
1761412873110378200,0.952378173828125,0.03408171782195568,0.006835691238939762,0.01189702974911779
1761412873120391200,0.96239111328125,0.027884032225608823,0.015249007058143615,0.012090944886021315
1761412873130404400,0.972404296875,0.03577332417070865,-0.002019230867922306,-0.00824033387247473
1761412873140417000,0.9824169921875,0.0264776725590229,-0.010329524704068898,-0.01233185923611745
1761412873150430200,0.99243017578125,0.012400631889700888,-0.0026768179938197133,0.01162287071654573
1761412873160443100,1.002443115234375,0.012427519896626472,0.001970569420605898,0.0035403942869044838
1761412873170455300,1.012455322265625,0.038357495445013046,-0.007088496956229209,0.01336324811046943
1761412873180468000,1.022468017578125,0.035440146693587304,0.0052237259976565835,-0.006173793264105915
1761412873190481200,1.032481201171875,0.040704935353994366,0.0097260058529675,-0.0013418430630117654
1761412873200494000,1.042494140625,0.02441197220087051,0.0022914719380438325,-0.006342756622843444
1761412873210507300,1.05250732421875,0.030711364606022834,-0.009285568609088659,0.004142323969118297
1761412873220520200,1.062520263671875,0.04374561822414398,-0.0005262158311903477,-0.0029502098414115607
1761412873230533000,1.072533203125,0.0290963306248188,-0.022318214792013166,0.006525839838478714
1761412873240546300,1.08254638671875,0.019539397728443146,0.006452829401195049,0.019939137635752557
1761412873250559000,1.09255908203125,0.04466156402528286,0.014151421079784631,-0.004314283002540469
1761412873260572200,1.102572265625,0.02267185053527355,0.013208879532665014,0.0017783713167533277
1761412873270585000,1.112585205078125,0.011402853024005889,0.013157879997789858,0.010337415749579668
1761412873280598300,1.122598388671875,0.030700843212008475,0.002862403693795204,0.01920079515753314
1761412873290611200,1.132611083984375,0.014806523987650871,-0.005219488213956356,0.001205412000697106
1761412873300623000,1.142623046875,0.029921675533056257,-0.001936228759586811,0.00000383592490106821
1761412873310636000,1.152635986328125,0.015820669466257094,0.004830781157314777,-0.00942201793771237
1761412873320649200,1.162649169921875,0.01687222434580326,-0.0008962181873619555,-0.014665435016527771
1761412873330662100,1.172662109375,0.03199672824144363,0.00010039163455367087,0.0053010107512585815
1761412873340675000,1.182675048828125,0.04833411505818367,-0.0022498247534036633,0.007968878253642469
1761412873350688300,1.192688232421875,0.01795709697306156,0.008365823415666818,-0.0029202165619470178
1761412873360701200,1.202701171875,0.021646014618873596,0.009942425082623958,0.010531458750646561
1761412873370714000,1.212714111328125,0.028207857352495192,-0.007586655736714601,0.01182736204639077
1761412873380727000,1.22272705078125,0.03299216901957989,-0.009627221653610468,0.004729786734562367
1761412873390740200,1.232740234375,0.025705519142746925,-0.009553718025982379,0.003933795784972608
1761412873400753200,1.242753173828125,0.01988777277469635,-0.012171499308943748,-0.0000903451645746827
1761412873410766000,1.25276611328125,0.022888708156347273,0.014861907436698674,-0.01196777516407892
1761412873420778200,1.2627783203125,0.016192425388097762,-0.002539016958326101,-0.007306158294901251
1761412873430791200,1.272791259765625,0.022628011393547056,-0.0014789865113794803,0.010792630437482147
1761412873440804400,1.282804443359375,0.02910860558450222,0.0023391104720532894,-0.010893606593925504
1761412873450817000,1.292817138671875,0.026265491113066673,0.007553337989002466,0.005380889320746064
1761412873460830200,1.302830322265625,0.004836918637156486,-0.005924567743390798,0.005964936286397278
1761412873470843100,1.312843017578125,0.047906245034933084,0.008008388280123471,0.019673837763071057
1761412873480856000,1.32285595703125,0.043402503874897955,0.007934007869660854,0.005148980261012912
1761412873490869000,1.332868896484375,0.03667173431515693,0.02333060670495033,0.011273965947329998
1761412873500882200,1.342882080078125,0.020638298881053924,0.011478840869665146,-0.0008148783131502568
1761412873510895400,1.352895263671875,0.025565233889222144,0.0023925942249596118,-0.011562573630362748
1761412873520908000,1.362907958984375,0.028423545929789542,0.007550561510026454,-0.0039335400566458695
1761412873530921200,1.372921142578125,0.024380408018827435,-0.003032645694166422,-0.0006083776893094181
1761412873540934100,1.38293408203125,0.02331716270148754,-0.011025690274685621,0.008726948345638811
1761412873550946300,1.3929462890625,0.01715630198419094,-0.004760930791497231,0.011215897350851446
1761412873560959000,1.402958984375,0.030182372295856474,0.013904168320447205,0.007318013129476457
1761412873570972200,1.41297216796875,0.033192075505852695,-0.003701046475023031,0.008320961360633372
1761412873580985000,1.422985107421875,0.035313889965415,-0.0021954642176628112,0.0008215455159544944
1761412873590998300,1.432998291015625,0.029781390279531476,-0.0010028934322297573,-0.0005266359562985599
1761412873601011200,1.44301123046875,0.019315525844693184,-0.0023950784429907796,0.0009635660688392817
1761412873611024100,1.453024169921875,0.030695582515001294,0.0020360358722507953,0.014148297540936619
1761412873621037300,1.463037353515625,0.021729601249098777,-0.006559358515590429,-0.01534457638710737
1761412873631050000,1.473050048828125,0.04254851739406586,-0.00412438645362854,-0.005836925992555916
1761412873641063200,1.483063232421875,0.02821370257139206,0.006499152760952711,-0.004419204681739211
1761412873651076000,1.493076171875,0.021608605217933653,0.02278787813037634,0.0014133191303350031
1761412873661089300,1.50308935546875,0.02879880898296833,0.008078677037358284,-0.007914937843009829
1761412873671103200,1.513103271484375,0.02354629528224468,0.025347207224369048,0.006300817177258431
1761412873681115100,1.523115234375,0.03626081542670727,0.025690321573615074,0.0074946300717070695
1761412873691128300,1.53312841796875,0.024710662886500357,0.01493175780251622,0.0019458185718394816
1761412873701141000,1.54314111328125,0.0269178175419569,0.0034573008470237254,0.0022705570141784846
1761412873711154200,1.553154296875,0.02357201424539089,0.012128683080524205,-0.004539524859469383
1761412873721167000,1.5631669921875,0.02713876681625843,0.0022461714915931225,-0.002923175704013556
1761412873731180300,1.57318017578125,0.024127310040593146,-0.009934680167585612,0.00806779031716287
1761412873741193000,1.58319287109375,0.027250410497188567,-0.003075608053058386,-0.01641883628880605
1761412873751206100,1.5932060546875,0.028790625676512718,-0.00016600421667099,-0.012559585311077535
1761412873761219300,1.60321923828125,0.020620178702473638,0.0028200258567929264,-0.0017276823091320693
1761412873771232300,1.613232177734375,0.026924831804633138,0.003311608766019344,-0.011194836296513676
1761412873781245200,1.6232451171875,0.04026011419594288,0.020424656130373475,-0.002229823144990951
1761412873791258000,1.633258056640625,0.01979366475045681,0.009174947841465473,0.02068478663759306
1761412873801270300,1.643270263671875,0.029713585740327834,0.004016542164981365,0.021953345268685368
1761412873811283200,1.653283203125,0.03197685449719429,-0.0032626550577580927,0.009831238059420138
1761412873821296000,1.663296142578125,0.04634498706758022,-0.004756985268741846,-0.00021002602148801087
1761412873831309000,1.67330908203125,0.028975919115543362,-0.0013869243137538433,-0.0028972375451587137
1761412873841322200,1.683322265625,0.02580371882021427,0.0031070261046290395,-0.011885247979778796
1761412873851335200,1.693335205078125,0.0344599034845829,0.0030821839243173597,-0.01633694842532277
1761412873861348000,1.70334814453125,0.03445288922190666,-0.0010689444057643412,0.0006006145079620182
1761412873871361300,1.713361328125,0.026658289822936058,-0.006259644916653633,0.0144715381459333
1761412873881374200,1.723374267578125,0.028740941315889355,-0.0024795418560504914,0.01277956647099927
1761412873891387100,1.73338720703125,0.03229541892707348,0.003538841650635004,0.024668047587480396
1761412873901400000,1.743400146484375,0.030651743373274802,0.009523761279135942,0.01143620730433613
1761412873911413200,1.753413330078125,0.026007716959714888,0.006130173318088054,0.014591383399628103
1761412873921425200,1.763425048828125,0.034464579659700394,0.0012874094620347022,0.004385284145828336
1761412873931438000,1.77343798828125,0.0286170226752758,0.008229775945842266,-0.0088112656282261
1761412873941451000,1.783450927734375,0.02311491812765598,0.011937982814013957,-0.0052241826553829016
1761412873951464200,1.793464111328125,0.02866319990456104,-0.001132218900322914,0.00023744375137612223
1761412873961477400,1.803477294921875,0.02045417448580265,-0.011413812809437512,0.0023564269330352545
1761412873971490000,1.813489990234375,0.021664719319343564,0.0009311433702707291,-0.012330397931393235
1761412873981503200,1.823503173828125,0.019569792866706848,0.0016807926937937735,-0.0036545221858657892
1761412873991516200,1.83351611328125,0.021094810476899147,0.013793693683296441,-0.014617339824791997
1761412874001529300,1.843529296875,0.01334346569776535,0.02157280325219035,0.002482482731807977
1761412874011542000,1.8535419921875,0.017974632629752157,0.012207885796576737,0.014155713662412016
1761412874021555200,1.86355517578125,0.026671149304509163,0.011689999402314424,-0.014675846812687814
1761412874031568100,1.873568115234375,0.03102174572944641,0.005363134468346834,0.009679262368101627
1761412874041581000,1.8835810546875,0.026819033342599868,-0.015352905824035406,0.018033157883957027
1761412874051593000,1.893593017578125,0.039565702190995214,0.0033808746099472046,-0.0078056870485655955
1761412874061606100,1.903606201171875,0.034193361502885815,-0.007615735700726508,-0.005538253573235124
1761412874071619300,1.913619384765625,0.020700842723250387,0.001187602349370718,0.009368461119569838
1761412874081632300,1.92363232421875,0.02403963175714016,0.004216887042671442,-0.003933101665228605
1761412874091645200,1.933645263671875,0.03410451417565345,0.009390198027342558,0.011861008587665854
1761412874101658000,1.943658203125,0.029615386062860488,-0.010349544578790663,0.010300590870529413
1761412874111671300,1.95367138671875,0.035605566388368606,-0.017109832493960857,0.014628920664731412
1761412874121684000,1.96368408203125,0.02978080575764179,0.0022923487208783627,0.006916245661862194
1761412874131697200,1.973697265625,0.027680618607997892,0.0032312370061874387,-0.007357943281065672
1761412874141710000,1.9837099609375,0.018128946408629415,-0.004519669381529093,0.005775605993065982
1761412874151723300,1.99372314453125,0.03134264824688435,-0.01914133832156658,0.008929978370759636
1761412874161736200,2.003736083984375,0.03450432714819908,-0.008465922789275646,-0.0013875819008797405
1761412874171748000,2.013748046875,0.018490180936455724,0.0014091361455619335,-0.005102474238164722
1761412874181761300,2.02376123046875,0.036004210317134855,0.01242474341765046,0.02373246550410986
1761412874191774200,2.033774169921875,0.019797171881794928,0.011926146245747804,0.018251422010827807
1761412874201787100,2.043787109375,0.02952244708240032,-0.007358984460681677,0.014157595092244445
1761412874211800000,2.053800048828125,0.02264437800645828,0.01745265458226204,0.004728398495074362
1761412874221813200,2.063813232421875,0.024101591077446936,-0.005397621259838343,0.005220766855590045
1761412874231826200,2.073826171875,0.025386370190978048,0.0029984511636197567,0.004571344769839197
1761412874241839000,2.083839111328125,0.03909750015735626,0.010301029261946678,-0.015796631003543733
1761412874251852300,2.093852294921875,0.01933481506705284,0.0049715048022568225,-0.015035346041154116
1761412874261865200,2.103865234375,0.02439326750040054,0.012589432460069655,-0.00005865311836823821
1761412874271878100,2.113878173828125,0.04039630779623985,0.014390490532666445,-0.010808558658976107
1761412874281891000,2.12389111328125,0.018980010280013084,0.009677052144706249,0.008771974797453732
1761412874291904300,2.133904296875,0.019294483056664466,0.005863339075446129,0.011962331803981215
1761412874301916200,2.143916259765625,0.017654899156093598,0.008263824345916508,0.017678133901208638
1761412874311929300,2.153929443359375,0.025852818658947944,-0.012496785740554331,-0.004033876892272382
1761412874321942000,2.16394189453125,0.019857377636432645,-0.001656681165844202,-0.020824450836610046
1761412874331955200,2.173955078125,0.029008067819476124,-0.015555296528339386,-0.01716097815930843
1761412874341968100,2.183968017578125,0.04252162938714027,-0.0012920856371521948,0.006849774563219398
1761412874351981000,2.19398095703125,0.02643383341729641,-0.0016729016482830046,0.024517916793376206
1761412874361994200,2.203994140625,0.026333295652270317,0.004817483284324407,0.007999255125597118
1761412874372007200,2.214007080078125,0.033247020563483234,-0.0020681845761835573,-0.001966021109651774
1761412874382020400,2.224020263671875,0.03569792084693908,0.010666501573473215,0.011018274153210222
1761412874392033000,2.234032958984375,0.022102526214718816,0.015368687915056942,0.006593827040772885
1761412874402046200,2.244046142578125,0.020916531300544737,0.0042379298307001585,0.005847374321334063
1761412874412059100,2.25405908203125,0.024811785173416135,0.0020928806260228157,0.0032681897494010624
1761412874422071300,2.2640712890625,0.03334054406583309,0.004490004895627498,0.00040942105110734696
1761412874432084000,2.274083984375,0.026857611787319182,0.01818140724822879,0.0045117966023273766
1761412874442097200,2.28409716796875,0.022482465443015097,0.015814385855942963,0.01086454489622265
1761412874452110000,2.294110107421875,0.027380758878588676,0.03546995730996132,0.008589640500489621
1761412874462123300,2.304123291015625,0.023916882160305974,0.01748392650336027,0.0009808642635121942
1761412874472136200,2.31413623046875,0.030333178943395614,0.02759440162926912,-0.010910375065635889
1761412874482149000,2.324149169921875,0.0234060100287199,0.007458791573345661,0.006025397769361734
1761412874492162300,2.334162353515625,0.036841245663166045,0.015259674582630394,0.010823683162871748
1761412874502175000,2.344175048828125,0.029501404294371602,-0.0005428747050464153,0.001993584970012307
1761412874512188200,2.354188232421875,0.029078794968128204,-0.013693009787797927,-0.011120638549141585
1761412874522201000,2.364201171875,0.02491933720111847,-0.002790069109946489,-0.008367887508589774
1761412874532214300,2.37421435546875,0.030322657549381255,0.010298106652498244,0.012768716283421962
1761412874542226200,2.38422607421875,0.04561433470547199,0.01973988873660564,-0.001758862898685038
1761412874552239000,2.394239013671875,0.01903203272819519,0.0007636778488755225,0.0005102693433873355
1761412874562252000,2.404251953125,0.011720248410105705,-0.014011428087204694,0.0013839103727601469
1761412874572265200,2.41426513671875,0.027627427116036413,-0.005574146870523691,-0.01657884915610775
1761412874582278100,2.424278076171875,0.030976153022050857,0.013140344341099262,-0.0072427924687974155
1761412874592291000,2.434291015625,0.04023497975468635,0.010557049849629402,-0.014919391511287539
1761412874602304300,2.44430419921875,0.03397708840370178,-0.0008075169906020164,-0.011197813704889268
1761412874612317200,2.454317138671875,0.02677928585410118,0.006148147366195917,-0.009914258434064686
1761412874622330000,2.464330078125,0.015411504143476485,0.013166940087080001,0.009333590735588222
1761412874632343000,2.474343017578125,0.03847966051995754,-0.007302139706909656,-0.0024293643050827085
1761412874642356200,2.484356201171875,0.01828092209994793,0.001974514943361282,-0.012516184560768305
1761412874652369200,2.494369140625,0.013939678025245665,0.008432458911091088,0.006136730923037976
1761412874662382000,2.504382080078125,0.02653963187932968,0.00466857633292675,-0.00427912035761401
1761412874672393500,2.5143935546875,0.03209609696269035,0.0035215982548892494,0.010405859609600157
1761412874682406700,2.52440673828125,0.028075170883536338,0.013287936118245124,-0.0013172018120996653
1761412874692419600,2.534419677734375,0.018503624939918518,-0.008434504737704991,-0.011926511571928857
1761412874702432500,2.5444326171875,0.033797640183568,0.002333703644573688,0.007436506676301359
1761412874712445400,2.554445556640625,0.02154723041951656,0.0025150515608489514,0.0028510055169463154
1761412874722458600,2.564458740234375,0.022878186762332914,0.004683920032531022,0.012639664809964597
1761412874732471600,2.574471435546875,0.021223405292630195,-0.005152414327114821,0.003475768085476011
1761412874742484500,2.584484375,0.02989946370124817,0.009518646712601185,0.00938703795587644
1761412874752497700,2.59449755859375,0.02586860074996948,0.014246990408748387,0.001532269334886223
1761412874762510600,2.604510498046875,0.027253333106637,0.00747296622917056,0.0017383498336188494
1761412874772523500,2.6145234375,0.02156242798864841,0.00718976537361741,0.026231625376082954
1761412874782536400,2.624536376953125,0.028614100065827368,-0.008478343879431485,-0.01273899699859321
1761412874792548600,2.634548583984375,0.018007950377464294,-0.011421119333058595,0.0026263299155980346
1761412874802561500,2.6445615234375,0.01638473308980465,-0.0075157824575901025,-0.0018369879025034606
1761412874812574700,2.65457470703125,0.019116203880310056,0.006806026753038167,0.0010570895711891353
1761412874822587400,2.66458740234375,0.02916822681725025,-0.008003419844061136,-0.002130235228035599
1761412874832600600,2.6746005859375,0.020785013875365257,-0.0023166063793003556,-0.001830941754207015
1761412874842613500,2.684613525390625,0.026018822875618932,0.02012391961812973,-0.00559067788021639
1761412874852626700,2.694626708984375,0.03710544955730438,0.036798721695691344,-0.00092102383505553
1761412874862639600,2.7046396484375,0.023331191226840017,0.03487783663570881,0.006280833835154771
1761412874872652500,2.714652587890625,0.025857494834065436,0.012227028888463973,0.0185730369143188
1761412874882665700,2.724665771484375,0.02957037787735462,0.01628638728186488,0.007660250695887953
1761412874892678400,2.734678466796875,0.018753800308704376,0.0021598083823919294,-0.013016882358212023
1761412874902691600,2.744691650390625,0.03578092295527458,0.021931261301040648,-0.01626423024898395
1761412874912704500,2.75470458984375,0.02092120747566223,-0.00015650573596358297,-0.019073643380217255
1761412874922716700,2.764716552734375,0.013408932149410246,0.02541822663396597,0.007825597325433045
1761412874932729600,2.7747294921875,0.042453824847936625,0.01743058888092637,-0.0005214117919094861
1761412874942742500,2.784742431640625,0.012957096728682517,-0.028966274504363534,-0.003598170622438192
1761412874952755700,2.794755615234375,0.0037269115686416623,-0.012018792965263127,-0.008928517066035419
1761412874962768600,2.8047685546875,0.025915947023034094,0.017989537937939167,-0.04675765952169895
1761412874972781600,2.814781494140625,0.009620061260461806,-0.010266834731400012,-0.0272128184331581
1761412874982794500,2.82479443359375,0.02312368595600128,-0.019956892488151787,0.03640539326285943
1761412874992807700,2.8348076171875,0.03879822494983673,0.0047977556705474855,0.04266003321083262
1761412875002820600,2.844820556640625,0.02648819395303726,-0.017667174115777014,0.039767088248301295
1761412875012833500,2.85483349609375,0.020689152285456657,0.01294759824797511,0.014960673369746654
1761412875022846500,2.864846435546875,0.043159927290678024,0.0033734219558537006,-0.006718969524092972
1761412875032859600,2.874859619140625,0.03867079917788505,0.007381342422962189,-0.009056874419748782
1761412875042871600,2.88487158203125,0.0306213482350111,-0.0022167992666363716,0.007337795542180538
1761412875052884500,2.894884521484375,0.040222704795002936,-0.010692220536619425,-0.00451742262551561
1761412875062897700,2.904897705078125,0.02302957793176174,0.015123480982333421,-0.010895707219466566
1761412875072910600,2.91491064453125,0.01804828238785267,0.02562529351338744,0.008923365966882556
1761412875082923800,2.924923828125,0.01990472390949726,0.029395021310448646,-0.005661459827795624
1761412875092936400,2.9349365234375,0.02823065370619297,0.0038185353748500343,-0.0021515702770091593
1761412875102949600,2.94494970703125,0.03596154021918774,-0.007451338919252157,0.013916315415967256
1761412875112962600,2.954962646484375,0.026672318348288534,-0.0008073708601295948,-0.007952639504894613
1761412875122975500,2.9649755859375,0.01636193673610687,-0.012861819660663604,-0.007247815703786909
1761412875132988700,2.97498876953125,0.030150808113813397,-0.012834054870903491,0.014248195985145866
1761412875143001600,2.985001708984375,0.030974983978271482,0.0007055179208517074,0.004850271309074014
1761412875153014800,2.995014892578125,0.029840426990389822,-0.006491407845914363,0.005124558205809444
1761412875163026700,3.005026611328125,0.015377017351984977,0.005807224974036216,0.019185305327456444
1761412875173039600,3.01503955078125,0.03056640317738056,0.01244505555331707,0.011746661492995917
1761412875183052500,3.025052490234375,0.029261750319600103,0.018366554556787013,0.012538816517684608
1761412875193065700,3.035065673828125,0.019860884767770766,0.002966010198742151,0.028991664673946795
1761412875203078400,3.045078369140625,0.030493337941169738,0.019539689989387987,0.014547069333866238
1761412875213091600,3.055091552734375,0.03523907116353511,0.026792875988036393,0.021254110958147793
1761412875223104500,3.0651044921875,0.046847091370821,0.019212649992108345,0.012240271962527185
1761412875233117700,3.07511767578125,0.025642975300550458,0.009558540331572293,0.013938161921594291
1761412875243130600,3.085130615234375,0.018379121777415273,-0.008096066563576459,0.01384005357567221
1761412875253143600,3.0951435546875,0.0359977805763483,-0.026780016506463288,-0.057973155013751235
1761412875263156700,3.10515673828125,0.023507716837525366,0.035938305474072695,-0.07599151718737557
1761412875273169400,3.11516943359375,-0.00036941783428192136,0.014574176536500453,-0.04005936745945364
1761412875283182600,3.1251826171875,0.019907646518945693,-0.015766308930516244,-0.030587829557899383
1761412875293194500,3.135194580078125,0.02858136684000492,-0.004079816659539937,0.06987504360107705
1761412875303207700,3.145207763671875,0.02352057631909847,-0.004231061698496342,0.05105824279244989
1761412875313220600,3.155220703125,0.017999182549118996,-0.012153525260835886,-0.042532972765062
1761412875323233500,3.165233642578125,0.014398527708649635,-0.0006163783326745033,0.007368428142461926
1761412875333246500,3.17524658203125,0.01924246060848236,0.0023364801235496997,0.030767971897777167
1761412875343259600,3.185259765625,0.04897708913683891,-0.010799626433849335,0.012434826420247553
1761412875353272600,3.1952724609375,0.04813362405002117,0.002094634191691875,0.04827484088530764
1761412875363285500,3.205285400390625,0.02377250525355339,0.023589988293498752,0.016349132053460926
1761412875373298700,3.215298583984375,0.01941664813160896,0.010536153192073107,-0.031012448178138582
1761412875383311600,3.2253115234375,0.033493104279041286,0.007919979344308376,-0.006897358298301696
1761412875393324500,3.235324462890625,0.04292436496913433,0.008799246396869421,0.02156211746139452
1761412875403337500,3.24533740234375,0.027362054178118704,0.016899404613673685,-0.030359592026285825
1761412875413349600,3.255349609375,0.026156185519695282,-0.004200520429760217,0.0003854739199392497
1761412875423362600,3.265362548828125,0.034925767430663106,-0.014843202736228703,0.002721424320526421
1761412875433375500,3.27537548828125,0.04825052842795849,0.008199673068523407,-0.004212302199099213
1761412875443388400,3.285388427734375,0.019418986219167707,0.022015432453155515,0.013030618622619658
1761412875453401600,3.295401611328125,0.019873159727454185,0.0025203122578561304,-0.007422131091076881
1761412875463414800,3.305414794921875,0.03750643157362938,0.0020300445228815076,0.00007388722011819481
1761412875473427500,3.315427490234375,0.03253448837995529,0.015632599548250435,0.0224889134501107
1761412875483440600,3.325440673828125,0.036819033831357956,0.012034575056284665,0.016839509386289864
1761412875493453600,3.33545361328125,0.02947451628744602,0.0011954933948814868,0.00876724382340908
1761412875503466500,3.345466552734375,0.02432663200497627,-0.004310118284076452,0.0036170945186167953
1761412875513479400,3.3554794921875,0.04165653699040413,0.0006165244631469249,-0.003329107890091836
1761412875523492600,3.36549267578125,0.016347908210754394,-0.006914017172157764,0.021497838319838047
1761412875533504500,3.37550439453125,0.01828384470939636,-0.004760930791497231,0.012000179596338421
1761412875543517700,3.385517578125,0.025847557961940763,-0.0024884558148682116,0.009069423374067992
1761412875553530600,3.395530517578125,0.028399580532312393,-0.0022303894005715847,0.011179857923090458
1761412875563543600,3.40554345703125,0.03850187235176563,-0.0059866731941699974,-0.020608543063607064
1761412875573556700,3.415556640625,0.04333294577002525,-0.004097644577175379,-0.07539853799659758
1761412875583569400,3.4255693359375,0.03434066101908684,0.020106822352856397,-0.011614650877472012
1761412875593582600,3.43558251953125,0.03312427096664906,0.030626901192963123,0.03104368356661871
1761412875603595500,3.445595458984375,0.02381225274205208,-0.0036785423822700974,0.04932603043867275
1761412875613608700,3.455608642578125,0.039536476096510884,-0.017736293829232454,0.02910666935574263
1761412875623621400,3.465621337890625,0.01981412301659584,0.021136165400594473,-0.002970047053042799
1761412875633634600,3.475634521484375,0.007525134807825088,0.017296148846298456,-0.017273352492600678
1761412875643647700,3.485647705078125,0.027860066828131674,-0.005849164419621229,-0.01364206505184993
1761412875653660400,3.495660400390625,0.033572599256038664,0.0019359364986419676,0.010985139068588614
1761412875663672600,3.505672607421875,0.03376899861097336,0.013833733432739971,0.004413761321641505
1761412875673685500,3.515685546875,0.01374737032353878,0.00948182183355093,-0.001003770215064287
1761412875683698700,3.52569873046875,0.011361936491727828,-0.0019644319407641888,0.007447612592205405
1761412875693712000,3.5357119140625,0.04611468544304371,-0.0017256547488272188,0.01765148335630074
1761412875703724500,3.545724609375,0.04690145190656185,-0.0010083002597093581,0.013915950089786201
1761412875713737700,3.55573779296875,0.029099253234267233,-0.010563333459943532,-0.0017273352492600679
1761412875723750700,3.565750732421875,0.02637538122832775,-0.0009618307694792747,0.005891140397824347
1761412875733763600,3.575763671875,0.025883213797211646,0.001344838737696409,-0.002619169522449374
1761412875743776500,3.585776611328125,0.030059038177132603,-0.018053689215332267,-0.00978758158078417
1761412875753789700,3.595789794921875,0.03977788363695144,-0.017228636568039656,-0.003230360223352909
1761412875763803000,3.605802978515625,0.034981297010183335,-0.00804550542011857,-0.007605177774094044
1761412875773815600,3.615815673828125,0.02989186491668224,0.01917933224439621,0.005709682883694767
1761412875783827500,3.625827392578125,0.03509995495378971,0.014676175606250763,-0.00012826602216809988
1761412875793840600,3.635840576171875,0.02325871051251888,0.004757277529686689,-0.0009819419757463037
1761412875803853800,3.645853759765625,0.031179566639661788,0.008114040611684322,0.015262980784568935
1761412875813866500,3.655866455078125,0.04299392307400703,0.0038185353748500343,0.013384765822533517
1761412875823879700,3.665879638671875,0.024589666855335233,-0.0045702305249869825,-0.009840042420383542
1761412875833892600,3.675892578125,0.023814590829610825,0.0024517770662903786,0.006884900675527751
1761412875843905800,3.68590576171875,0.022741408640146253,0.017250848399847744,-0.0007460873932577669
1761412875853918500,3.69591845703125,0.017784663015604017,0.0006017652854323387,0.0028017960803583264
1761412875863931600,3.705931640625,0.01870002429485321,-0.010720131456851958,0.009317735579330473
1761412875873944800,3.71594482421875,0.025462358036637305,-0.012087182026356459,-0.008629881179332733
1761412875883957500,3.72595751953125,0.04897533557116985,0.007257716043293476,-0.006426672046631574
1761412875893970700,3.735970703125,0.03144786218702793,0.012008856093138455,-0.000679908555559814
1761412875903983600,3.745983642578125,0.0338104996651411,0.004097060055285692,0.015365052919555455
1761412875913995800,3.755995849609375,0.03009235592484474,-0.01024798390045762,0.01573571286285296
1761412875924008700,3.7660087890625,0.029345336949825284,0.0024736966371536255,0.002187390509061515
1761412875934021600,3.776021728515625,0.030395138263702392,-0.004430237532407045,0.0064688124216161665
1761412875944034600,3.78603466796875,0.025430209332704543,0.016195932519435883,-0.0009872940042987466
1761412875954047700,3.7960478515625,0.02182312475144863,0.0065390463799238204,-0.004222750527877361
1761412875964060700,3.806060791015625,0.01866729106903076,-0.008340835104882717,0.013983699830062686
1761412875974073600,3.816073486328125,0.030221535262465474,0.0003112579062581062,-0.00044703138144686815
1761412875984086800,3.826086669921875,0.026449615508317946,0.0024174364052712916,0.0034267413119785485
1761412875994099700,3.836099609375,0.01925590461194515,0.005163812503963709,-0.0031843839234672487
1761412876004112600,3.846112548828125,0.01761515166759491,0.0003618190497159958,0.005749320774339139
1761412876014125600,3.85612548828125,0.017463175976276397,0.012497370262444019,-0.005030103121697903
1761412876024138800,3.866138671875,0.019419570741057393,0.007955196788161992,-0.0033303134664893147
1761412876034150700,3.876150634765625,0.022565467551350592,-0.006593845307081937,-0.00030249007791280743
1761412876044163600,3.88616357421875,0.024253566768765448,0.00019727613776922225,0.00595779415955767
1761412876054176500,3.896176513671875,0.03415244497060776,0.00021101240217685698,0.021541531331092118
1761412876064189700,3.906189697265625,0.03249707897901535,0.014028233091533183,0.011384623247571288
1761412876074203000,3.916202880859375,0.03786357444822788,0.01337371470555663,0.01321136375069618
1761412876084215600,3.926215576171875,0.016771686580777167,0.0014633505508303642,0.044838162701204415
1761412876094228700,3.936228759765625,0.03613338965475559,-0.021512012975662947,0.05291939702183008
1761412876104241700,3.94624169921875,0.05669686973392963,0.05743921253383159,-0.025869112206622958
1761412876114254600,3.956254638671875,0.011270166555047034,-0.004241144701093435,-0.0440859926270321
1761412876124267500,3.966267578125,0.028355741390585897,0.0002589431971311569,-0.04886069621555507
1761412876134280700,3.97628076171875,0.03666939622759819,0.035701281847804786,-0.045221207202039655
1761412876144293600,3.986293701171875,0.011076689809560775,-0.038200697448104615,0.04364354608915746
1761412876154306600,3.996306640625,0.03073591452538967,-0.0259821441270411,-0.009795289963204412
1761412876164318500,4.006318359375,0.023153496572375296,0.0343782165504992,-0.03150998590411618
1761412876174331600,4.01633154296875,0.01756371374130249,0.007291618312895298,-0.020733411552291362
1761412876184344800,4.0263447265625,0.04068389256596565,-0.0005664017111063003,-0.0019800861676223577
1761412876194357800,4.036357666015625,0.034248891082406044,0.012195756967365742,0.03738934453260153
1761412876204370700,4.04637060546875,0.028777766194939613,0.0098839728936553,0.054422842121031136
1761412876214383600,4.056383544921875,0.016564765831828115,0.013648586124181747,0.014211590301804244
1761412876224396800,4.066396728515625,0.041860535129904744,0.014535890352725981,-0.012069555038120596
1761412876234409500,4.076409423828125,0.04674304647445678,0.02078720583245158,-0.0029984328973107037
1761412876244422700,4.086422607421875,0.03223229056298733,-0.0013505378261208533,-0.0026146760104224084
1761412876254435800,4.096435791015625,0.02293839251697063,-0.015422756189852952,-0.015617949968390166
1761412876264448800,4.10644873046875,0.025674539482593534,-0.015511749647557735,0.00297390124425292
1761412876274461700,4.116461669921875,0.034409050080180165,-0.01193374503031373,-0.0012459266741760074
1761412876284473600,4.1264736328125,0.04416705850660801,-0.018080723352730272,-0.009140442783664911
1761412876294486800,4.13648681640625,0.03669979136586189,0.003848492121696472,0.004088584487885237
1761412876304499700,4.146499755859375,0.024719430714845655,0.006278788008540868,0.016722057019080964
1761412876314512600,4.1565126953125,0.024104513686895368,0.010257920772582292,0.001018310197070241
1761412876324525600,4.166525634765625,0.008242343166470528,-0.000646627340465784,-0.005426390696596354
1761412876334538800,4.176538818359375,0.017500585377216337,0.012025368836522101,-0.010527458428964019
1761412876344551700,4.1865517578125,0.028695348608493803,0.015309358943253755,-0.0154983604430221
1761412876354564600,4.196564697265625,0.03331774771213531,-0.003451601758599281,-0.0004684029630385339
1761412876364577800,4.206577880859375,0.029060090267658233,-0.005071165784448385,0.009007884178869425
1761412876374590700,4.2165908203125,0.02274550029337406,-0.017510814510285855,0.008369951601512729
1761412876384603600,4.226603759765625,0.02200491105914116,0.0021972177833318707,0.002049132815841585
1761412876394616600,4.236616455078125,0.038503041395545,-0.009693711018562316,0.023878924770094453
1761412876404628700,4.246628662109375,0.01894260087907314,0.011621464210748672,0.019456121625471858
1761412876414641700,4.2566416015625,0.028102643412351608,0.010694120232760906,0.014427406743261963
1761412876424654800,4.26665478515625,0.015243161839246748,0.0007673311106860637,0.013514785410370676
1761412876434667500,4.27666748046875,0.02256780563890934,-0.03469970358982682,0.020818441220931707
1761412876444680700,4.2866806640625,0.04011573728919029,-0.03240735486894846,0.04698536733034998
1761412876454693600,4.296693603515625,0.04948854579031467,0.09792948222383856,0.0008426431029103696
1761412876464706600,4.30670654296875,0.0422720385402441,-0.00390869787633419,-0.15824485298218205
1761412876474719700,4.3167197265625,0.018325345763564108,0.018819705151766536,-0.0925071101152338
1761412876484732700,4.326732666015625,-0.021305238357186316,0.08354235269203782,0.0437045555613935
1761412876494745900,4.336745849609375,0.013614099332690238,-0.08116027986109256,0.06496730648372322
1761412876504758500,4.346758544921875,0.057443304187059396,-0.06809416979998349,0.040455326240789145
1761412876514771700,4.356771728515625,0.023746201768517494,0.06455328232273459,0.019772183571010828
1761412876524784600,4.36678466796875,-0.0014946224719285964,0.05097264686822891,-0.0811466349282302
1761412876534796800,4.376796875,0.01672492482960224,-0.02277647995352745,0.019717950899433342
1761412876544809500,4.3868095703125,0.07235270402729511,0.004977934543043375,0.10881355380443855
1761412876554822700,4.39682275390625,0.07274316464960574,0.025509558179229497,-0.049501058212015774
1761412876564835600,4.406835693359375,-0.03864566473662853,-0.03306917977854609,-0.07571375969192012
1761412876574848800,4.416848876953125,-0.03335106545984745,-0.02547156425639987,0.025233371586352586
1761412876584861700,4.42686181640625,0.05456044222712517,0.022272622084617614,0.00041689197150990363
1761412876594874600,4.43687451171875,0.04387713564932346,-0.006389554906636476,0.015514197332970797
1761412876604887800,4.4468876953125,-0.018799977537989614,-0.011006254921853541,0.03903353154305368
1761412876614900500,4.456900390625,-0.012623919251561163,-0.00849018044769764,-0.0504686246025376
1761412876624913700,4.46691357421875,0.0345949280411005,0.008667290580272675,-0.023570735603757203
1761412876634926600,4.476926513671875,0.0421761769503355,-0.014186054001748561,0.05305822097063064
1761412876644939800,4.486939697265625,0.03222644534409046,0.012188742704689502,0.0062393510472960765
1761412876654951700,4.49695166015625,0.018041268125176427,0.029119126978516575,-0.0008500226917676628
1761412876664964600,4.506964599609375,0.009350012147426605,0.02640577636659145,0.0014865304970182478
1761412876674977800,4.516977783203125,0.05081424143612385,0.011221651238203048,-0.009973879666812718
1761412876684991000,4.526990966796875,0.04946224230527878,0.03404387002959847,-0.003310129194986075
1761412876695003600,4.537003662109375,0.027103110980987548,0.030506197422742843,0.011964834288321435
1761412876705016800,4.547016845703125,0.04198679185807705,0.004003390422463417,-0.020706541811674833
1761412876715029800,4.55702978515625,0.033551556468009947,-0.010862024145573378,-0.009824242063052952
1761412876725043000,4.56704296875,0.020056699600815773,-0.00806684046909213,0.014374233517609535
1761412876735055600,4.5770556640625,0.015555881050229071,-0.012338818699866532,0.01384027277138084
1761412876745068800,4.58706884765625,0.0188572606831789,-0.0223940565072,0.0066488999625667925
1761412876755082000,4.59708203125,0.03594634265005588,-0.0165916538387537,-0.0013009813296608625
1761412876765094700,4.6070947265625,0.02640285375714302,0.0014804478161036967,0.006103486240562051
1761412876775107800,4.61710791015625,0.017293664628267286,0.006912994258850813,0.009336038421001286
1761412876785119700,4.62711962890625,0.022550854504108427,-0.0016895605221390723,0.03173760238122195
1761412876795133000,4.6371328125,0.03495850065648556,0.0010818038873374462,0.023174192300532012
1761412876805145900,4.647145751953125,0.02804886739850044,0.010131225652992725,0.013831852002907544
1761412876815158800,4.65715869140625,0.03525777586400509,-0.03338511385992169,0.04790944163901731
1761412876825171700,4.667171630859375,0.05478372958898544,0.07688333319425582,-0.04509131547836587
1761412876835185000,4.677184814453125,0.029849779340624806,0.03546162787303328,-0.1212530563998036
1761412876845197600,4.687197509765625,0.0007546177595853806,0.023527882842719554,-0.02575370566602796
1761412876855210800,4.697210693359375,0.026691023048758505,0.02232727488130331,0.03571025060554966
1761412876865224000,4.707223876953125,0.05008768072724342,-0.055812049723416565,0.05352481556907296
1761412876875236900,4.71723681640625,0.039974282991886136,-0.03150222272276878,0.021800200533587485
1761412876885249800,4.727249755859375,0.02096913827061653,0.025989742911607026,-0.052052167466934765
1761412876895262700,4.7372626953125,0.009321955096721648,0.012607844899594782,-0.03235746957892552
1761412876905275000,4.74727490234375,0.04152969574034214,-0.0003021978169679642,0.05382639233153313
1761412876915287800,4.757287841796875,0.04781681318581104,0.02372983515560627,0.04370305772405118
1761412876925300700,4.76730078125,0.013572598278522491,-0.018193682207912204,-0.019174455139879136
1761412876935313700,4.777313720703125,-0.033621699094772334,-0.030258944663405417,-0.043457266269437966
1761412876945326800,4.787326904296875,0.012621581164002417,-0.011817863565683364,-0.017628175545949486
1761412876955339800,4.79733984375,0.05157119728326797,0.0008582242645323276,0.004504143018834293
1761412876965352700,4.807352783203125,0.035141456007957456,-0.0013385551273822783,0.05388537424346432
1761412876975366000,4.817365966796875,0.014201543831825255,-0.00583864302560687,0.009441215828526764
1761412876985378800,4.82737890625,0.015433715975284576,0.010746288811415433,-0.020121928590442983
1761412876995391700,4.837391845703125,0.020156652843952176,-0.013690817830711603,-0.00423469669399783
1761412877005404700,4.84740478515625,0.02340776359438896,-0.014820990904420614,0.007583714860957116
1761412877015417900,4.85741796875,0.03742752111852169,-0.0034526246719062325,-0.011304927341174333
1761412877025429800,4.8674296875,0.0168704707801342,0.022241204033046958,-0.0070125273768790065
1761412877035443000,4.87744287109375,0.010227379503846168,0.030382424912601708,-0.0007827478755265474
1761412877045455600,4.88745556640625,0.019803017100691794,0.01944309774711728,-0.011127835474908351
1761412877055468800,4.89746875,0.026832477346062658,0.026666911520808932,0.02065137755833566
1761412877065482000,4.90748193359375,0.04641863682568073,0.02573284554108977,0.005145564461220055
1761412877075494700,4.91749462890625,0.030693244427442548,0.0017201017908751964,-0.013959807497821747
1761412877085507800,4.9275078125,0.026443185767531394,0.0027639117553830144,-0.00947906362088397
1761412877095520800,4.937520751953125,0.030872108125686644,0.0003841770119965076,0.006971282051037996
1761412877105534000,4.947533935546875,0.011362521013617516,-0.012317483650892972,-0.003659344491455704
1761412877115546600,4.957546630859375,0.024063597154617308,-0.020297084227949378,0.011951262420695274
1761412877125559800,4.967559814453125,0.020624854877591133,-0.01387874161824584,-0.011995905280020086
1761412877135572700,4.97757275390625,0.02887538135051727,-0.01579538889452815,0.007200962621066719
1761412877145585700,4.987585693359375,0.013184475743770598,0.008326514318585396,0.022717516307905316
1761412877155597600,4.99759765625,0.01637304265201092,0.0016408990748226643,0.011555522835068404
1761412877165610800,5.00761083984375,0.018055881172418593,0.009978811570256948,0.010967950471770018
1761412877175624000,5.0176240234375,0.03302139511406421,0.011636661779880523,-0.0068143927225843065
1761412877185636900,5.027636962890625,0.024495558831095693,-0.0004701017297804355,-0.007180723550636321
1761412877195649800,5.03764990234375,0.01773673222064972,0.015618571022897957,-0.005196911055967211
1761412877205662700,5.047662841796875,0.011575871503353118,-0.026739830626547334,0.012028949033096432
1761412877215676000,5.057676025390625,0.05878595096766948,0.014939794978499411,-0.042430864097457374
1761412877225688600,5.0676884765625,0.03965221143066883,0.0826126706264913,-0.10773901990810408
1761412877235701800,5.07770166015625,-0.017376082214713096,0.037325814309716224,-0.03957750222664326
1761412877245715000,5.08771484375,0.01273907006382942,-0.008284136481583118,0.015267382965050636
1761412877255727900,5.097727783203125,0.07611001073420047,-0.021239625775068997,0.08378107508504763
1761412877265740800,5.10774072265625,0.05095628025531768,-0.03239201116934418,0.03805982767269015
1761412877275752700,5.117752685546875,0.004046060520410537,-0.020989742667227983,-0.03438365991059691
1761412877285766000,5.127765869140625,-0.004540566039085388,-0.0052970834948122495,-0.013551866017747669
1761412877295778800,5.13777880859375,0.05007599028944969,0.011574556329101324,0.00795780887035653
1761412877305791700,5.147791748046875,0.05102993001341819,0.0006141863755881786,0.053362756875157354
1761412877315804700,5.1578046875,0.012342764222621917,-0.008794862482696772,0.022589980938099323
1761412877325817900,5.16781787109375,-0.0012584756284952164,0.009658931966125965,-0.04817859570290893
1761412877335830800,5.177830810546875,0.005776245313882827,-0.015012860214710235,-0.056634508554823694
1761412877345843700,5.18784375,0.048582536861300464,0.009102174866199493,0.0019010478483512997
1761412877355857000,5.19785693359375,0.0478968926846981,0.01001622097119689,0.0336798407564871
1761412877365869800,5.207869873046875,0.009954407781362532,0.023381460109353065,0.019291633512452243
1761412877375882800,5.2178828125,0.011610358294844627,-0.011393354543298482,-0.029547435393184423
1761412877385895700,5.227895751953125,0.02791734997332096,-0.012962795817106961,-0.03460163177652284
1761412877395908900,5.237908935546875,0.029285715717077252,0.014128770856559275,0.02517994263237342
1761412877405920800,5.247920654296875,0.03204348999261856,0.023130407957732677,0.024904121365677562
1761412877415934000,5.257933837890625,0.029545827957987783,0.037439503817260265,0.008889408898353577
1761412877425946600,5.267946533203125,0.03375438556373119,0.016502514250576496,-0.01564924015579745
1761412877435959800,5.277959716796875,0.03631459144055843,0.010558511154353618,-0.0013013466558419167
1761412877445972700,5.28797265625,0.032708675903081894,0.020530016200989484,-0.0008636310920119285
1761412877455985700,5.297985595703125,0.018013795596361157,0.013228314885497092,0.026538115775678304
1761412877465998800,5.307998779296875,0.03144844670891762,-0.004529752384126186,0.009228559458535164
1761412877476011800,5.31801171875,0.0303992299169302,-0.006347469330579042,-0.011210545322299002
1761412877486025000,5.32802490234375,0.01814063684642315,-0.01750423863902688,0.00311128215463832
1761412877496037600,5.33803759765625,0.023850246664881704,0.0064743105806410305,0.007985062203463166
1761412877506050800,5.34805078125,0.031662966242432596,0.0011085457637906074,0.00917047259574756
1761412877516063700,5.358063720703125,0.032415830436348915,-0.017909604569524524,-0.001670326098706573
1761412877526076000,5.368075927734375,0.02870294739305973,-0.01208645137399435,-0.01151721838498488
1761412877536088800,5.3780888671875,0.01986030024588108,0.009354249931126832,-0.014010807032696903
1761412877546101800,5.388101806640625,0.017629180192947385,0.0040457682594656945,0.002302249060384929
1761412877556114700,5.39811474609375,0.02943886045217514,0.009638327569514512,0.0030127171509899196
1761412877566127900,5.4081279296875,0.05996142448782921,-0.014023703046888112,0.015599464463628828
1761412877576140800,5.418140869140625,0.04250993894934654,-0.011106938817352056,0.03977437650561332
1761412877586153700,5.42815380859375,0.029860300734639165,0.07303148007169366,-0.0617385354292579
1761412877596167000,5.4381669921875,0.014222002097964285,-0.006987666930258274,-0.06926650151498616
1761412877606179800,5.448179931640625,0.02716214769184589,-0.008977087181806565,-0.013461100728064775
1761412877616192800,5.45819287109375,0.02957388500869274,0.02697729264423251,0.0335518852615729
1761412877626205700,5.468205810546875,0.0299678527623415,-0.03878331964164972,0.059515525617543606
1761412877636219000,5.478218994140625,0.011221651238203048,-0.04142243597358465,0.02411673384765163
1761412877646231800,5.488231689453125,0.022065116813778877,-0.0023640987828373906,0.005988097966276109
1761412877656243700,5.49824365234375,0.033630466923117636,0.004123217409849167,-0.026185576010961085
1761412877666257000,5.5082568359375,0.04411912771165371,-0.0032788755401968956,0.01138389259520918
1761412877676269300,5.518269287109375,0.02411094342768192,0.007709405333548784,0.027335257502738384
1761412877686282500,5.528282470703125,0.03272738060355186,0.006540946076065301,-0.007958302060700953
1761412877696295400,5.53829541015625,0.019583236870169638,-0.01579085884988308,-0.03714923390010372
1761412877706308400,5.548308349609375,0.02320434997677803,0.003872749780118465,0.018025997490808368
1761412877716321500,5.558321533203125,0.038242929154634474,0.02731120077371597,0.016092326014488935
1761412877726334200,5.568334228515625,0.023762568381428716,0.015967238330096004,0.02464755278872326
1761412877736347400,5.578347412109375,0.00877425808608532,-0.0006669394761323928,0.014297277557570487
1761412877746360300,5.5883603515625,0.021197686329483986,-0.0024760347247123715,-0.016814155749324707
1761412877756373500,5.59837353515625,0.04276771310269832,0.0024753040723502636,-0.005275858043693005
1761412877766386400,5.608386474609375,0.02555880414843559,-0.0030626024410128593,0.01997163339955732
1761412877776398300,5.6183984375,0.031660628154873846,-0.02023132551535964,-0.0032669476403854787
1761412877786411500,5.62841162109375,0.03833586813509464,0.0066920449845492835,-0.020760354358144103
1761412877796424400,5.638424560546875,0.0064577978372573844,0.014752163451910019,-0.005276771359145641
1761412877806437400,5.648437255859375,0.005552957952022552,0.01150762857273221,-0.010592650885973125
1761412877816450300,5.6584501953125,0.02245440839231014,-0.007438771698623895,-0.0034217180769890543
1761412877826463500,5.66846337890625,0.03455927220582962,-0.01169847496971488,0.008525196962151677
1761412877836476400,5.678476318359375,0.05178104064166546,-0.011018968272954226,-0.008360654050204903
1761412877846489300,5.6884892578125,0.018097966748476028,0.006580109042674302,0.009095251935068518
1761412877856502300,5.698502197265625,0.004441197317838669,-0.0018888824865221977,-0.005698869228735566
1761412877866515500,5.708515380859375,0.024496143352985382,-0.006537731205672025,-0.009821410785149783
1761412877876528400,5.7185283203125,0.02991641483604908,-0.005068681566417217,-0.0032650114116258917
1761412877886541300,5.728541259765625,0.0370960972070694,-0.0007194003157317638,0.012699194711167365
1761412877896553500,5.738553466796875,0.02001929019987583,0.0016287702456116676,0.015014394584670661
1761412877906566400,5.74856640625,0.024063012632727622,-0.012438625812530517,0.0245860501261428
1761412877916579600,5.75857958984375,0.030233225700259207,-0.0015263327844440937,-0.00366343614468351
1761412877926592300,5.76859228515625,0.02053600755035877,0.0035398645639419554,-0.01443893278427422
1761412877936605400,5.77860546875,0.0180120420306921,0.017004326292872428,0.00016034166086465119
1761412877946618400,5.788618408203125,0.0338543388068676,0.002326543251425028,0.016002528839185834
1761412877956631300,5.79863134765625,0.046137481796741486,-0.019344021286815404,-0.01154766832217574
1761412877966644500,5.80864453125,0.03390343864560127,0.03539952242225408,-0.0368625441795215
1761412877976657400,5.818657470703125,-0.0069791913628578185,-0.0036006548404693603,-0.0333797800976783
1761412877986670600,5.828670654296875,0.01168517709672451,0.015053484486043453,0.028741343174688516
1761412877996683300,5.838683349609375,0.041486441120505334,0.01169233748987317,0.06239142811372876
1761412878006696400,5.848696533203125,0.0385293448805809,-0.02576046420037746,0.04029964248873293
1761412878016709400,5.85870947265625,0.019244214174151418,-0.0153879771374166,-0.03277344823498279
1761412878026721500,5.868721435546875,0.009508417579531669,-0.02097542188093066,-0.03189907655324787
1761412878036734500,5.878734375,0.018945523488521576,-0.023280337822437287,-0.00860832693465054
1761412878046747400,5.888747314453125,0.04326046505570411,-0.0089449384778738,0.015618132631480692
1761412878056760300,5.89876025390625,0.02954991961121559,0.010513356838375329,-0.014429890961293131
1761412878066773500,5.9087734375,0.028166940820217132,0.002758358797430992,-0.03207110865190625
1761412878076786400,5.918786376953125,0.023932664251327514,-0.00873538738042116,-0.012895228739921003
1761412878086799400,5.92879931640625,0.03337444633543491,-0.010795534780621528,0.043687732290755954
1761412878096812500,5.9388125,0.049307928526401514,-0.017424159140139818,0.02554340564990416
1761412878106825500,5.948825439453125,0.03485036410689354,0.015856763692945242,-0.02454199178870767
1761412878116838400,5.95883837890625,0.003559738308191299,0.010077157378196715,-0.020129417777154594
1761412878126851300,5.968851318359375,0.03316401845514774,0.012525281182676554,-0.02456891632825136
1761412878136864500,5.978864501953125,0.04959492877423763,-0.0093371526658535,-0.0010909553081728518
1761412878146876400,5.98887646484375,0.04105857109725475,-0.00643602439686656,0.006994973453879356
1761412878156889300,5.998889404296875,0.0326736045897007,-0.007576426603645086,0.0145478182525374
1761412878166902300,6.00890234375,0.02919745291173458,-0.012814619518071411,-0.01173040447793901
1761412878176915500,6.01891552734375,0.030222119784355163,-0.0053955754332244395,-0.0015232640445232391
1761412878186928400,6.028928466796875,0.031688100683689116,0.007803659488260745,0.005968406885117292
1761412878196941300,6.03894140625,0.03932020299732685,0.00004807692542672157,0.008143248439859599
1761412878206954500,6.04895458984375,0.0327431626945734,0.008411123862117528,-0.0005181238562799989
1761412878216967400,6.058967529296875,0.03439209894537926,-0.0031347908943891523,-0.019589922339282927
1761412878226980400,6.06898046875,0.02166881097257137,-0.0037257425248622893,-0.006239150117896497
1761412878236993300,6.0789931640625,0.020002923586964608,0.0023798808738589284,0.004950005356501788
1761412878247006500,6.08900634765625,0.03344984965920448,0.010736205808818339,0.015574823212716728
1761412878257019400,6.099019287109375,0.04225333383977413,0.005317395630478858,-0.009827986656408756
1761412878267032300,6.1090322265625,0.016020575952529908,0.006565203734487295,0.0010776026362553238
1761412878277044200,6.119044189453125,0.023751462465524672,-0.004698679210245609,0.019126907937414943
1761412878287057400,6.129057373046875,0.020613748961687085,-0.005756371569633483,0.02207797629535198
1761412878297070600,6.139070556640625,0.024667992788553236,-0.007002279977500438,0.00730095239682123
1761412878307083300,6.149083251953125,0.028862521868944165,-0.0017713935866951942,-0.006325184433534741
1761412878317096400,6.159096435546875,0.028700024783611295,-0.00663403118699789,-0.004023903487529606
1761412878327109400,6.169109375,0.03337152372598648,-0.005462795450538397,-0.0070305927565321325
1761412878337122600,6.17912255859375,0.027529227438569066,0.01702317712381482,-0.004287340196687728
1761412878347135200,6.18913525390625,0.02722410701215267,0.011525018098950386,0.005649239667039364
1761412878357148400,6.1991484375,0.028442250630259513,0.010058452677726745,0.0022914171391166744
1761412878367161600,6.20916162109375,0.027866496568918226,-0.0008528174370527267,-0.001896937928814441
1761412878377174300,6.21917431640625,0.03758241941928863,-0.0014062135361135005,-0.004815419191401452
1761412878387187500,6.2291875,0.04173895457684994,-0.01378901750817895,-0.013245759210642426
1761412878397199400,6.239199462890625,0.03411035939455032,-0.0009067395813763141,-0.009139456402976065
1761412878407212500,6.249212646484375,0.02376198385953903,-0.0051394087150692935,-0.012855974441766739
1761412878417225500,6.2592255859375,0.02776712784767151,0.0012947159856557845,-0.0189612325143069
1761412878427238400,6.26923828125,0.02054652894437313,-0.002290887416154146,-0.0022593780330382287
1761412878437251300,6.279251220703125,0.02126198373734951,0.001613718806952238,0.0341848311365582
1761412878447264500,6.289264404296875,0.016867548170685767,-0.009309534006565808,0.03666577949840575
1761412878457277200,6.299277099609375,0.019541151294112203,0.016112345889210702,0.0070984338283538815
1761412878467290400,6.309290283203125,0.018574352088570594,0.007633271357417106,-0.004199113923963159
1761412878477303600,6.319303466796875,0.01923427730202675,-0.009000175796449184,0.0023714966380037365
1761412878487316500,6.32931640625,0.03337970703244209,-0.019713585251569746,-0.005635886995121836
1761412878497329400,6.339329345703125,0.02289922955036163,-0.0032046412602066993,0.012324680576659738
1761412878507342300,6.34934228515625,0.01140109945833683,0.002977554506063461,0.012343202614039182
1761412878517354500,6.3593544921875,0.020659926190972327,0.0004037584953010082,0.0023453027508221567
1761412878527367400,6.369367431640625,0.04113572798669338,0.0015453297458589076,-0.01798071531066671
1761412878537380400,6.37938037109375,0.030765140619874,0.026899989624321458,-0.003641370443347841
1761412878547393300,6.389393310546875,0.025904256585240364,0.0037916473679244517,0.021805899622011928
1761412878557406500,6.399406494140625,0.02870294739305973,-0.015129033940285443,0.021808036780171094
1761412878567419600,6.409419677734375,0.014482698860764502,-0.0032639702320098876,0.006846431828662753
1761412878577432300,6.419432373046875,0.020576339560747146,-0.0006686930418014526,-0.004490461553353816
1761412878587445500,6.429445556640625,0.028188568130135535,-0.020345745675265786,-0.003814041862823069
1761412878597458400,6.43945849609375,0.022599369820952415,0.013438158243894577,0.0022409473272040487
1761412878607471400,6.449471435546875,0.02316810961961746,0.006435439874976873,0.008695128435268998
1761412878617484300,6.459484375,0.02704115166068077,-0.0040653497427701945,0.009235336259193717
1761412878627497500,6.46949755859375,0.027622166419029235,-0.004601940837502479,0.009763013395108282
1761412878637510400,6.479510498046875,0.03372925112247467,-0.010155775572359561,-0.008009539057593792
1761412878647522600,6.4895224609375,0.022322306445240973,-0.018475275628268718,-0.0022528569607064126
1761412878657535200,6.49953515625,0.011206453669071198,-0.00448839746043086,0.002651153829600662
1761412878667548400,6.50954833984375,0.021354922717809675,-0.02512742699384689,0.0007002572238445281
1761412878677561000,6.51956103515625,0.024832827961444853,-0.018144728499650955,0.00437012310931459
1761412878687574300,6.52957421875,0.02888414917886257,-0.026580110020190475,0.003799702810216695
1761412878697587000,6.5395869140625,0.033714638075232506,-0.009722060330212116,0.0027529885025694965
1761412878707600100,6.54960009765625,0.020887305206060407,0.007883738987147807,-0.0014453399701043962
1761412878717613000,6.559613037109375,0.013148819908499717,0.0025870938837528226,-0.007466116363275796
1761412878727626000,6.5696259765625,0.027696985220909118,-0.011497399439662694,-0.0035181824550963936
1761412878737639000,6.579638916015625,0.030425533401966093,0.006717179425805807,-0.01345350194349885
1761412878747652000,6.589652099609375,0.022659575575590132,0.013371230487525462,0.0006137114515528082
1761412878757665000,6.5996650390625,0.028337036690115926,0.026271190201491115,-0.0030908969537355004
1761412878767677200,6.60967724609375,0.02169628350138664,0.007552607336640357,0.012509681754745542
1761412878777689900,6.61968994140625,0.03856266262829303,0.001660334427654743,-0.002893949609529227
1761412878787703000,6.629703125,0.03240647808611393,0.005196691860258579,-0.000019380553904920816
1761412878797716200,6.63971630859375,0.021726678639650342,-0.0008167232103645801,-0.007513389571104198
1761412878807729000,6.64972900390625,0.02317863101363182,-0.003571867137402296,-0.01180810935664922
1761412878817742000,6.6597421875,0.021364859589934348,0.001903203272819519,-0.010815609454270451
1761412878827755000,6.669755126953125,0.033303719186782835,-0.012458791817724704,0.007307035077735781
1761412878837768200,6.679768310546875,0.03207154704332352,-0.016934622057527302,-0.0116905108589679
1761412878847780900,6.68978076171875,0.02250292370915413,-0.008921995993703604,-0.008903693152032792
1761412878857794000,6.6997939453125,0.014264672195911406,0.010421586901694535,-0.018797109727468342
1761412878867807200,6.70980712890625,0.022498832055926322,-0.010849749185889958,-0.00865119796199724
1761412878877820000,6.71981982421875,0.023244097465276718,-0.006961801836639642,0.010679963843245058
1761412878887833000,6.7298330078125,0.035357144585251805,-0.0093088033542037,-0.0033421865673735735
1761412878897845000,6.739844970703125,0.01963409027457237,0.018143997847288845,0.006038220718316734
1761412878907858200,6.749858154296875,0.036781039908528324,0.02382686578929424,0.0014839549474418162
1761412878917871000,6.75987109375,0.02875906149446964,0.016946312495321036,0.009502919420506805
1761412878927884000,6.769884033203125,0.03061784110367298,-0.01613718806952238,0.016998042682558296
1761412878937897000,6.77989697265625,0.0389344185501337,-0.03018105712160468,0.017366638532932847
1761412878947910100,6.78991015625,0.035925299862027166,-0.015434154366701841,-0.00014759177714586256
1761412878957922800,6.7999228515625,0.020792028138041495,-0.003935732013732195,-0.007459430894162506
1761412878967936000,6.80993603515625,0.01598725820481777,0.003618482758104801,0.010390972567722201
1761412878977949200,6.81994921875,0.029002807122468947,0.03951996335312724,-0.00584215015694499
1761412878987962000,6.829962158203125,0.03196165692806244,0.03266673645749688,-0.00041908392859622834
1761412878997975000,6.83997509765625,0.02339431959092617,-0.0031955811709165572,-0.01029423419497907
1761412879007988000,6.849988037109375,0.025617840859293937,-0.017897329609841108,-0.008198741486761718
1761412879018000100,6.860000244140625,0.02560848850905895,-0.0033490181669592854,-0.0059016069929115475
1761412879028013000,6.870012939453125,0.0239724117398262,0.017237258265912533,0.00013666852433234452
1761412879038026000,6.88002587890625,0.018116671448946,0.029917145488411186,0.012457494909781961
1761412879048039000,6.890038818359375,0.029993571725487708,0.018138883280754088,0.004648958317004144
1761412879058052000,6.900052001953125,0.03472410737872123,0.01917407154738903,0.010978526664711535
1761412879068065000,6.91006494140625,0.019914076259732245,-0.012587386633455752,0.005305778257921338
1761412879078078000,6.920077880859375,0.03264671658277511,-0.020880729334801434,-0.009444010573811829
1761412879088091100,6.930091064453125,0.014379823008179663,0.0016140110678970812,0.005306764638610184
1761412879098104000,6.94010400390625,0.014975450813770294,-0.011986059739440679,0.007861837682593614
1761412879108117000,6.950116943359375,0.02963525980710983,-0.006713526163995265,-0.004334467274043709
1761412879118130000,6.9601298828125,0.03499240292608738,-0.003577127834409475,0.001542571533191949
1761412879128143000,6.97014306640625,0.02209843456149101,-0.00434986577257514,-0.005383464870322496
1761412879138156000,6.980156005859375,0.018193828338384628,-0.013267331721633671,-0.020751056806836275
1761412879148168200,6.990168212890625,0.025347207224369048,-0.005929974570870399,0.006501892707310617
1761412879158180900,7.000180908203125,0.012452069815993309,-0.0005517886638641358,-0.0067920530266128475
1761412879168194000,7.010194091796875,0.02952244708240032,0.0013372399531304834,0.002522394617088139
1761412879178207000,7.02020703125,0.033846155500411985,0.0006662088237702846,-0.01488415580112487
1761412879188220000,7.030219970703125,0.03068330755531788,0.0003387304350733757,-0.0008592289115302264
1761412879198233000,7.040233154296875,0.031447277665138246,0.004142506632208824,-0.01419940667366609
1761412879208246000,7.05024609375,0.03305763547122478,0.005205751949548721,0.012124938487168401
1761412879218259200,7.06025927734375,0.01837152299284935,-0.0018641864366829395,0.0031371655145660043
1761412879228271900,7.07027197265625,0.020163667106628418,0.0024934242509305478,0.007175225391611456
1761412879238285000,7.08028515625,0.02523380997776985,0.007068477081507444,-0.015174480517208575
1761412879248298000,7.090298095703125,0.030897827088832854,0.008374591244012117,0.009781133573688566
1761412879258311000,7.100310791015625,0.009190437671542167,0.002744184141606092,0.010697810027189553
1761412879268323000,7.110322998046875,0.033278584745526314,0.0003577273964881897,-0.0013478161460720001
1761412879278336000,7.1203359375,0.042293665850162504,0.00601078472211957,0.007111695168726145
1761412879288349200,7.13034912109375,0.03452712350189686,-0.007524550285935402,-0.005690411927644163
1761412879298362000,7.140362060546875,0.027719197052717207,-0.011024082839488983,-0.006288049027230591
1761412879308375000,7.150375,0.02980477115511894,0.00442088518217206,0.0045122897926718
1761412879318388000,7.160387939453125,0.0235322667568922,0.01679769780486822,0.0026002638925798236
1761412879328401200,7.170401123046875,0.019347674548625945,-0.019002368242293594,0.008349255873356014
1761412879338414000,7.1804140625,0.025149054303765295,0.006315759018063545,-0.001978880591224879
1761412879348427000,7.190427001953125,0.03787351132035255,0.023198066366463897,-0.0022777174073271454
1761412879358440000,7.20043994140625,0.034870237851142884,-0.007578910821676253,-0.017142364790383724
1761412879368453000,7.210453125,0.030382278782129287,-0.014776128849387168,0.0027057335610501465
1761412879378466000,7.220466064453125,0.024406126981973645,0.004928396312892437,0.0001645063793286681
1761412879388478000,7.23047802734375,0.02288286293745041,0.011816110000014304,0.004602762821409851
1761412879398491100,7.2404912109375,0.019579729738831517,0.00351809112355113,-0.010498762057442218
1761412879408504000,7.250504150390625,0.014600187760591505,0.005072919350117445,-0.022814583474211392
1761412879418517000,7.26051708984375,0.03957680810689926,0.011130027431994675,-0.0025741978695616122
1761412879428530000,7.270530029296875,0.019365210205316542,0.006854395939409732,0.011828439758624881
1761412879438543000,7.280543212890625,0.029064766442775725,0.00337780587002635,-0.0003139978526160121
1761412879448556000,7.29055615234375,0.023675474619865414,0.010572831940650939,-0.00586611555442214
1761412879458569000,7.30056884765625,0.03372983564436435,-0.0022923487208783627,-0.009568038812279701
1761412879468582100,7.31058203125,0.013669044390320777,-0.005832213284820318,-0.0038781383412890133
1761412879478595000,7.320594970703125,0.02296294243633747,-0.0018808453105390072,0.006140694712102413
1761412879488608000,7.33060791015625,0.023271569994091985,-0.018694471336901188,-0.0009463592057116329
1761412879498621000,7.340620849609375,0.019274024790525434,-0.016216683046519756,0.008544522717129438
1761412879508634000,7.350634033203125,0.020505027890205384,0.008879618156701326,0.011724559259042143
1761412879518646000,7.36064599609375,0.03339899625480175,0.007568973949551582,0.007663429033663124
1761412879528659200,7.3706591796875,0.03776771285831928,-0.005185732074826956,0.0027820867328904567
1761412879538671900,7.380671875,0.03659340838193893,-0.01594371132403612,0.02004237881451845
1761412879548685000,7.39068505859375,0.026147417691349983,0.0037913551069796085,-0.00718510746480897
1761412879558698000,7.400697998046875,0.025696751314401627,0.014563216751068829,0.012918189490400253
1761412879568711200,7.410711181640625,0.042569560182094575,0.015334493384510277,0.015056206166092306
1761412879578724000,7.42072412109375,0.03310848887562751,-0.0004912906482815742,0.004048818733077496
1761412879588737000,7.430737060546875,0.030685645642876624,-0.016652444115281103,-0.013331884857825934
1761412879598750200,7.440750244140625,0.03324292891025543,-0.011931406942754984,-0.007014536670874804
1761412879608763000,7.450762939453125,0.01359481011033058,-0.00526069700717926,-0.010622826828528196
1761412879618776000,7.460776123046875,0.035406828945875164,0.00419277551472187,-0.008275295588001608
1761412879628789000,7.4707890625,0.03691898707449436,-0.0038207273319363594,-0.0036474896568804978
1761412879638801200,7.48080126953125,0.04411445153653622,0.01166924887523055,-0.01013436745814979
1761412879648814000,7.49081396484375,0.045288171491026874,0.0033956337876617907,-0.0015682722300291061
1761412879658827000,7.500826904296875,0.021188918501138687,-0.005983019932359457,-0.0010398827080614864
1761412879668840000,7.51083984375,0.03331424058079719,0.0035765433125197884,-0.0034030133765190836
1761412879678853000,7.52085302734375,0.01779459988772869,0.00185980252251029,0.002011339822411537
1761412879688866000,7.530865966796875,0.009009820407629012,0.008374737374484539,-0.010317012282367794
1761412879698879000,7.54087890625,0.03521042959094047,-0.004422784878313541,-0.0030402262124232947
1761412879708892200,7.55089208984375,0.024856208837032316,-0.0015710487090051172,0.01451663766298443
1761412879718905000,7.560905029296875,0.03607844459712505,-0.007095511218905448,-0.010707034513261169
1761412879728918000,7.57091796875,0.036518005058169364,-0.007212561727315187,-0.012463139199279247
1761412879738931200,7.58093115234375,0.00901858823597431,-0.008295534658432007,0.00018438012357801197
1761412879748944100,7.590944091796875,0.024442951861023902,0.010786620821803808,-0.003483969658240676
1761412879758956300,7.600956298828125,0.0385205770522356,-0.012018939095735549,-0.004671316279284656
1761412879768969000,7.610968994140625,0.034783728611469264,0.0003686871819198131,-0.008785601464007049
1761412879778982100,7.620982177734375,0.028305472508072853,-0.003129968588799238,-0.007048311076313257
1761412879788995000,7.6309951171875,0.00928220760822296,0.004590396530181169,-0.01163576673073694
1761412879799008300,7.64100830078125,0.024240707287192343,-0.006911094562709331,-0.0006065693247132003
1761412879809021000,7.65102099609375,0.028844401690363883,-0.0007329904496669769,0.020991587564442304
1761412879819034000,7.6610341796875,0.03706277945935726,-0.002010463039577007,-0.001969583039917052
1761412879829047000,7.671047119140625,0.025052023670077323,-0.010647796873003244,-0.012891849472746252
1761412879839060000,7.68106005859375,0.02350888588130474,-0.004277823449671268,0.0014117482277564704
1761412879849073200,7.6910732421875,0.028869536131620407,-0.008931202213466168,-0.0022066614651121198
1761412879859086000,7.701086181640625,0.020205168160796164,0.004764876314252615,0.007719597934000194
1761412879869099300,7.711099365234375,0.041001872473955155,0.008551847507059574,0.001955846775509417
1761412879879111200,7.721111083984375,0.03470189554691314,0.006711480337381362,-0.013851250823121518
1761412879889124000,7.7311240234375,0.03199614371955395,0.004843786769360304,0.004201104951649904
1761412879899137000,7.741136962890625,0.03091711631119251,-0.0017189327470958232,-0.0026287045357748866
1761412879909150200,7.751150146484375,0.024779051947593687,0.00833133662417531,-0.0003024170126765966
1761412879919163000,7.761162841796875,0.02224573407769203,-0.0012966156817972659,-0.0010424399913288652
1761412879929176000,7.771176025390625,0.0319762699753046,-0.007012655241042375,-0.00019612536029890178
1761412879939189200,7.781189208984375,0.034328386059403415,-0.0005015197813510895,0.0018001812897622583
1761412879949202200,7.7912021484375,0.02370586975812912,0.010709025540947914,0.001918291244097054
1761412879959215000,7.801215087890625,0.01604044969677925,0.0005671323634684085,-0.0019165924773551523
1761412879969228000,7.81122802734375,0.028031331741809842,0.004500087898224592,0.004482935834024101
1761412879979241200,7.8212412109375,0.017838439029455182,-0.011862433359771966,0.01350892192516476
1761412879989254000,7.83125390625,0.03278583279252052,-0.0004155950635671615,0.010581672834232449
1761412879999267000,7.84126708984375,0.02365560087561607,0.00303425312936306,0.012645144702680407
1761412880009279000,7.851279052734375,0.020051438903808592,-0.00408712318316102,0.000028057050704956055
1761412880019292200,7.861292236328125,0.03771569041013718,0.0046969256445765495,0.001464099469501525
1761412880029305000,7.87130517578125,0.025016952356696126,-0.010089724598824977,-0.006285455211345106
1761412880039318000,7.881318115234375,0.02242225968837738,-0.003533434823155403,0.009609631197992711
1761412880049331200,7.891331298828125,0.030632454150915145,0.0019672084197402,0.01103182775452733
1761412880059344100,7.90134423828125,0.034977205356955525,-0.004035392995923757,0.008871179121918977
1761412880069357000,7.911357177734375,0.02883446481823921,0.0007907119862735271,0.010194226152915507
1761412880079370000,7.921369873046875,0.02297521739602089,-0.005241700045764446,-0.0031040121636353433
1761412880089383200,7.931383056640625,0.023871873974800107,0.004922258833050728,0.0020065905820578337
1761412880099396000,7.94139599609375,0.025243746849894524,0.007931669782102108,0.007818838791083544
1761412880109409000,7.951408935546875,0.02783376334309578,0.0026044834099709984,0.007973170836269855
1761412880119422000,7.961421875,0.026205285358428955,-0.0026040450185537338,-0.00002372793545946479
1761412880129434000,7.97143408203125,0.033683658415079115,-0.002301554940640926,-0.009272581263352186
1761412880139447000,7.981447021484375,0.035764556342363356,-0.0098697982378304,-0.005900620612222701
1761412880149460000,7.9914599609375,0.023068156376481054,-0.014031155700981617,0.0014177761097438632
1761412880159473200,8.00147314453125,0.011266659423708915,-0.00036941783428192136,-0.0009737952019087969
1761412880169486000,8.011486083984375,0.02577157011628151,0.01553805313259363,0.0015137472975067794
1761412880179499300,8.021499267578125,0.0197591779589653,0.009526099366694688,0.0022800554948858914
1761412880189512000,8.031511962890624,0.034409634602069854,0.013046820838749407,-0.009809738613665103
1761412880199525000,8.041525146484375,0.014802432334423065,-0.0050311260350048535,0.005488459614757448
1761412880209538000,8.0515380859375,0.014188099828362465,-0.004058335480093956,-0.001893704792112112
1761412880219551000,8.061551025390624,0.022253332862257957,0.0036661212921142577,-0.006139269939996301
1761412880229564200,8.071564208984375,0.03334580476284027,0.002356207737326622,-0.003524137271847576
1761412880239577000,8.0815771484375,0.015405658924579619,-0.0038639819517731666,0.007394822959043085
1761412880249590300,8.09159033203125,0.02066810949742794,0.0031895898215472695,0.004575016297958791
1761412880259602200,8.101602294921875,0.024399697241187093,0.020296353575587272,-0.012506649547442792
1761412880269615000,8.111614990234376,0.03175765878856182,-0.006780015528947115,-0.007903831927105785
1761412880279628000,8.1216279296875,0.03790916715562343,-0.0058203767165541645,-0.011832677542325108
1761412880289641200,8.13164111328125,0.02338555176258087,0.004088292226940393,-0.0056273748951032754
1761412880299654000,8.14165380859375,0.032494740891456604,-0.0013667583085596562,-0.016237926763948054
1761412880309667000,8.1516669921875,0.04042085771560669,0.002849690342694521,0.00038340982701629396
1761412880319680000,8.161679931640625,0.025011107137799263,0.0008814590096473693,-0.0022143150486052033
1761412880329693200,8.171693115234374,0.026798575076460836,-0.012396686366945504,0.008980393383745103
1761412880339706000,8.1817060546875,0.022789339435100555,-0.014195990873873233,-0.021028923900146036
1761412880349719000,8.191718994140626,0.03238543529808521,-0.014734481664747,0.00840721487198025
1761412880359732200,8.201732177734375,0.031359014859795566,-0.004646949023008346,0.01978409320451319
1761412880369745000,8.211744873046875,0.0292792859762907,-0.0077013681575655935,0.00793419053275138
1761412880379757000,8.221757080078126,0.024341245052218435,0.010569470939785242,-0.005109324104059487
1761412880389770000,8.23177001953125,0.04005786962211132,-0.004858107555657625,0.007398202226217836
1761412880399783200,8.241783203125,0.031681670942902564,0.006641629971563816,0.004826945232413709
1761412880409796000,8.251796142578126,0.03200374250411987,-0.002740092488378286,0.02422103447234258
1761412880419809000,8.26180908203125,0.03706277945935726,0.001464665725082159,0.0018884623614139854
1761412880429822000,8.271822021484375,0.023714637586474418,0.0005865677163004875,-0.004009052978269756
1761412880439835100,8.281835205078124,0.02340659455060959,0.005550181473046541,-0.0013098587558604776
1761412880449848000,8.29184814453125,0.03131283763051033,0.005077887786179781,0.000771349698677659
1761412880459861000,8.301861083984376,0.030707272952795028,-0.005807809495925903,0.007971837395709008
1761412880469874200,8.311874267578125,0.030675124248862266,0.0010834113225340843,0.005179576328676194
1761412880479887000,8.32188720703125,0.038763153636455536,0.0026936229981482027,-0.004656283106934279
1761412880489900000,8.331900146484376,0.022143442746996877,0.0010889642804861068,0.006030603667441755
1761412880499912000,8.341911865234374,0.019585574957728384,0.00490296961069107,0.0022803660221397876
1761412880509925000,8.351925048828125,0.03362988240122795,0.01294584468230605,-0.027055253251269458
1761412880519938000,8.36193798828125,0.03437631685435772,0.008332359537482261,-0.017492055010888723
1761412880529951000,8.371950927734375,0.023151743006706235,0.003112140671163797,-0.007708674681186675
1761412880539964000,8.3819638671875,0.02719020474255085,0.0014699264220893382,-0.01718669712245464
1761412880549977000,8.39197705078125,0.030502105769515037,0.0006022036768496036,-0.008027440040465444
1761412880559990300,8.401990234375,0.032764205482602116,0.006477233190089464,0.010833455638214945
1761412880570003000,8.4120029296875,0.033221301600337025,-0.016774024668335913,0.013419362211879343
1761412880580016000,8.42201611328125,0.02451660161912441,-0.006179419287294149,0.009123911773972213
1761412880590029000,8.432029052734375,0.026173136654496193,-0.00009513093754649162,0.0022539164066314697
1761412880600042000,8.4420419921875,0.025033903491497037,0.0045341362982988355,0.0022074834490194914
1761412880610055000,8.452054931640625,0.02431494156718254,0.0022891338504850865,0.01780977919055149
1761412880620067000,8.462067138671875,0.02762275094091892,-0.003015110037475824,0.010433916660305112
1761412880630080000,8.472080078125,0.019109189617633818,0.0006501344718039036,-0.00014381065117195248
1761412880640093200,8.48209326171875,0.020743512821197508,0.009665800098329782,0.0037194589145481583
1761412880650106000,8.492106201171875,0.04406359813213348,-0.002188888346403837,-0.00022076661121100185
1761412880660119000,8.502119140625,0.024915245547890662,0.004530336906015873,-0.00893069075681269
1761412880670132200,8.51213232421875,0.03239069599509239,-0.0033668460845947264,-0.0002564589790999889
1761412880680145200,8.522145263671876,0.019354688811302184,0.007941752784699201,-0.0025671836068853733
1761412880690158000,8.532157958984374,0.03418810080587864,0.009178454972803592,-0.0068089493624866005
1761412880700171000,8.5421708984375,0.026575287714600562,-0.013060995494574307,0.001453797271195799
1761412880710184200,8.55218408203125,0.027744916015863416,-0.0024434476293623444,-0.008722564431466162
1761412880720196900,8.56219677734375,0.03132569711208343,-0.014489420862495899,-0.006485836621653288
1761412880730210000,8.5722099609375,0.033439328265190124,0.0009701602064073085,-0.005775204134266823
1761412880740223200,8.58222314453125,0.023583120161294935,0.017765958315134046,-0.009587236703094094
1761412880750235100,8.592235107421875,0.025975568255782126,0.0026715572968125344,0.009045768503844738
1761412880760248000,8.602248046875,0.03840951789319515,-0.02163666226863861,0.0017507709237746894
1761412880770261000,8.612260986328126,0.03513268817961216,-0.00659939826503396,-0.005856708405259996
1761412880780274200,8.622274169921875,0.01686053390800953,-0.012793576730042696,-0.023456717302650212
1761412880790287000,8.632287109375,0.0209007492095232,-0.0026141280211508275,0.008898925645370035
1761412880800300000,8.642300048828124,0.03826221837699413,-0.0030384909130632878,0.004278773297742009
1761412880810313000,8.65231298828125,0.02531096686720848,-0.006960925053805112,-0.00021062880968675016
1761412880820326100,8.662326171875,0.03132978876531124,-0.0043066111527383325,0.004022149921860545
1761412880830339000,8.672339111328125,0.031461890712380404,0.021249416516721246,-0.0077672912669368085
1761412880840352000,8.68235205078125,-0.02890285387933254,0.04499722572043538,-0.03605970336403697
1761412880850365200,8.692365234375,0.11774608945846557,0.024483283871412277,-0.08754946944154798
1761412880860378000,8.702378173828125,0.19821254183650017,0.08652516789510846,-0.022561375898122786
1761412880870390300,8.712390380859375,-0.06406769076287747,-0.027717297356575726,0.182940464430023
1761412880880403000,8.72240283203125,-0.21646423784196375,-0.27649448978230357,0.10871560985529795
1761412880890416000,8.732416015625,-0.03574059094488621,-0.13393135445341467,0.005511329033691436
