time,seconds_elapsed,z,y,x
1761412872219228400,0.061228515625,-0.000785600277595222,0.010457546450197697,0.011247493326663971
1761412872229241600,0.07124169921875,0.0006996494485065341,-0.023015763610601425,0.026369575411081314
1761412872239254500,0.081254638671875,-0.00005855248309671879,-0.021648496389389038,0.009684603661298752
1761412872249267500,0.091267333984375,0.0005484925932250917,0.004550606478005648,-0.018029097467660904
1761412872259280400,0.1012802734375,0.004101948346942663,0.016073837876319885,-0.024276074022054672
1761412872269292500,0.11129248046875,0.0015033113304525614,0.0022447328083217144,-0.015815647318959236
1761412872279305500,0.121305419921875,0.001061226474121213,-0.016035737469792366,0.007134676445275545
1761412872289318700,0.131318603515625,-0.0014099560212343931,-0.010437604039907455,0.01738665997982025
1761412872299331300,0.141331298828125,-0.0009444354218430817,0.008775505237281322,0.0060421256348490715
1761412872309344500,0.151344482421875,-0.0006841201102361083,0.009279247373342514,-0.008915472775697708
1761412872319357700,0.161357666015625,0.00003759650280699134,-0.002793394261971116,-0.010822562500834465
1761412872329370600,0.17137060546875,-0.0007131884340196848,-0.009716873988509178,-0.004976898897439241
1761412872339383600,0.181383544921875,-0.0011624637991189957,-0.002795850858092308,0.0024245583917945623
1761412872349396500,0.191396484375,0.00061800581170246,0.008058218285441399,0.007691033650189638
1761412872359409700,0.20140966796875,-0.000167626712936908,0.005012893583625555,0.004272600170224905
1761412872369422300,0.21142236328125,-0.0006725575076416135,-0.004855755716562271,-0.005645956844091415
1761412872379435500,0.221435546875,-0.0007995903142727911,-0.007136220578104258,-0.00814240425825119
1761412872389448700,0.23144873046875,0.0006798264803364873,0.0024592862464487553,0.00043377536348998547
1761412872399460600,0.241460693359375,0.000295266043394804,0.0038020526990294456,0.010615039616823196
1761412872409473500,0.2514736328125,0.000041120219975709915,-0.00009613623842597008,0.008907468989491463
1761412872419486500,0.261486572265625,0.0002805383992381394,-0.00046525057405233383,-0.0015891132643446326
1761412872429499600,0.271499755859375,0.0017650546506047249,-0.0009007491171360016,-0.0024618562310934067
1761412872439512600,0.2815126953125,0.0007669018814340234,-0.0008842376992106438,-0.004758832976222038
1761412872449525500,0.291525390625,-0.0013225995935499668,0.0030435454100370407,0.001316999550908804
1761412872459538400,0.301538330078125,-0.0005193902761675417,-0.0010308250784873962,0.0020560268312692642
1761412872469551600,0.311551513671875,0.000559180392883718,-0.0005796090699732304,-0.0005634331610053778
1761412872479564500,0.321564453125,0.0010835567954927683,-0.0005010459572076797,-0.0008936651283875108
1761412872489577500,0.331577392578125,0.0010772101813927293,0.00030058762058615685,-0.005602836608886719
1761412872499590700,0.341590576171875,0.0009320678655058146,0.0016598650254309177,-0.004181241150945425
1761412872509603600,0.351603515625,0.0007675600936636329,-0.0005402816459536552,-0.0014420829247683287
1761412872519616500,0.361616455078125,-0.001199184451252222,0.0004884973168373108,0.0015358640812337399
1761412872529628400,0.37162841796875,-0.0013810028322041035,0.0002849237062036991,-0.0001564782578498125
1761412872539641600,0.3816416015625,0.0009745630086399615,0.0017571193166077137,0.00016043800860643387
1761412872549654500,0.391654541015625,0.0012820378178730607,-0.00168945686891675,0.0012926203198730946
1761412872559667700,0.401667724609375,-0.0008538173278793693,0.00006929459050297737,-0.005001494660973549
1761412872569680400,0.411680419921875,-0.000168279540957883,-0.000018530059605836868,-0.0005266087828204036
1761412872579693600,0.421693603515625,0.000978477648459375,0.003241179510951042,-0.0001580272801220417
1761412872589706500,0.43170654296875,0.00008046452421694994,0.003401197027415037,0.00031400565057992935
1761412872599719400,0.441719482421875,-0.000021001935238018632,-0.00015465589240193367,-0.0025773884262889624
1761412872609732600,0.451732666015625,-0.00037146935937926173,0.0003880574367940426,-0.003772228956222534
1761412872619745500,0.46174560546875,-0.0019009227398782969,0.0005931206978857517,-0.0006933484692126513
1761412872629758700,0.4717587890625,0.0006243973621167243,-0.001145932823419571,-0.0015860876301303506
1761412872639771400,0.481771484375,0.00016846420476213098,-0.0010260907001793385,-0.0017946131993085146
1761412872649783600,0.491783447265625,0.0007954429020173848,-0.001242143800482154,0.002055229153484106
1761412872659796500,0.50179638671875,0.0013336678966879845,-0.0016677170060575008,0.0008208537474274635
1761412872669809200,0.51180908203125,-0.00035394198494032025,0.0002866089344024658,0.00023641064763069153
1761412872679822000,0.521822021484375,0.0004940084763802588,0.0006128461100161076,-0.0025276842061430216
1761412872689835000,0.5318349609375,0.0003837132826447487,-0.0015483698807656765,0.000365598127245903
1761412872699848200,0.54184814453125,0.00012804981088265777,-0.0009302501566708088,0.0035123892594128847
1761412872709861400,0.551861328125,0.001165063469670713,-0.0019424655474722385,0.003144047688692808
1761412872719874000,0.5618740234375,0.002604768378660083,0.0007870080880820751,0.002374127507209778
1761412872729887200,0.57188720703125,-0.0004234811058267951,0.002379185054451227,0.0007844890933483839
1761412872739900200,0.581900146484375,0.0007469782140105963,0.0015647904947400093,0.0013155234046280384
1761412872749913000,0.5919130859375,-0.0005781705840490758,-0.0007190778851509094,0.0030457545071840286
1761412872759926000,0.601926025390625,-0.00028788603958673775,-0.0007260022684931755,-0.0005122289294376969
1761412872769939200,0.611939208984375,0.00031952100107446313,-0.001973595004528761,0.000946506392210722
1761412872779952000,0.6219521484375,-0.0007769024232402444,-0.001256139250472188,0.0012096266727894545
1761412872789964300,0.63196435546875,-0.0005974788800813258,0.0004905299283564091,0.0020902119576931
1761412872799977000,0.64197705078125,0.0012829791521653533,-0.003246684093028307,0.0038308543153107166
1761412872809990100,0.651990234375,0.002113938797265291,0.0001968112774193287,-0.0001656536478549242
1761412872820003300,0.66200341796875,-0.0013393821427598596,-0.00010226154699921608,0.00236328411847353
1761412872830016300,0.672016357421875,-0.000980204320512712,0.0013461345806717873,-0.00011171260848641396
1761412872840029200,0.682029296875,0.0007274146191775799,0.001650799997150898,0.00017404439859092236
1761412872850042000,0.6920419921875,-0.0005409406730905175,-0.001068750862032175,-0.0009958589216694236
1761412872860055300,0.70205517578125,-0.00045971423969604075,-0.002457589376717806,-0.00038333190605044365
1761412872870068000,0.71206787109375,0.00007185869617387652,0.0015181354247033596,-0.001540378318168223
1761412872880081200,0.7220810546875,0.0019198260270059109,0.001418533269315958,0.0006205106619745493
1761412872890094300,0.73209423828125,-0.0001910598366521299,0.001386535819619894,-0.0010662160348147154
1761412872900107300,0.742107177734375,0.0003620786883402616,0.0017822817899286747,0.0013111878652125597
1761412872910120200,0.7521201171875,-0.000832819496281445,0.0015132473781704903,-0.0010262178257107735
1761412872920132000,0.762132080078125,-0.00205521029420197,0.001600066665560007,-0.00044325191993266344
1761412872930145300,0.772145263671875,0.0008657689322717488,0.0033575324341654778,-0.00046562356874346733
1761412872940158200,0.782158203125,0.0006378023535944521,0.0015668231062591076,-0.00010050414130091667
1761412872950171100,0.792171142578125,-0.0007718041888438165,-0.0023793333675712347,-0.00041928444989025593
1761412872960184000,0.80218408203125,0.0019627297297120094,0.0003714459016919136,0.0016297516413033009
1761412872970197200,0.812197265625,0.00026788917602971196,-0.0000719316303730011,0.00009778118692338467
1761412872980210200,0.822210205078125,-0.0013901948696002364,-0.0017372062429785728,-0.0026487368158996105
1761412872990223000,0.83222314453125,0.00043703962001018226,0.0016397223807871342,0.0010492803994566202
1761412873000236300,0.842236328125,-0.0005749615374952555,0.0004346421919763088,-0.0015387795865535736
1761412873010249200,0.852249267578125,-0.001979482127353549,-0.002164840931072831,-0.003210906870663166
1761412873020262100,0.86226220703125,0.0005055132787674665,-0.001040720846503973,-0.001145625370554626
1761412873030275000,0.872275146484375,-0.0006049309158697724,0.002562393434345722,-0.0003976158332079649
1761412873040288300,0.882288330078125,-0.0004723055171780288,-0.002378835342824459,-0.00019628088921308517
1761412873050300200,0.892300048828125,-0.0009594173752702773,0.0007782438769936562,0.0020774563308805227
1761412873060313300,0.902313232421875,0.00031836729613132775,-0.00032057659700512886,-0.002672557719051838
1761412873070326000,0.912325927734375,0.0005590551299974322,-0.0032201516442000866,0.0033999832812696695
1761412873080339200,0.922339111328125,-0.0007426979718729854,0.0009647398255765438,0.00021937000565230846
1761412873090352000,0.93235205078125,-0.0006804537260904908,0.003272891975939274,0.00356069253757596
1761412873100365000,0.942364990234375,0.0005616445560008287,-0.0024292024318128824,0.0021132645197212696
1761412873110378200,0.952378173828125,0.0014523784630000591,0.0007585952989757061,0.0009426362812519073
1761412873120391200,0.96239111328125,-0.00010903281508944929,-0.0007149316370487213,0.002471290761604905
1761412873130404400,0.972404296875,0.0015883431769907475,0.0013225395232439041,0.0033523309975862503
1761412873140417000,0.9824169921875,0.0006125608924776316,0.0013683461584150791,0.0022481842897832394
1761412873150430200,0.99243017578125,0.00022889007232151926,0.0009877514094114304,-0.0008321743225678802
1761412873160443100,1.002443115234375,-0.00005526919267140329,-0.0007688696496188641,-0.0015096825081855059
1761412873170455300,1.012455322265625,0.0016342307208105922,0.000825642142444849,-0.0037943827919662
1761412873180468000,1.022468017578125,-0.0011128198821097612,0.00023255636915564537,-0.0038321996107697487
1761412873190481200,1.032481201171875,-0.001008841092698276,-0.000641276128590107,-0.0004413902061060071
1761412873200494000,1.042494140625,-0.0031462940387427807,-0.0007161111570894718,-0.0017956076189875603
1761412873210507300,1.05250732421875,-0.00313692819327116,-0.0013211602345108986,-0.002163028111681342
1761412873220520200,1.062520263671875,-0.003074077656492591,0.000425074715167284,-0.0023893967736512423
1761412873230533000,1.072533203125,-0.0002500615955796093,0.0015894086100161076,-0.0017979086842387915
1761412873240546300,1.08254638671875,-0.0006577915628440678,0.00016887858510017395,0.0011771086137741804
1761412873250559000,1.09255908203125,0.00024049266357906163,0.0012240228243172169,-0.00009668152779340744
1761412873260572200,1.102572265625,0.0007816469296813011,0.001705522183328867,0.0020785885863006115
1761412873270585000,1.112585205078125,-0.0005600535660050809,0.001743073109537363,0.0023454371839761734
1761412873280598300,1.122598388671875,-0.0009020034340210259,0.001213636714965105,0.001720127183943987
1761412873290611200,1.132611083984375,0.00011300263577140868,0.0006822277791798115,-0.0004249522462487221
1761412873300623000,1.142623046875,-0.0018116638530045748,-0.00032284902408719063,-0.0011064551072195172
1761412873310636000,1.152635986328125,0.00023753204732201993,0.0003985706716775894,0.0018333084881305695
1761412873320649200,1.162649169921875,0.0017736433073878288,-0.00023712590336799622,0.0001680338755249977
1761412873330662100,1.172662109375,0.0013194852508604527,-0.001220138743519783,-0.0007054065354168415
1761412873340675000,1.182675048828125,0.0006616844329982996,-0.004069987218827009,-0.00026385439559817314
1761412873350688300,1.192688232421875,0.0019198773661628366,0.0020270049571990967,0.001150090480223298
1761412873360701200,1.202701171875,0.0006649958668276668,0.0018632207065820694,0.0032513246405869722
1761412873370714000,1.212714111328125,-0.00035384949296712875,-0.0033668424002826214,0.0004618805833160877
1761412873380727000,1.22272705078125,0.0012046323390677571,-0.00046479562297463417,-0.0009559864411130548
1761412873390740200,1.232740234375,0.0005230444949120283,0.0004323422908782959,-0.0022013527341187
1761412873400753200,1.242753173828125,0.0005126582691445947,-0.000744242686778307,-0.0003914684057235718
1761412873410766000,1.25276611328125,0.0007262532599270344,0.000412557739764452,-0.0016112211160361767
1761412873420778200,1.2627783203125,0.0009382409043610096,0.000001632142812013626,-0.0007930980063974857
1761412873430791200,1.272791259765625,0.003123439848423004,-0.0012421724386513233,-0.0008609115611761808
1761412873440804400,1.282804443359375,0.001971889054402709,-0.001853634137660265,-0.002858282532542944
1761412873450817000,1.292817138671875,0.0005967834731563926,0.0016495371237397194,-0.00024313037283718586
1761412873460830200,1.302830322265625,0.0008822743548080325,-0.002224829513579607,-0.0004564496921375394
1761412873470843100,1.312843017578125,0.0010426412336528301,-0.0028517188038676977,0.0009545879438519478
1761412873480856000,1.32285595703125,-0.0016088018892332911,0.0012133303098380566,0.0023066748399287462
1761412873490869000,1.332868896484375,-0.0026840355712920427,0.0012828889302909374,0.0006003151647746563
1761412873500882200,1.342882080078125,-0.0015178372850641608,0.0006205607205629349,0.0007664964068681002
1761412873510895400,1.352895263671875,0.0007638836978003383,0.0008065579459071159,-0.00022482918575406075
1761412873520908000,1.362907958984375,-0.0005708925891667604,-0.001302132848650217,-0.0012115302961319685
1761412873530921200,1.372921142578125,0.001870080828666687,-0.0021778990048915148,0.0006450088694691658
1761412873540934100,1.38293408203125,-0.0004553913022391498,0.000026931986212730408,-0.0000697835348546505
1761412873550946300,1.3929462890625,0.00013387607759796083,-0.00019548553973436356,0.001584378769621253
1761412873560959000,1.402958984375,-0.0016416533617302775,-0.00013290159404277802,0.0007840986363589764
1761412873570972200,1.41297216796875,-0.00008231805986724794,-0.0007713162340223789,-0.001245690742507577
1761412873580985000,1.422985107421875,0.00018559597083367407,-0.0007374938577413559,0.000014783348888158798
1761412873590998300,1.432998291015625,-0.0006853730883449316,0.00010491348803043365,-0.0009698597714304924
1761412873601011200,1.44301123046875,0.002137045143172145,0.0015315692871809006,-0.0003336304798722267
1761412873611024100,1.453024169921875,-0.0002977321855723858,0.0009073731489479542,0.0005989363417029381
1761412873621037300,1.463037353515625,-0.0018466266337782145,-0.0008215513080358505,-0.00502965459600091
1761412873631050000,1.473050048828125,0.00005828755092807114,-0.001591758569702506,-0.0013343481114134192
1761412873641063200,1.483063232421875,-0.00031162553932517767,-0.0014080004766583443,0.00295866746455431
1761412873651076000,1.493076171875,0.0004544199036899954,-0.0018986414652317762,0.0009577611926943064
1761412873661089300,1.50308935546875,-0.0006238940404728055,0.0025688111782073975,-0.0013061921345070004
1761412873671103200,1.513103271484375,-0.00046852187369950116,-0.0005108928307890892,0.0018957657739520073
1761412873681115100,1.523115234375,-0.0004951534792780876,-0.0022526001557707787,0.0002533942461013794
1761412873691128300,1.53312841796875,0.00047445372911170125,0.00046134693548083305,0.0019139403011649847
1761412873701141000,1.54314111328125,0.0016121560474857688,-0.00025664130225777626,0.0017195295076817274
1761412873711154200,1.553154296875,0.0031850310042500496,-0.0022204883862286806,0.0031937705352902412
1761412873721167000,1.5631669921875,0.0014656942803412676,-0.0011056889779865742,0.0011348805855959654
1761412873731180300,1.57318017578125,0.000917453202418983,0.0003223107196390629,0.0005512728821486235
1761412873741193000,1.58319287109375,0.00326396431773901,-0.002493715612217784,-0.00021944590844213963
1761412873751206100,1.5932060546875,0.0027548710349947214,0.0008072205819189548,-0.0030056871473789215
1761412873761219300,1.60321923828125,-0.00023878843057900667,-0.0011347564868628979,0.0005088865291327238
1761412873771232300,1.613232177734375,0.0028273421339690685,0.00020502321422100067,-0.0023305299691855907
1761412873781245200,1.6232451171875,-0.0007775126141496003,-0.0002264091745018959,-0.0015038847923278809
1761412873791258000,1.633258056640625,0.00022570957662537694,-0.003000951837748289,-0.0010740801226347685
1761412873801270300,1.643270263671875,-0.001228376291692257,0.0017210990190505981,-0.003949228674173355
1761412873811283200,1.653283203125,-0.0018289051949977875,0.00007749348878860474,-0.00235028937458992
1761412873821296000,1.663296142578125,0.0020385372918099165,-0.0020178817212581635,0.0013128886930644512
1761412873831309000,1.67330908203125,0.0002110967761836946,0.0004661218263208866,-0.0011238382430747151
1761412873841322200,1.683322265625,-0.0007335264817811549,-0.0007725143805146217,0.0034586628898978233
1761412873851335200,1.693335205078125,-0.0001831312256399542,0.00003819214180111885,0.0019298356492072344
1761412873861348000,1.70334814453125,-0.0005059063551016152,-0.00003397976979613304,0.0010539221111685038
1761412873871361300,1.713361328125,-0.001687239040620625,-0.00023852800950407982,0.0027020396664738655
1761412873881374200,1.723374267578125,-0.000022230669856071472,0.0006211400032043457,0.0038778255693614483
1761412873891387100,1.73338720703125,0.0006758269155398011,-0.0007517673075199127,0.0006473418325185776
1761412873901400000,1.743400146484375,-0.0014669523807242513,-0.0021025226451456547,-7.264316082000732e-8
1761412873911413200,1.753413330078125,0.00010024599032476544,-0.0019768744241446257,0.004139135591685772
1761412873921425200,1.763425048828125,-0.0009234731551259756,0.0004332861863076687,0.0024288534186780453
1761412873931438000,1.77343798828125,0.0007983397226780653,0.0017306078225374222,-0.0015620575286448002
1761412873941451000,1.783450927734375,-0.0005026145372539759,0.0000996878370642662,-0.0037916558794677258
1761412873951464200,1.793464111328125,-0.0009782447014003992,-0.00045046908780932426,0.00022902782075107098
1761412873961477400,1.803477294921875,-0.000754272798076272,-0.00017935922369360924,-0.001963286427780986
1761412873971490000,1.813489990234375,0.001860734075307846,-0.0004512714222073555,-0.0018115043640136719
1761412873981503200,1.823503173828125,0.0019259816035628319,-0.0001660468988120556,0.0013475371524691582
1761412873991516200,1.83351611328125,0.0030366978608071804,0.00030005956068634987,-0.002179978182539344
1761412874001529300,1.843529296875,0.00014104275032877922,-0.0013734707608819008,-0.0005527867469936609
1761412874011542000,1.8535419921875,-0.0008009397424757481,-0.0018325552809983492,-0.00011458899825811386
1761412874021555200,1.86355517578125,-0.0014747194945812225,-0.000452239066362381,-0.0011545533780008554
1761412874031568100,1.873568115234375,0.0009064520127139986,-0.0021380053367465734,0.0009450474753975868
1761412874041581000,1.8835810546875,0.0013514661695808172,-0.0013555686455219984,0.00005794852040708065
1761412874051593000,1.893593017578125,-0.0024498868733644485,-0.0011826884001493454,-0.002593044191598892
1761412874061606100,1.903606201171875,-0.00043547185487113893,0.000591775868088007,0.002580146072432399
1761412874071619300,1.913619384765625,-0.00012501186574809253,0.000765661709010601,0.0010621000546962023
1761412874081632300,1.92363232421875,-0.0006848082994110882,0.00010732840746641159,-0.006756940856575966
1761412874091645200,1.933645263671875,0.0002891623298637569,0.00008418736979365349,-0.0004127086140215397
1761412874101658000,1.943658203125,0.000006068323273211718,0.001230145338922739,0.00003150664269924164
1761412874111671300,1.95367138671875,-0.001467638649046421,0.0008231429383158684,-0.0017324493965134025
1761412874121684000,1.96368408203125,-0.001895874971523881,-0.00005756458267569542,-0.0000021937303245067596
1761412874131697200,1.973697265625,0.00008765104576013982,-0.0014645662158727646,-0.0013281095307320356
1761412874141710000,1.9837099609375,0.000606967369094491,0.00020683370530605316,-0.0019419682212173939
1761412874151723300,1.99372314453125,0.002811786253005266,0.00038314051926136017,-0.0019403693731874228
1761412874161736200,2.003736083984375,0.0011262715561315417,0.0007714293897151947,-0.00007162918336689472
1761412874171748000,2.013748046875,0.0032505090348422527,0.0034852256067097187,-0.000022991327568888664
1761412874181761300,2.02376123046875,-0.0000584684603381902,0.0014223414473235607,0.0008827496785670519
1761412874191774200,2.033774169921875,-0.000681928067933768,-0.0008478285744786263,0.0008966231252998114
1761412874201787100,2.043787109375,-0.00008884209091775119,0.000365507323294878,0.00030247168615460396
1761412874211800000,2.053800048828125,0.0010794992558658123,0.0007587810978293419,0.0015979057643562555
1761412874221813200,2.063813232421875,0.0007695073145441711,0.00015051523223519325,0.003012576838955283
1761412874231826200,2.073826171875,-0.0016323411837220192,0.0013474123552441597,0.004479809198528528
1761412874241839000,2.083839111328125,0.000281140033621341,-0.00047152675688266754,0.0000839955173432827
1761412874251852300,2.093852294921875,0.0008928088936954737,0.0010116002522408962,0.00021403003484010696
1761412874261865200,2.103865234375,-0.00045182107714936137,0.0016923043876886368,0.002049746923148632
1761412874271878100,2.113878173828125,-0.00007334444671869278,0.002335266675800085,0.0005607013590633869
1761412874281891000,2.12389111328125,-0.00034605214023031294,0.0007967585697770119,-0.0007043001241981983
1761412874291904300,2.133904296875,-0.0008484295103698969,-0.002346659777686,0.00022281846031546593
1761412874301916200,2.143916259765625,0.0004836836305912584,-0.001620948314666748,0.0012265639379620552
1761412874311929300,2.153929443359375,0.00040626790723763406,-0.0032313731499016285,0.00036706612445414066
1761412874321942000,2.16394189453125,-0.00048242893535643816,-0.0022625152487307787,-0.000028147129341959953
1761412874331955200,2.173955078125,-0.0010506708640605211,0.0013142586685717106,-0.0031702902633696795
1761412874341968100,2.183968017578125,-0.0036967876367270947,0.001426910050213337,-0.003375087399035692
1761412874351981000,2.19398095703125,-0.0015178316971287131,-0.001754917437210679,-0.005016901530325413
1761412874361994200,2.203994140625,0.00016022604540921748,-0.001266760053113103,-0.0005912607302889228
1761412874372007200,2.214007080078125,0.0004771829699166119,-0.0008725388906896114,-0.0021157031878829002
1761412874382020400,2.224020263671875,-0.00018754205666482449,-0.0019383360631763935,-0.003727714531123638
1761412874392033000,2.234032958984375,0.0028797751292586327,-0.001960406545549631,-0.0007194576319307089
1761412874402046200,2.244046142578125,0.0009335371432825923,0.001704901922494173,0.00015885289758443832
1761412874412059100,2.25405908203125,0.0010195213835686445,0.0026839659549295902,-0.0015788822202011943
1761412874422071300,2.2640712890625,0.00047943240497261286,-0.0010577752254903316,0.0005817404016852379
1761412874432084000,2.274083984375,0.0011255735298618674,0.002321470994502306,0.0028755455277860165
1761412874442097200,2.28409716796875,0.002058745129033923,0.001241026446223259,0.001178579404950142
1761412874452110000,2.294110107421875,-0.00020697846775874496,0.0007342938333749771,-0.000390675850212574
1761412874462123300,2.304123291015625,0.0009003638988360763,0.0006847591139376163,0.001206421758979559
1761412874472136200,2.31413623046875,-0.0008327318355441093,-0.0005128402262926102,0.0024566776119172573
1761412874482149000,2.324149169921875,0.00010496715549379587,0.0009396476671099663,0.001760793849825859
1761412874492162300,2.334162353515625,-0.0006257969653233886,-0.002648900728672743,0.0015488096978515387
1761412874502175000,2.344175048828125,-0.0017768151592463255,-0.0029759369790554047,0.000644666375592351
1761412874512188200,2.354188232421875,-0.0004711746296379715,-0.0021883731242269278,-0.0006959006423130631
1761412874522201000,2.364201171875,-0.0017998256953433156,0.0003621364012360573,-0.0016277406830340624
1761412874532214300,2.37421435546875,0.0006822338909842074,-0.0016986103728413582,-0.0012723946711048484
1761412874542226200,2.38422607421875,-0.0011590756475925446,-0.00028207479044795036,0.00014653755351901054
1761412874552239000,2.394239013671875,-0.001888218685053289,-0.0003957962617278099,-0.001954177860170603
1761412874562252000,2.404251953125,0.00042447037412784994,-0.0002815467305481434,-0.0035789725370705128
1761412874572265200,2.41426513671875,0.00030409058672375977,0.0006423052400350571,-0.002121692057698965
1761412874582278100,2.424278076171875,0.000716614187695086,-0.0017665238119661808,-0.003230632282793522
1761412874592291000,2.434291015625,0.00012804038124158978,0.001661935355514288,0.0006784852594137192
1761412874602304300,2.44430419921875,-0.0007356227142736316,0.0003212997689843178,-0.0009923820616677403
1761412874612317200,2.454317138671875,0.0010413485579192638,0.00046181119978427887,0.000706428661942482
1761412874622330000,2.464330078125,0.0028254003264009953,-0.0019440888427197933,0.0013367990031838417
1761412874632343000,2.474343017578125,0.00013376271817833185,0.0000773826614022255,0.00004878710024058819
1761412874642356200,2.484356201171875,0.000023507862351834774,-0.0013261032290756702,-0.0002233879640698433
1761412874652369200,2.494369140625,0.0011413677129894495,0.0006451094523072243,-0.0005284720100462437
1761412874662382000,2.504382080078125,0.000658536737319082,0.0008589611388742924,-0.0028598031494766474
1761412874672393500,2.5143935546875,0.0011167202610522509,-0.0008024065755307674,-0.0038793357089161873
1761412874682406700,2.52440673828125,-0.0002212518302258104,0.0012596789747476578,-0.0009264227701351047
1761412874692419600,2.534419677734375,-0.00024490797659382224,-0.0011734417639672756,-0.0006760077085345984
1761412874702432500,2.5444326171875,-0.00002972455695271492,0.0010122144594788551,-0.0017098468961194158
1761412874712445400,2.554445556640625,-0.0007606869330629706,0.002367389388382435,-0.0021816622465848923
1761412874722458600,2.564458740234375,-0.0015721521340310574,-0.0006784680299460888,0.00009906897321343422
1761412874732471600,2.574471435546875,-0.0007777790888212621,0.00026990892365574837,0.000033487798646092415
1761412874742484500,2.584484375,-0.0012172006536275148,-0.00008562300354242325,0.000255062710493803
1761412874752497700,2.59449755859375,0.0009667566046118736,-0.0019472541753202677,-0.0016115230973809958
1761412874762510600,2.604510498046875,0.0008626270573586226,0.0012408159673213959,-0.0019819687586277723
1761412874772523500,2.6145234375,-0.0029278190340846777,-0.00010889163240790367,-0.003372643142938614
1761412874782536400,2.624536376953125,0.001941238297149539,-0.00028572557494044304,-0.001127065741457045
1761412874792548600,2.634548583984375,0.0009775783400982618,0.0028772824443876743,-0.0005072453059256077
1761412874802561500,2.6445615234375,-0.0008999502751976252,-0.0013116039335727692,-0.0028715997468680143
1761412874812574700,2.65457470703125,-0.0009424490272067487,0.0004997467622160912,-0.0006972015835344791
1761412874822587400,2.66458740234375,-0.0018159658648073673,0.002121611963957548,0.0002820428926497698
1761412874832600600,2.6746005859375,0.0008366642287001014,0.003930849954485893,0.0008678443264216185
1761412874842613500,2.684613525390625,0.00017406971892341971,0.0016051111742854118,-0.001040044124238193
1761412874852626700,2.694626708984375,0.00007421718328259885,0.0004582810215651989,0.00008690962567925453
1761412874862639600,2.7046396484375,0.0018984824419021606,0.0021528503857553005,-0.00034478865563869476
1761412874872652500,2.714652587890625,-0.0015073171816766262,-0.0009517539292573929,-0.0009770056931301951
1761412874882665700,2.724665771484375,0.0006535717402584851,-0.0020393889863044024,0.0031964341178536415
1761412874892678400,2.734678466796875,-0.0007842606282792985,-0.0022535687312483788,0.0008428930304944515
1761412874902691600,2.744691650390625,0.0008013854967430234,0.0022351890802383423,0.003552393289282918
1761412874912704500,2.75470458984375,0.0011316068703308702,0.0034556789323687553,0.0004382303450256586
1761412874922716700,2.764716552734375,-0.0005965183372609317,0.0012319395318627357,-0.0006765688303858042
1761412874932729600,2.7747294921875,-0.00010665535228326917,-0.005346244666725397,-0.00010890117846429348
1761412874942742500,2.784742431640625,0.0003756431397050619,-0.0011166124604642391,-0.0017009389121085405
1761412874952755700,2.794755615234375,-0.0017998875118792057,0.002548358403146267,-0.002920194761827588
1761412874962768600,2.8047685546875,0.0028033864218741655,0.0004543149843811989,-0.0017577249091118574
1761412874972781600,2.814781494140625,0.000017598416889086366,0.007343408651649952,-0.0009521861793473363
1761412874982794500,2.82479443359375,0.0010525027755647898,0.0019534374587237835,-0.002433702815324068
1761412874992807700,2.8348076171875,-0.001467078342102468,-0.010645613074302673,-0.007026202045381069
1761412875002820600,2.844820556640625,-0.0018780040554702282,-0.004438050556927919,-0.0031307965982705355
1761412875012833500,2.85483349609375,0.00044277054257690907,0.003726562950760126,-0.0011927933664992452
1761412875022846500,2.864846435546875,0.00002651844988577068,0.00001917639747262001,0.00025569996796548367
1761412875032859600,2.874859619140625,-0.0007944945245981216,0.0026612039655447006,-0.0009677410125732422
1761412875042871600,2.88487158203125,0.0021312544122338295,-0.001443526241928339,-0.0006170027190819383
1761412875052884500,2.894884521484375,-0.0016616247594356537,-0.0027156327851116657,-0.0022111544385552406
1761412875062897700,2.904897705078125,0.002026054309681058,0.0049787722527980804,-0.0006534714484587312
1761412875072910600,2.91491064453125,0.0018497088458389044,0.0006365058943629265,0.003973772749304771
1761412875082923800,2.924923828125,-0.0008584597380831838,-0.004365975968539715,0.004310929216444492
1761412875092936400,2.9349365234375,0.0017675915732979774,0.0001404872164130211,0.0004375535063445568
1761412875102949600,2.94494970703125,-0.0000074052950367331505,-0.00127178686670959,0.0017542201094329357
1761412875112962600,2.954962646484375,-0.0005810605362057686,-0.000002402346581220627,-0.0006793582579120994
1761412875122975500,2.9649755859375,-0.0017198282293975353,0.002710293512791395,-0.0008191742235794663
1761412875132988700,2.97498876953125,0.002501820679754019,-0.0013248207978904247,-0.0034716413356363773
1761412875143001600,2.985001708984375,-0.0017717538867145777,-0.0017511930782347918,-0.00404581893235445
1761412875153014800,2.995014892578125,-0.002021629363298416,0.00009645987302064896,-0.004397669807076454
1761412875163026700,3.005026611328125,0.0018838964169844985,0.0002823481336236,-0.004165442194789648
1761412875173039600,3.01503955078125,-0.0010043600341305137,-0.00011755246669054031,-0.004282429814338684
1761412875183052500,3.025052490234375,0.003139252308756113,-0.0008512535132467747,-0.0028501818887889385
1761412875193065700,3.035065673828125,0.00011755403829738498,0.0011532986536622047,-0.0018213526345789433
1761412875203078400,3.045078369140625,0.001415312523022294,-0.0010872185230255127,-0.0002836433704942465
1761412875213091600,3.055091552734375,-0.0005757778999395669,0.0008129561319947243,0.0007387914229184389
1761412875223104500,3.0651044921875,-0.001742508728057146,-0.0000981111079454422,0.005096521694213152
1761412875233117700,3.07511767578125,-0.001436445047147572,0.0027327993884682655,0.006126490421593189
1761412875243130600,3.085130615234375,0.0004219086840748787,-0.00906340591609478,0.004536583088338375
1761412875253143600,3.0951435546875,0.0001230311463586986,-0.004347943235188723,0.0025914330035448074
1761412875263156700,3.10515673828125,0.0011749797267839313,0.007577958051115274,0.004732614383101463
1761412875273169400,3.11516943359375,-0.00022638938389718533,0.005144460592418909,0.0028394951950758696
1761412875283182600,3.1251826171875,0.000014360382920131087,0.004979877267032862,0.0016751608345657587
1761412875293194500,3.135194580078125,0.0019902302883565426,-0.00227730767801404,-0.0014133306685835123
1761412875303207700,3.145207763671875,0.00010844069765880704,-0.017164910212159157,-0.002409086562693119
1761412875313220600,3.155220703125,-0.0006491001113317907,0.008059674873948097,0.0003714943304657936
1761412875323233500,3.165233642578125,-0.0008903824491426349,0.017564229667186737,-0.0027430725749582052
1761412875333246500,3.17524658203125,0.0003384323790669441,-0.008494675159454346,-0.005045379512012005
1761412875343259600,3.185259765625,-0.0009569291723892093,-0.010945049114525318,-0.006055782549083233
1761412875353272600,3.1952724609375,0.0008441907120868564,0.0056387209333479404,-0.002923638792708516
1761412875363285500,3.205285400390625,0.0009882677113637328,-0.0015486180782318115,0.0020202533341944218
1761412875373298700,3.215298583984375,0.00009848596528172493,-0.00030783936381340027,0.003298309398815036
1761412875383311600,3.2253115234375,-0.00011962692951783538,0.0031529380939900875,-0.0008793912129476666
1761412875393324500,3.235324462890625,-0.0020494633354246616,-0.005377471912652254,-0.0024974076077342033
1761412875403337500,3.24533740234375,-0.0011421244125813246,0.0030197412706911564,0.001315173925831914
1761412875413349600,3.255349609375,-0.0000654815521556884,0.003170160111039877,0.001927240751683712
1761412875423362600,3.265362548828125,0.00045037278323434293,-0.0018072875682264566,0.0005352064035832882
1761412875433375500,3.27537548828125,-0.0006483612232841551,-0.0044604274444282055,-0.0007640055846422911
1761412875443388400,3.285388427734375,0.0005332833388820291,0.0001439116895198822,-0.0016066298121586442
1761412875453401600,3.295401611328125,-0.0025064595974981785,0.00292492238804698,-0.0010271238861605525
1761412875463414800,3.305414794921875,0.0005913293571211398,0.003998443018645048,0.0007302961312234402
1761412875473427500,3.315427490234375,0.0011821701191365719,0.0016803382895886898,0.005305266473442316
1761412875483440600,3.325440673828125,-0.002649585949257016,-0.001174303935840726,0.0002479236572980881
1761412875493453600,3.33545361328125,0.0013478912878781557,-0.001189444912597537,0.002094173338264227
1761412875503466500,3.345466552734375,0.0006112608825787902,0.00035652006044983864,0.002597244456410408
1761412875513479400,3.3554794921875,0.0009141153423115611,0.0010356367565691471,0.0020380280911922455
1761412875523492600,3.36549267578125,0.0026518278755247593,0.0008502807468175888,-0.0006235348992049694
1761412875533504500,3.37550439453125,0.004051429219543934,0.0005981288850307465,0.004004966467618942
1761412875543517700,3.385517578125,-0.0014927396550774574,0.002557416446506977,0.0025074712466448545
1761412875553530600,3.395530517578125,0.0003568301326595247,-0.004396363627165556,-0.0009413225343450904
1761412875563543600,3.40554345703125,-0.001132942154072225,-0.007202536333352327,-0.0035168654285371304
1761412875573556700,3.415556640625,0.0014222654281184077,0.00520310876891017,-0.00013155234046280384
1761412875583569400,3.4255693359375,-0.0012717882636934519,0.009464167058467865,0.0008128045592457056
1761412875593582600,3.43558251953125,0.00010569888399913907,-0.0024887139443308115,0.0022812429815530777
1761412875603595500,3.445595458984375,-0.00033825007267296314,-0.01081135869026184,0.0013752358499914408
1761412875613608700,3.455608642578125,-0.0011631881352514029,-0.0026590852066874504,-0.0021822338458150625
1761412875623621400,3.465621337890625,0.0004227243480272591,0.0029109157621860504,-0.0012120443861931562
1761412875633634600,3.475634521484375,0.00048357545165345073,0.0038356734439730644,0.0036095120012760162
1761412875643647700,3.485647705078125,-0.00036410873872227967,0.0025467034429311752,-0.0014084160793572664
1761412875653660400,3.495660400390625,0.000717956863809377,0.0003445027396082878,-0.003933771047741175
1761412875663672600,3.505672607421875,0.0009725549607537687,-0.0013356853742152452,-0.0013800659216940403
1761412875673685500,3.515685546875,-0.0015078673604875803,-0.000030841678380966187,0.00036391522735357285
1761412875683698700,3.52569873046875,0.0015928511274978518,0.0004048515111207962,-0.0021351950708776712
1761412875693712000,3.5357119140625,0.00012198957847431302,-0.0013390544336289167,-0.0034537487663328648
1761412875703724500,3.545724609375,0.0007654092623852193,-0.0020013826433569193,0.0009164987131953239
1761412875713737700,3.55573779296875,0.0006777315284125507,-0.00285261869430542,0.002898881211876869
1761412875723750700,3.565750732421875,0.0016583073884248734,0.0012731505557894707,0.0008144250605255365
1761412875733763600,3.575763671875,0.001566089573316276,0.0013684132136404514,0.00280560040846467
1761412875743776500,3.585776611328125,0.0008947066962718964,0.00037904875352978706,-0.0011593137169256806
1761412875753789700,3.595789794921875,-0.0000923546904232353,-0.004463436082005501,0.0023558170069009066
1761412875763803000,3.605802978515625,-0.0007951628649607301,0.0013909908011555672,0.00003567105159163475
1761412875773815600,3.615815673828125,0.0011809058487415314,0.0025553726591169834,-0.0010677491081878543
1761412875783827500,3.625827392578125,-0.0003666569828055799,0.0015729325823485851,0.0012460052967071533
1761412875793840600,3.635840576171875,-0.00042882721754722297,-0.0009526028297841549,0.0024063684977591038
1761412875803853800,3.645853759765625,0.0019754746463149786,0.00007511116564273834,-0.0007420204346999526
1761412875813866500,3.655866455078125,-0.0005782207590527833,-0.000976016279309988,-0.0005195500561967492
1761412875823879700,3.665879638671875,-0.00042855110950767994,-0.00006201956421136856,-0.0005981132853776217
1761412875833892600,3.675892578125,-0.00027853110805153847,0.0002568298950791359,0.0013803716283291578
1761412875843905800,3.68590576171875,-0.0013296807883307338,0.00020037079229950905,0.0010152522008866072
1761412875853918500,3.69591845703125,-0.0008644963381811976,-0.0006112521514296532,0.000785058131441474
1761412875863931600,3.705931640625,-0.0013491916470229626,0.00289772916585207,-0.0011601147707551718
1761412875873944800,3.71594482421875,-0.0017645986517891288,0.0008430313318967819,-0.0005039650714024901
1761412875883957500,3.72595751953125,0.0011212027166038752,-0.0021378451492637396,-0.00025655748322606087
1761412875893970700,3.735970703125,-0.0013831800315529108,-0.0004313811659812927,0.0008117340039461851
1761412875903983600,3.745983642578125,-0.0006625285604968667,-0.0011981052812188864,0.0014982970897108316
1761412875913995800,3.755995849609375,0.0012656708713620901,0.0008194763213396072,-0.0016708241309970617
1761412875924008700,3.7660087890625,-0.0009101316682063043,-0.0006274189800024033,-0.0010337959975004196
1761412875934021600,3.776021728515625,-0.000772376311942935,-0.0007184399291872978,0.002505955519154668
1761412875944034600,3.78603466796875,0.0007829098030924797,0.0018579023890197277,0.00140580371953547
1761412875954047700,3.7960478515625,-0.0013103026431053877,-0.0002441899850964546,-0.0006341288099065423
1761412875964060700,3.806060791015625,0.0015888144262135029,-0.00019225850701332092,0.00013232906349003315
1761412875974073600,3.816073486328125,-0.00016142750973813236,0.0006636320613324642,-0.0015754650812596083
1761412875984086800,3.826086669921875,0.0033121334854513407,0.0012476635165512562,0.0013689256738871336
1761412875994099700,3.836099609375,0.001875141984783113,-0.0002662837505340576,-0.000009059440344572067
1761412876004112600,3.846112548828125,-0.0009909518994390965,-0.0020985386800020933,-0.0005621978780254722
1761412876014125600,3.85612548828125,0.0028534650336951017,0.00040394486859440804,-0.00004323432222008705
1761412876024138800,3.866138671875,-0.001925045158714056,-0.00004506390541791916,-0.0007726742187514901
1761412876034150700,3.876150634765625,-0.0003446466871537268,0.000855705700814724,-0.0010990692535415292
1761412876044163600,3.88616357421875,0.0006519082235172391,0.0009012459777295589,-0.000771500519476831
1761412876054176500,3.896176513671875,-0.0007958158385008574,0.0008904351852834225,-0.0018629367696121335
1761412876064189700,3.906189697265625,0.000109658925794065,-0.0020904408302158117,0.0009080823510885239
1761412876074203000,3.916202880859375,-0.0006368146277964115,0.005052146036177874,0.002325652167201042
1761412876084215600,3.926215576171875,-0.0017862350214272738,0.0010459530167281628,0.0003679627552628517
1761412876094228700,3.936228759765625,0.002596575766801834,-0.015698976814746857,-0.002885489957407117
1761412876104241700,3.94624169921875,-0.0024980513844639063,-0.00209102313965559,0.0006109741516411304
1761412876114254600,3.956254638671875,0.004388430621474981,0.00389188714325428,0.009296291507780552
1761412876124267500,3.966267578125,-0.00292354472912848,0.0023872009478509426,0.003328946651890874
1761412876134280700,3.97628076171875,-0.00030872056959196925,0.006029113661497831,0.0025943093933165073
1761412876144293600,3.986293701171875,0.00046679191291332245,-0.005653908010572195,-0.001636388013139367
1761412876154306600,3.996306640625,0.0025577861815690994,-0.0069568948820233345,-0.0017406302504241467
1761412876164318500,4.006318359375,0.001217150827869773,0.00898532010614872,-0.001402142457664013
1761412876174331600,4.01633154296875,0.00048109100316651165,0.007653038017451763,0.00418583769351244
1761412876184344800,4.0263447265625,0.001524517429061234,-0.006518706679344177,0.002631883369758725
1761412876194357800,4.036357666015625,0.000206212600460276,0.00154501898214221,-0.0037689998280256987
1761412876204370700,4.04637060546875,0.0020320757757872343,0.0006723008118569851,-0.003034499939531088
1761412876214383600,4.056383544921875,-0.00013387110084295273,-0.0037263338454067707,-0.00016285129822790623
1761412876224396800,4.066396728515625,0.0008584227180108428,0.0008167526684701443,-0.00021638092584908009
1761412876234409500,4.076409423828125,0.0010291282087564468,0.0012618866749107838,-0.00004805438220500946
1761412876244422700,4.086422607421875,0.000907688052393496,-0.006332117132842541,0.001808701315894723
1761412876254435800,4.096435791015625,-0.0008949874900281429,-0.0026808634866029024,0.0008355448953807354
1761412876264448800,4.10644873046875,0.0003718782390933484,0.004840170033276081,-0.0032422873191535473
1761412876274461700,4.116461669921875,-0.0007097102934494615,0.0002686958760023117,-0.0028415683191269636
1761412876284473600,4.1264736328125,-0.000060431601013988256,-0.00038351211696863174,-0.001101991510950029
1761412876294486800,4.13648681640625,-0.0004936557961627841,-0.001279883086681366,0.00023483578115701675
1761412876304499700,4.146499755859375,-0.0009423984447494149,0.004865627270191908,-0.000053318217396736145
1761412876314512600,4.1565126953125,-0.00035085773561149836,-0.0026041946839541197,0.0012695516925305128
1761412876324525600,4.166525634765625,0.0012220052303746343,-0.0005389130674302578,0.0018141679465770721
1761412876334538800,4.176538818359375,0.0006426976178772748,0.0006938939914107323,0.002268061973154545
1761412876344551700,4.1865517578125,0.0011471002362668514,0.001600966788828373,0.0018081343732774258
1761412876354564600,4.196564697265625,0.000050191301852464676,0.000029680319130420685,-0.0013241899432614446
1761412876364577800,4.206577880859375,0.0003913422697223723,0.0037631653249263763,0.0006803714204579592
1761412876374590700,4.2165908203125,0.0007826485089026392,0.00033564912155270576,0.0035635537933558226
1761412876384603600,4.226603759765625,-0.00029912753961980343,-0.00015250826254487038,-0.0016650303732603788
1761412876394616600,4.236616455078125,0.0002359497593715787,0.002146214246749878,-0.0026054056361317635
1761412876404628700,4.246628662109375,-0.0006165280938148499,0.0013581844978034496,0.00026308512315154076
1761412876414641700,4.2566416015625,-0.00001664433511905372,-0.0002989917993545532,-0.0017019580118358135
1761412876424654800,4.26665478515625,-0.001554087270051241,0.0020909286104142666,-0.0009690561564639211
1761412876434667500,4.27666748046875,-0.0012811797205358744,0.004839745815843344,-0.002215862972661853
1761412876444680700,4.2866806640625,-0.000854541314765811,-0.0038437575567513704,-0.0056084636598825455
1761412876454693600,4.296693603515625,-0.0014863857068121433,-0.028295522555708885,-0.00018198834732174873
1761412876464706600,4.30670654296875,0.0019368415232747793,0.006469649728387594,0.004252174869179726
1761412876474719700,4.3167197265625,-0.0026652738451957703,0.044730376452207565,0.003290352178737521
1761412876484732700,4.326732666015625,-0.002463672310113907,-0.008585309609770775,0.002979827346280217
1761412876494745900,4.336745849609375,-0.0005697124870494008,-0.035967517644166946,-0.0025565694086253643
1761412876504758500,4.346758544921875,-0.0006267041899263859,0.011630360968410969,-0.009448830038309097
1761412876514771700,4.356771728515625,-0.0008722924394533038,0.012305600568652153,-0.0031669670715928078
1761412876524784600,4.36678466796875,-0.0029817824251949787,-0.0029852036386728287,0.010466020554304123
1761412876534796800,4.376796875,-0.002006789669394493,0.008551480248570442,0.0073075126856565475
1761412876544809500,4.3868095703125,0.001704059075564146,-0.01424251589924097,-0.0021853246726095676
1761412876554822700,4.39682275390625,-0.0004253377264831215,-0.011997291818261147,0.0005715060979127884
1761412876564835600,4.406835693359375,0.0006660256767645478,0.022311680018901825,0.004451198969036341
1761412876574848800,4.416848876953125,0.0009789037285372615,0.004021948203444481,-0.0022133863531053066
1761412876584861700,4.42686181640625,0.0028495080769062042,-0.016579467803239822,-0.0026051371823996305
1761412876594874600,4.43687451171875,-0.0005550446221604943,0.002917376346886158,-0.0031996516045182943
1761412876604887800,4.4468876953125,0.00011687091318890452,-0.0012475408148020506,-0.0007932193111628294
1761412876614900500,4.456900390625,-0.00046362774446606636,-0.0008565499447286129,-0.004933223128318787
1761412876624913700,4.46691357421875,-0.0007544449181295931,0.010207019746303558,-0.006722867488861084
1761412876634926600,4.476926513671875,0.0013091075234115124,-0.0046097529120743275,-0.0023550651967525482
1761412876644939800,4.486939697265625,-0.00062914117006585,-0.012816550210118294,-0.003947635181248188
1761412876654951700,4.49695166015625,-0.0014257975853979588,0.006458827760070562,0.0001875273883342743
1761412876664964600,4.506964599609375,-0.0004516133340075612,0.00566254323348403,0.0022051380947232246
1761412876674977800,4.516977783203125,0.00025575264589861035,-0.0043587638065218925,-0.002196921966969967
1761412876684991000,4.526990966796875,0.00034949590917676687,-0.001565640326589346,0.003372014034539461
1761412876695003600,4.537003662109375,0.0007478761835955083,-0.0004250304773449898,0.00512827280908823
1761412876705016800,4.547016845703125,-0.0008367047412320971,0.001231189351528883,0.005530942231416702
1761412876715029800,4.55702978515625,-0.00011375837493687868,0.0031649423763155937,0.0037414419930428267
1761412876725043000,4.56704296875,-0.0009859437122941017,0.0022197868674993515,0.0008276773151010275
1761412876735055600,4.5770556640625,-0.0013558468781411648,-0.0031374378595501184,0.0017205877229571342
1761412876745068800,4.58706884765625,-0.0015294848708435893,0.00026714708656072617,-0.001400636974722147
1761412876755082000,4.59708203125,0.000359350407961756,0.002648121677339077,-0.002835911465808749
1761412876765094700,4.6070947265625,0.00022139865905046463,0.0001474134624004364,-0.001398337073624134
1761412876775107800,4.61710791015625,-0.0004341272288002074,-0.000999158713966608,0.0012229399289935827
1761412876785119700,4.62711962890625,-0.0010216205846518278,-0.003419705666601658,-0.001042344723828137
1761412876795133000,4.6371328125,-0.000028261943953111768,0.0004495028406381607,0.00018418650142848492
1761412876805145900,4.647145751953125,0.0010838741436600685,0.00977349653840065,-0.0007034450536593795
1761412876815158800,4.65715869140625,0.0006547258817590773,-0.0136323357000947,-0.002493791515007615
1761412876825171700,4.667171630859375,-0.0015042987652122974,-0.0172214787453413,0.0013046751264482737
1761412876835185000,4.677184814453125,0.0017512384802103043,0.024083126336336136,0.007332398556172848
1761412876845197600,4.687197509765625,0.0007426994270645082,0.025140132755041122,0.007985405623912811
1761412876855210800,4.697210693359375,-0.0015544821508228779,-0.013917697593569756,0.0016175955533981323
1761412876865224000,4.707223876953125,0.0007787132635712624,-0.01983257755637169,-0.0013718025293201208
1761412876875236900,4.71723681640625,-0.001894651330076158,0.0040146587416529655,-0.0037003508768975735
1761412876885249800,4.727249755859375,0.0006691737798973918,0.012686177156865597,0.003173534059897065
1761412876895262700,4.7372626953125,-0.00026761527988128364,0.006837855093181133,0.007501342333853245
1761412876905275000,4.74727490234375,0.0016802207101136446,-0.0005779829807579517,0.0032051310408860445
1761412876915287800,4.757287841796875,-0.001507316017523408,-0.012306664139032364,-0.002659900113940239
1761412876925300700,4.76730078125,-0.0006351308547891676,0.0014759935438632965,0.0022472406271845102
1761412876935313700,4.777313720703125,0.0018337718211114407,0.013035956770181656,0.0010855186264961958
1761412876945326800,4.787326904296875,-0.001268278225325048,-0.000025249086320400238,-0.004397663287818432
1761412876955339800,4.79733984375,-0.0007195952348411083,-0.004439685959368944,-0.002692124340683222
1761412876965352700,4.807352783203125,0.0004886810202151537,-0.004055924713611603,0.0026448506396263838
1761412876975366000,4.817365966796875,-0.0016127277631312609,-0.002733762376010418,-0.00007941806688904762
1761412876985378800,4.82737890625,-0.00008753538713790476,0.003021595533937216,-0.0030080964788794518
1761412876995391700,4.837391845703125,-0.0019137656781822443,0.004069076385349035,-0.006464637815952301
1761412877005404700,4.84740478515625,-0.0017675580456852913,-0.007639245130121708,-0.0052148159593343735
1761412877015417900,4.85741796875,-0.0008408986032009125,-0.004326805472373962,-0.004272057209163904
1761412877025429800,4.8674296875,0.00039400917012244463,0.004502372350543737,-0.0071288300678133965
1761412877035443000,4.87744287109375,-0.0018615704029798508,0.003565472085028887,-0.003559395205229521
1761412877045455600,4.88745556640625,0.0006471272790804505,-0.0007528434507548809,-0.0008632109966129065
1761412877055468800,4.89746875,0.0011038732482120395,-0.0024622573982924223,0.0006209912244230509
1761412877065482000,4.90748193359375,-0.00045567392953671515,-0.0017187029588967562,0.0022234153002500534
1761412877075494700,4.91749462890625,0.0004865810042247176,0.0012658596970140934,0.0038978192023932934
1761412877085507800,4.9275078125,-0.00019225876894779503,0.002127924934029579,0.005552441347390413
1761412877095520800,4.937520751953125,0.0000180340139195323,-0.0023905409034341574,0.00241678673774004
1761412877105534000,4.947533935546875,-0.0030643087811768055,0.001084617804735899,0.0006247458513826132
1761412877115546600,4.957546630859375,0.0014618659624829888,0.0007204865105450153,0.0015001005958765745
1761412877125559800,4.967559814453125,0.000804864102974534,0.0001958436332643032,0.0010601463727653027
1761412877135572700,4.97757275390625,-0.0003097206063102931,0.002688916400074959,-0.0023265210911631584
1761412877145585700,4.987585693359375,-0.0016836454160511494,0.002641778439283371,-0.0016234464710578322
1761412877155597600,4.99759765625,-0.0027546489145606756,0.0004363362677395344,-0.001599772134795785
1761412877165610800,5.00761083984375,-0.001517610508017242,-0.0017903326079249382,-0.0008269228274002671
1761412877175624000,5.0176240234375,0.0006352399359457195,-0.001996175618842244,0.0009113745763897896
1761412877185636900,5.027636962890625,0.000392625923268497,0.0005234410054981709,-0.0016820116434246302
1761412877195649800,5.03764990234375,-0.00305355666205287,0.005674516782164574,0.0007973429746925831
1761412877205662700,5.047662841796875,-0.0009483277681283653,-0.01059553399682045,-0.0013907101238146424
1761412877215676000,5.057676025390625,0.0004348749644123018,-0.011058103293180466,-0.004678020253777504
1761412877225688600,5.0676884765625,0.002966475673019886,0.011327897198498249,0.003212926210835576
1761412877235701800,5.07770166015625,-0.0022666784934699535,0.019333841279149055,0.008649575524032116
1761412877245715000,5.08771484375,-0.0022365848999470472,-0.0033656121231615543,-0.0005902618868276477
1761412877255727900,5.097727783203125,0.002324158325791359,-0.018175864592194557,-0.00480982381850481
1761412877265740800,5.10774072265625,-0.0007440695189870894,-0.008171167224645615,-0.007215190678834915
1761412877275752700,5.117752685546875,0.0021268134005367756,0.010949570685625076,-0.00020294124260544777
1761412877285766000,5.127765869140625,-0.0026045581325888634,0.010504554957151413,0.0008865580894052982
1761412877295778800,5.13777880859375,-0.002069939626380801,-0.004634748678654432,-0.002398329321295023
1761412877305791700,5.147791748046875,-0.0004709776840172708,-0.010328320786356926,-0.0009000349091365933
1761412877315804700,5.1578046875,0.0005312315770424902,-0.0034137654583901167,-0.0024939614813774824
1761412877325817900,5.16781787109375,0.0007024728110991418,0.00913691334426403,0.0002616110723465681
1761412877335830800,5.177830810546875,0.0004695042734965682,0.011258978396654129,-0.0002577297855168581
1761412877345843700,5.18784375,-0.0005464917048811913,-0.00031298771500587463,-0.002063619438558817
1761412877355857000,5.19785693359375,0.0003624692326411605,-0.009144237264990807,-0.0030554053373634815
1761412877365869800,5.207869873046875,0.0009331846958957613,-0.004853618796914816,-0.0016133036697283387
1761412877375882800,5.2178828125,-0.002541148569434881,0.0067481063306331635,0.0005150719080120325
1761412877385895700,5.227895751953125,0.0009800828993320465,0.007023476995527744,-0.0005001251120120287
1761412877395908900,5.237908935546875,-0.0008719679899513721,-0.0033330232836306095,-0.004615774378180504
1761412877405920800,5.247920654296875,0.00009822158608585596,-0.005828138906508684,-0.0010649815667420626
1761412877415934000,5.257933837890625,-0.0006860858993604779,-4.516914486885071e-7,-0.00009469524957239628
1761412877425946600,5.267946533203125,-0.001861871569417417,0.0037476811558008194,0.0013247695751488209
1761412877435959800,5.277959716796875,-0.0010011333506554365,-0.0006995704025030136,-0.00244321720674634
1761412877445972700,5.28797265625,0.001872151275165379,-0.0023770956322550774,0.005121225491166115
1761412877455985700,5.297985595703125,-0.0011156891705468297,-0.0027934068348258734,0.003559306263923645
1761412877465998800,5.307998779296875,-0.0006104875355958939,-0.001319347182288766,0.0014191903173923492
1761412877476011800,5.31801171875,0.00248129153624177,0.003981359768658876,-0.001358147943392396
1761412877486025000,5.32802490234375,-0.0014639152213931084,-0.00018196040764451027,-0.0024881272111088037
1761412877496037600,5.33803759765625,-0.0005653293337672949,-0.003141432534903288,0.0013485441450029612
1761412877506050800,5.34805078125,-0.000431904976721853,-0.0028607354033738375,-0.001022468088194728
1761412877516063700,5.358063720703125,-0.000340447761118412,0.0016895313747227192,-0.002023598412051797
1761412877526076000,5.368075927734375,0.0010747560299932957,0.003546819556504488,-0.0010496804025024176
1761412877536088800,5.3780888671875,0.0015962707111611962,-0.0002334783785045147,0.0006216950714588165
1761412877546101800,5.388101806640625,-0.0009656903566792607,-0.0010228389874100685,-0.0013628925662487745
1761412877556114700,5.39811474609375,0.0006270274752750993,0.0024695508182048798,-0.002206875244155526
1761412877566127900,5.4081279296875,0.00046723781269975007,-0.00023728609085083008,-0.0012007331242784858
1761412877576140800,5.418140869140625,-0.0006454932736232877,-0.010425642132759094,-0.0035423284862190485
1761412877586153700,5.42815380859375,-0.0016955776372924447,-0.004052164498716593,0.0006651997100561857
1761412877596167000,5.4381669921875,0.000165208475664258,0.011492805555462837,0.002854440128430724
1761412877606179800,5.448179931640625,-0.002008729847148061,0.009017663076519966,-0.001768541056662798
1761412877616192800,5.45819287109375,0.0001761118764989078,-0.009414204396307468,0.0006773071363568306
1761412877626205700,5.468205810546875,-0.0028031663969159126,-0.010399041697382927,-0.0062013715505599976
1761412877636219000,5.478218994140625,-0.0003256663912907243,0.004959606099873781,-0.0046684350818395615
1761412877646231800,5.488231689453125,-0.0015097078867256641,0.004461328964680433,-0.004972035530954599
1761412877656243700,5.49824365234375,-0.0012584553332999349,-0.0020184663590043783,-0.0009226739639416337
1761412877666257000,5.5082568359375,-0.0007050504209473729,0.00258107902482152,-0.0014545072335749865
1761412877676269300,5.518269287109375,-0.0010039776097983122,-0.0032241391018033028,-0.005486774258315563
1761412877686282500,5.528282470703125,0.0004993768525309861,-0.00038520945236086845,-0.00388914393261075
1761412877696295400,5.53829541015625,0.00022825083578936756,0.00963855441659689,-0.0029359017498791218
1761412877706308400,5.548308349609375,-0.0002607055357657373,0.0039878590032458305,-0.0032403012737631798
1761412877716321500,5.558321533203125,0.0009140832116827369,-0.008021551184356213,-0.002309622475877404
1761412877726334200,5.568334228515625,0.0009460411965847015,-0.0016257036477327347,-0.0014949614414945245
1761412877736347400,5.578347412109375,-0.0009106984362006187,0.0007552942261099815,0.0007676607929170132
1761412877746360300,5.5883603515625,-0.001069422927685082,0.0008509019389748573,0.000260861124843359
1761412877756373500,5.59837353515625,-0.0009201274951919913,0.0013720528222620487,-0.0003011641092598438
1761412877766386400,5.608386474609375,0.0006412838120013475,-0.0021449176128953695,0.0012634429149329662
1761412877776398300,5.6183984375,-0.0013366176281124353,-0.00048387469723820686,0.004452144261449575
1761412877786411500,5.62841162109375,-0.0017704465426504612,0.004002753179520369,0.0010443632490932941
1761412877796424400,5.638424560546875,0.0007696454413235188,0.0027686050161719322,0.000001323176547884941
1761412877806437400,5.648437255859375,0.0000580487831030041,-0.0038855690509080887,0.0006151818670332432
1761412877816450300,5.6584501953125,-0.0008039383683353662,0.0010234848596155643,0.0016657267697155476
1761412877826463500,5.66846337890625,-0.0001930092112161219,0.0013443958014249802,-0.001935399603098631
1761412877836476400,5.678476318359375,-0.000942750892136246,0.00039275968447327614,0.001185484230518341
1761412877846489300,5.6884892578125,0.0026876702904701233,-0.00015265587717294693,0.001630232436582446
1761412877856502300,5.698502197265625,0.0022806813940405846,0.0007129604928195477,0.0011365567333996296
1761412877866515500,5.708515380859375,0.0011997043620795012,0.001419230829924345,-0.001418213825672865
1761412877876528400,5.7185283203125,0.00006679692887701094,-0.00007525691762566566,-0.0015278668142855167
1761412877886541300,5.728541259765625,0.0006963682826608419,0.0005532493814826012,-0.000096950214356184
1761412877896553500,5.738553466796875,0.00012900232104584575,-0.002383023966103792,0.0024194261059165
1761412877906566400,5.74856640625,-0.0006875228136777878,-0.0011792751029133797,-0.0013998134527355433
1761412877916579600,5.75857958984375,-0.00015153680578805506,-0.0011649439111351967,-0.0018053404055535793
1761412877926592300,5.76859228515625,0.0020748658571392298,0.004891084507107735,-0.0012945460621267557
1761412877936605400,5.77860546875,0.001295085297897458,0.0026868064887821674,-0.0017466560238972306
1761412877946618400,5.788618408203125,0.00119388522580266,-0.007425216026604176,0.0009817525278776884
1761412877956631300,5.79863134765625,0.001303509809076786,-0.006917766761034727,-0.0022463153582066298
1761412877966644500,5.80864453125,0.001279274933040142,0.002800373826175928,-0.0016708063194528222
1761412877976657400,5.818657470703125,0.00040508812526240945,0.012986157089471817,0.002490069717168808
1761412877986670600,5.828670654296875,0.00031001324532553554,0.0033700154162943363,-0.0007890803972259164
1761412877996683300,5.838683349609375,-0.00018347048899158835,-0.010830758139491081,-0.0007113160099834204
1761412878006696400,5.848696533203125,-0.0016394206322729588,-0.008874134160578251,-0.0016096002655103803
1761412878016709400,5.85870947265625,-0.001739302882924676,0.008544951677322388,-0.0009661306394264102
1761412878026721500,5.868721435546875,0.00033316912595182657,0.0052695306949317455,-0.0006308386800810695
1761412878036734500,5.878734375,0.00007016374729573727,-0.006566839758306742,-0.0023052406031638384
1761412878046747400,5.888747314453125,0.0006488686194643378,-0.0036086002364754677,-0.0033907447941601276
1761412878056760300,5.89876025390625,0.0008652190444990993,0.0010631941258907318,-0.0012276162160560489
1761412878066773500,5.9087734375,0.000233783561270684,0.0031055728904902935,0.001825165469199419
1761412878076786400,5.918786376953125,0.00030399730894714594,0.005721437744796276,-0.0006028339266777039
1761412878086799400,5.92879931640625,0.0018741970416158438,0.00175892049446702,-0.0038489610888063908
1761412878096812500,5.9388125,0.0005788154085166752,-0.006159702315926552,-0.003998714964836836
1761412878106825500,5.948825439453125,0.00007041799835860729,-0.00042751478031277657,-0.0009651081636548042
1761412878116838400,5.95883837890625,0.0006259728106670082,0.00567634217441082,-0.0013601139653474092
1761412878126851300,5.968851318359375,0.0007511414005421102,0.003897883929312229,0.0011901289690285921
1761412878136864500,5.978864501953125,0.001937188906595111,-0.0023924338165670633,0.0010679855477064848
1761412878146876400,5.98887646484375,0.0010013540741056204,-0.003680871333926916,0.001294620567932725
1761412878156889300,5.998889404296875,-0.0005015672650188208,-0.0013246734160929918,0.00030377996154129505
1761412878166902300,6.00890234375,0.0021735779009759426,0.00523655628785491,0.0033485719468444586
1761412878176915500,6.01891552734375,0.0001013310975395143,-0.000010828021913766861,0.0012363218702375889
1761412878186928400,6.028928466796875,0.0020683419425040483,-0.002052141120657325,-0.0001517178025096655
1761412878196941300,6.03894140625,-0.0007381510804407299,-0.0032584173604846,-0.0005263809580355883
1761412878206954500,6.04895458984375,0.0012909113429486752,-0.0012061852030456066,-0.000585236819460988
1761412878216967400,6.058967529296875,-0.00005962204886600375,0.003255607560276985,-0.0012233512243255973
1761412878226980400,6.06898046875,0.00007486756658181548,-0.0011596472468227148,-0.0006622230866923928
1761412878236993300,6.0789931640625,-0.0005028078448958695,-0.0012882375158369541,0.002524129580706358
1761412878247006500,6.08900634765625,-0.0005464836722239852,-0.0000448077917098999,0.0003339459653943777
1761412878257019400,6.099019287109375,-0.0018390787299722433,0.0025451164692640305,0.0032551775220781565
1761412878267032300,6.1090322265625,-0.001673962688073516,0.001892908476293087,0.0024442451540380716
1761412878277044200,6.119044189453125,0.00004724418977275491,-0.0009263637475669384,0.0016551301814615726
1761412878287057400,6.129057373046875,-0.0018044516909867525,-0.003224937943741679,-0.000703098950907588
1761412878297070600,6.139070556640625,0.00038759212475270033,-0.0024113033432513475,-0.0016717312391847372
1761412878307083300,6.149083251953125,0.0012888058554381132,-0.0011026258580386639,0.00233659241348505
1761412878317096400,6.159096435546875,0.002950317459180951,0.0012731016613543034,-0.00013490626588463783
1761412878327109400,6.169109375,0.0010794466361403465,0.0012776288203895092,0.00000757281668484211
1761412878337122600,6.17912255859375,0.0003499216982163489,0.0006715329363942146,-0.00013863085769116879
1761412878347135200,6.18913525390625,0.0016010748222470284,-0.0005615106783807278,-0.0010393119882792234
1761412878357148400,6.1991484375,-0.003888209816068411,-0.001570030814036727,-0.002666276879608631
1761412878367161600,6.20916162109375,-0.0004090560832992196,-0.000053626950830221176,-0.002573598874732852
1761412878377174300,6.21917431640625,0.0015370380133390427,-0.0007437700405716896,0.0020968166645616293
1761412878387187500,6.2291875,0.001453947275876999,-0.002744070254266262,-0.0010060325730592012
1761412878397199400,6.239199462890625,0.001968254568055272,-0.0013181348331272602,-0.0005345548270270228
1761412878407212500,6.249212646484375,0.0014662487665191293,0.0027953837998211384,0.00076533411629498
1761412878417225500,6.2592255859375,0.0009764395654201508,0.005879867821931839,0.0051237354055047035
1761412878427238400,6.26923828125,-0.000804948853328824,0.00019614910706877708,0.002780153648927808
1761412878437251300,6.279251220703125,-0.0012593994615599513,0.00023348210379481316,0.0035100539680570364
1761412878447264500,6.289264404296875,-0.00002262747148051858,-0.0025007855147123337,0.0003307722508907318
1761412878457277200,6.299277099609375,0.0019845515489578247,-0.0005309833213686943,0.0034314151853322983
1761412878467290400,6.309290283203125,-0.002081296406686306,0.0037681576795876026,0.002273739315569401
1761412878477303600,6.319303466796875,-0.0006684642867185175,0.004862263333052397,0.005916014313697815
1761412878487316500,6.32931640625,-0.0005880368407815695,-0.0003346293233335018,0.0041532679460942745
1761412878497329400,6.339329345703125,0.0018298419890925288,-0.0017796605825424194,-0.0011373813031241298
1761412878507342300,6.34934228515625,0.0015605963999405503,-0.0008438257500529289,-0.0009919727453961968
1761412878517354500,6.3593544921875,0.0010726111941039562,-0.0005383412353694439,0.0009993084240704775
1761412878527367400,6.369367431640625,0.0013586345594376326,0.003286757506430149,0.0006150142289698124
1761412878537380400,6.37938037109375,-0.001863544574007392,0.001043202355504036,0.0045777782797813416
1761412878547393300,6.389393310546875,0.0017644797917455435,0.0016799638979136944,0.003165237372741103
1761412878557406500,6.399406494140625,-0.0004273771191947162,-0.0008278265595436096,0.0005366008263081312
1761412878567419600,6.409419677734375,0.001911410829052329,0.0022627715952694416,0.000327809015288949
1761412878577432300,6.419432373046875,0.0020623402670025826,0.0011503598652780056,0.000020458828657865524
1761412878587445500,6.429445556640625,0.0015411596978083253,0.0019535692408680916,0.0029816273599863052
1761412878597458400,6.43945849609375,-0.002384624909609556,0.00013640476390719414,0.001860236283391714
1761412878607471400,6.449471435546875,-0.0019870148971676826,-0.0028583197854459286,0.0020629027858376503
1761412878617484300,6.459484375,0.0012660766951739788,-0.0009065382182598114,0.002850883174687624
1761412878627497500,6.46949755859375,-0.0003499294398352504,0.00272548059001565,0.000860702944919467
1761412878637510400,6.479510498046875,-0.0007421132177114487,-0.000976951327174902,0.0007739861030131578
1761412878647522600,6.4895224609375,-0.0013927235268056393,-0.0008832081221044064,0.003565511666238308
1761412878657535200,6.49953515625,-0.00044775957940146327,-0.00007526995614171028,0.0021341326646506786
1761412878667548400,6.50954833984375,-0.0008443042170256376,-0.0009410637430846691,-0.0015783137641847134
1761412878677561000,6.51956103515625,-0.0016372581012547016,0.001322888769209385,0.0011518227402120829
1761412878687574300,6.52957421875,0.0008237690199166536,-0.0001791338436305523,-0.0030029749032109976
1761412878697587000,6.5395869140625,0.00006606429815292358,-0.004123710561543703,-0.0022355569526553154
1761412878707600100,6.54960009765625,-0.0004109078727196902,-0.00006079208105802536,-0.001479485654272139
1761412878717613000,6.559613037109375,0.0016846759244799614,-0.001796824624761939,-0.0024050255306065083
1761412878727626000,6.5696259765625,0.0002790595171973109,0.002549454104155302,-0.001553346635773778
1761412878737639000,6.579638916015625,0.000977042131125927,-0.0009945281781256199,0.00038634822703897953
1761412878747652000,6.589652099609375,-0.0017207401106134057,0.0010422575287520885,-0.003900009673088789
1761412878757665000,6.5996650390625,0.001188410446047783,0.0025390801019966602,0.0009611104615032673
1761412878767677200,6.60967724609375,0.00020091026090085506,-0.00014565279707312584,0.0034072238486260176
1761412878777689900,6.61968994140625,0.002241757931187749,-0.0012251031585037708,0.0008373651653528214
1761412878787703000,6.629703125,-0.001774288946762681,0.0008103507570922375,0.0020368527621030807
1761412878797716200,6.63971630859375,-0.0005290222470648587,0.0008727689273655415,0.002302181674167514
1761412878807729000,6.64972900390625,0.00033091247314587235,-0.0007861140184104443,0.0006875069811940193
1761412878817742000,6.6597421875,0.0008785120444372296,0.0009136348962783813,0.000029510119929909706
1761412878827755000,6.669755126953125,0.0013538863277062774,0.0015996652655303478,0.0016282058786600828
1761412878837768200,6.679768310546875,-0.0007576729403808713,0.0006940769962966442,0.001279475400224328
1761412878847780900,6.68978076171875,0.0017707322258502245,0.0016999528743326664,-0.0010880748741328716
1761412878857794000,6.6997939453125,0.00036276085302233696,0.0006778966635465622,0.0024817013181746006
1761412878867807200,6.70980712890625,-0.0018676365725696087,0.0010888222604990005,-0.001047785859555006
1761412878877820000,6.71981982421875,-0.00029087456641718745,-0.0005114423111081123,0.00037160678766667843
1761412878887833000,6.7298330078125,-0.000244801864027977,-0.0011245021596550941,0.0010664253495633602
1761412878897845000,6.739844970703125,-0.000541596848051995,0.00010350439697504044,0.0022589140571653843
1761412878907858200,6.749858154296875,-0.002771195489913225,0.003409020137041807,0.0035385629162192345
1761412878917871000,6.75987109375,0.0013386592036113143,-0.0001434176228940487,0.005723204463720322
1761412878927884000,6.769884033203125,0.0012851295759901404,0.0009253085590898991,0.002878948114812374
1761412878937897000,6.77989697265625,0.0016400136519223452,0.002387001644819975,0.003096868982538581
1761412878947910100,6.78991015625,0.0010067138355225325,-0.00008361320942640305,-0.0003487288486212492
1761412878957922800,6.7999228515625,0.0007357044378295541,-0.0017130922060459852,0.0009884682949632406
1761412878967936000,6.80993603515625,0.00019694695947691798,0.003777014557272196,0.0009847399778664112
1761412878977949200,6.81994921875,-0.0008419093210250139,-0.00028034625574946404,0.00015847920440137386
1761412878987962000,6.829962158203125,0.0018223170191049576,0.002088269218802452,0.00014329911209642887
1761412878997975000,6.83997509765625,-0.0009948376100510359,0.0020136800594627857,0.004143846686929464
1761412879007988000,6.849988037109375,0.0007782949833199382,-0.0011930319014936686,-0.0016951339785009623
1761412879018000100,6.860000244140625,-0.0006886852206662297,0.0008122948929667473,-0.0016942673828452826
1761412879028013000,6.870012939453125,-0.000754731590859592,0.00021627917885780334,-0.0014007871504873037
1761412879038026000,6.88002587890625,-0.000668454566039145,-0.00036522699519991875,0.002859936561435461
1761412879048039000,6.890038818359375,-0.000368050008546561,0.0006499700248241425,0.004813897889107466
1761412879058052000,6.900052001953125,-0.0003894007531926036,0.00015843519940972328,0.00013414095155894756
1761412879068065000,6.91006494140625,-0.0018506771884858608,0.0005882694385945797,-0.00002564862370491028
1761412879078078000,6.920077880859375,-0.002370729809626937,0.0007472322322428226,-0.00038994383066892624
1761412879088091100,6.930091064453125,0.00040534918662160635,0.0015752092003822327,0.003532626200467348
1761412879098104000,6.94010400390625,-0.0012305495329201221,0.000047495122998952866,0.0016436974983662367
1761412879108117000,6.950116943359375,-0.001822037622332573,-0.0015983383636921644,0.0035222910810261965
1761412879118130000,6.9601298828125,-0.000339045946020633,-0.00010990770533680916,0.0032991417683660984
1761412879128143000,6.97014306640625,-0.0006386515451595187,0.000926328357309103,-0.0006263578543439507
1761412879138156000,6.980156005859375,0.0020685973577201366,-0.0015016086399555206,0.0022812089882791042
1761412879148168200,6.990168212890625,-0.0002699244359973818,-0.0014842981472611427,0.0019840002059936523
1761412879158180900,7.000180908203125,0.001482380903325975,-0.0005990942008793354,-0.00039752002339810133
1761412879168194000,7.010194091796875,0.000461857533082366,-0.0013730088248848915,0.0009044993203133345
1761412879178207000,7.02020703125,0.0005469317547976971,-0.0011653765104711056,0.0021922101732343435
1761412879188220000,7.030219970703125,0.0006164403166621923,-0.0004388662055134773,-0.00045017816592007875
1761412879198233000,7.040233154296875,-0.0006325306603685021,0.002292355988174677,-0.00034905062057077885
1761412879208246000,7.05024609375,0.002940898993983865,0.0009429319761693478,0.002515179105103016
1761412879218259200,7.06025927734375,0.0000838347477838397,0.00020817620679736137,-0.000430881860665977
1761412879228271900,7.07027197265625,0.0013861204497516155,0.0006971322000026703,0.0005132087972015142
1761412879238285000,7.08028515625,0.00044686440378427505,0.0015521179884672165,0.0006094707641750574
1761412879248298000,7.090298095703125,0.0024032224901020527,0.00023385370150208473,-0.00030852085910737514
1761412879258311000,7.100310791015625,0.0015118508599698544,0.0009900741279125214,0.00004507252015173435
1761412879268323000,7.110322998046875,-0.0007268023327924311,-0.00024936115369200706,-0.00023669004440307617
1761412879278336000,7.1203359375,-0.001787335379049182,0.0017631514929234982,-0.0028912301640957594
1761412879288349200,7.13034912109375,-0.0005982339498586953,-0.000023030675947666168,0.00021135248243808746
1761412879298362000,7.140362060546875,0.00046400842256844044,0.0013521802611649036,0.003937504254281521
1761412879308375000,7.150375,0.000578257953748107,0.0008270051330327988,0.00044183898717164993
1761412879318388000,7.160387939453125,0.0015744520351290703,-0.0031683817505836487,-0.0030048657208681107
1761412879328401200,7.170401123046875,-0.0006732559413649142,0.001676440704613924,0.004396591801196337
1761412879338414000,7.1804140625,-0.0006111016846261919,-0.0012248565908521414,0.0016490861307829618
1761412879348427000,7.190427001953125,0.0006443124148063362,-0.000902081374078989,-0.0014518988318741322
1761412879358440000,7.20043994140625,0.0012780055403709412,-0.0013631070032715797,0.002076199045404792
1761412879368453000,7.210453125,-0.0006290841847658157,0.00048379506915807724,-0.0020807289984077215
1761412879378466000,7.220466064453125,0.0005510291666723788,-0.002825276693329215,0.0013700451236218214
1761412879388478000,7.23047802734375,-0.001626105047762394,-0.0019727987237274647,0.00160893052816391
1761412879398491100,7.2404912109375,0.00171788246370852,-0.00008895574137568474,0.0029828918632119894
1761412879408504000,7.250504150390625,0.00012158375466242433,-0.0019683483988046646,0.0022119067143648863
1761412879418517000,7.26051708984375,-0.0022694338113069534,0.0008279187604784966,-0.0008813530439510942
1761412879428530000,7.270530029296875,-0.0006923096370883286,0.0011842497624456882,0.0011293336283415556
1761412879438543000,7.280543212890625,-0.0008497789385728538,0.00278234900906682,-0.0021465409081429243
1761412879448556000,7.29055615234375,0.0010498538613319397,-0.0023405076935887337,0.001358977984637022
1761412879458569000,7.30056884765625,-0.0003280190867371857,0.001013223547488451,-0.0019371066009625793
1761412879468582100,7.31058203125,-0.00021989474771544337,0.0005343868397176266,-0.001522718695923686
1761412879478595000,7.320594970703125,0.00036353315226733685,0.0009228354319930077,0.0007447623647749424
1761412879488608000,7.33060791015625,0.0009747285512275994,0.0014514732174575329,-0.002839319873601198
1761412879498621000,7.340620849609375,-0.0009498436702415347,0.0010943994857370853,-0.001724187284708023
1761412879508634000,7.350634033203125,-0.0012931250967085361,-0.0010374612174928188,-0.0014613333623856306
1761412879518646000,7.36064599609375,-0.0007124936673790216,0.002028407994657755,-0.0015488332137465477
1761412879528659200,7.3706591796875,-0.001043790951371193,0.0021511795930564404,-0.000002601882442831993
1761412879538671900,7.380671875,-0.0020816284231841564,0.0005225935019552708,0.0013945584651082754
1761412879548685000,7.39068505859375,-0.0019508670084178448,0.0009851842187345028,-0.0019261370180174708
1761412879558698000,7.400697998046875,0.0010211854241788387,0.0003714943304657936,-0.0006484735058620572
1761412879568711200,7.410711181640625,0.0007844304200261831,0.001573911402374506,0.0007171954493969679
1761412879578724000,7.42072412109375,-0.0018114602426066995,-0.0016815592534840107,0.0020375074818730354
1761412879588737000,7.430737060546875,0.00021334108896553516,0.0001714681275188923,0.0015104676131159067
1761412879598750200,7.440750244140625,-0.00002532266080379486,-0.0006623882800340652,0.00036867568269371986
1761412879608763000,7.450762939453125,-0.0017201583832502365,0.0010729278437793255,0.0021311556920409203
1761412879618776000,7.460776123046875,-0.001392895937897265,-0.00016310438513755798,-0.0013224071590229869
1761412879628789000,7.4707890625,-0.0003361536655575037,0.0005120066925883293,0.00038041803054511547
1761412879638801200,7.48080126953125,0.0004951048758812249,-0.0008987556211650372,0.002116486197337508
1761412879648814000,7.49081396484375,0.0011363939847797155,-0.00046785641461610794,0.002497052075341344
1761412879658827000,7.500826904296875,-0.001219901372678578,0.0007310756482183933,0.00022975774481892586
1761412879668840000,7.51083984375,0.0018406033050268888,0.0013654404319822788,-0.0002568017225712538
1761412879678853000,7.52085302734375,0.000015930156223475933,0.00033014360815286636,-0.005053641274571419
1761412879688866000,7.530865966796875,0.0013038348406553268,0.0005527837201952934,-0.0012280105147510767
1761412879698879000,7.54087890625,0.0015587301459163427,0.0013294992968440056,0.0008836118504405022
1761412879708892200,7.55089208984375,0.0018077357672154903,-0.0020726891234517097,0.0007003864739090204
1761412879718905000,7.560905029296875,-0.0005848834989592433,-0.000039730221033096313,-0.0017128254985436797
1761412879728918000,7.57091796875,-0.001042414573021233,0.00035894522443413734,0.0001780188176780939
1761412879738931200,7.58093115234375,-0.0017176414839923382,0.002447978127747774,-0.0023685679771006107
1761412879748944100,7.590944091796875,-0.0016502634389325976,-0.0012077430728822947,-0.00020980951376259327
1761412879758956300,7.600956298828125,0.0006217547925189137,0.0012073679827153683,0.00016472791321575642
1761412879768969000,7.610968994140625,-0.0030062696896493435,-0.001116772647947073,-0.00029067276045680046
1761412879778982100,7.620982177734375,0.0008863575058057904,-0.0010120603255927563,0.003555391915142536
1761412879788995000,7.6309951171875,0.00016703765140846372,0.0024817404337227345,-0.0023895823396742344
1761412879799008300,7.64100830078125,-0.0019856663420796394,-0.0023065535351634026,0.002220106078311801
1761412879809021000,7.65102099609375,0.0003219628124497831,-0.001498816767707467,0.001253378577530384
1761412879819034000,7.6610341796875,-0.0015567063819617033,-0.0003285156562924385,0.003583015175536275
1761412879829047000,7.671047119140625,-0.0014531094348058105,0.00113648921251297,0.004673313349485397
1761412879839060000,7.68106005859375,-0.0012550457613542676,0.0024306275881826878,0.0029043443500995636
1761412879849073200,7.6910732421875,-0.002025764435529709,0.00038292305544018745,-0.0013370058732107282
1761412879859086000,7.701086181640625,-0.00028146954718977213,-0.0008148578926920891,-0.00004813307896256447
1761412879869099300,7.711099365234375,0.0009497097926214337,-0.001403682865202427,0.003040334675461054
1761412879879111200,7.721111083984375,0.0038597013335675,-0.003266317769885063,0.0009890729561448097
1761412879889124000,7.7311240234375,0.00002182001480832696,-0.0021017175167798996,-0.0003038917202502489
1761412879899137000,7.741136962890625,0.000975613365881145,-0.0007222490385174751,0.0031361859291791916
1761412879909150200,7.751150146484375,0.0008728153770789504,-0.00012756511569023132,0.00104347406886518
1761412879919163000,7.761162841796875,-0.0013850880786776543,0.0019961479119956493,-0.0014221775345504284
1761412879929176000,7.771176025390625,-0.0007230261689983308,0.0005338061600923538,0.0008910440374165773
1761412879939189200,7.781189208984375,0.00010104029206559062,-0.001622210955247283,0.000670337351039052
1761412879949202200,7.7912021484375,0.0010834804270416498,-0.00034149689599871635,0.0015838013496249914
1761412879959215000,7.801215087890625,-0.0015084233600646257,-0.00015848828479647636,-0.0008061908883973956
1761412879969228000,7.81122802734375,-0.00027777664945460856,-0.0005244063213467598,-0.0005017915973439813
1761412879979241200,7.8212412109375,0.0008225170313380659,-0.0005048373714089394,0.00004704063758254051
1761412879989254000,7.83125390625,0.0007703190785832703,0.0006568334065377712,0.0016665086150169373
1761412879999267000,7.84126708984375,0.00009673484601080418,-0.00010955426841974258,-0.0009209952550008893
1761412880009279000,7.851279052734375,-0.0009208590490743518,-0.0005535031668841839,0.0004598537925630808
1761412880019292200,7.861292236328125,-0.0026080384850502014,0.0009735804051160812,-0.0036122454330325127
1761412880029305000,7.87130517578125,-0.0018314607441425323,-0.001136974897235632,0.00023735384456813335
1761412880039318000,7.881318115234375,-0.0004228833713568747,-0.00047024479135870934,-0.00046358630061149597
1761412880049331200,7.891331298828125,-0.0005105013842694461,-0.001070254947990179,0.0007612013723701239
1761412880059344100,7.90134423828125,0.0018031774088740349,-0.0007218052633106709,0.0002122269943356514
1761412880069357000,7.911357177734375,0.00042073067743331194,0.00033813295885920525,0.0032791232224553823
1761412880079370000,7.921369873046875,0.0005952385836280882,0.0016874875873327255,-0.0008413421455770731
1761412880089383200,7.931383056640625,-0.0018551358953118324,0.0007963939569890499,-0.0012296310160309076
1761412880099396000,7.94139599609375,-0.0003100009053014219,0.0011115730740129948,-0.0018413616344332695
1761412880109409000,7.951408935546875,0.0007741720182821155,0.001351257786154747,-0.0019814439583569765
1761412880119422000,7.961421875,-0.000059783487813547254,-0.0005216542631387711,-0.0004479209892451763
1761412880129434000,7.97143408203125,-0.0012954901903867722,0.00014014123007655144,-0.0009222300723195076
1761412880139447000,7.981447021484375,-0.0009234867757186294,-0.0009787115268409252,0.0026387074030935764
1761412880149460000,7.9914599609375,0.00014284288045018911,0.002712696325033903,-0.0004510920261964202
1761412880159473200,8.00147314453125,-0.0001686624891590327,-0.000255851075053215,-0.0017098989337682724
1761412880169486000,8.011486083984375,-0.0010568266734480858,0.0012842551805078983,0.0012930813245475292
1761412880179499300,8.021499267578125,0.0013105282559990883,-0.000074025709182024,0.00197243201546371
1761412880189512000,8.031511962890624,-0.0004269180935807526,-0.00038827862590551376,-0.0008558450499549508
1761412880199525000,8.041525146484375,-0.0005859400844201446,-0.00023635150864720345,0.0006248692516237497
1761412880209538000,8.0515380859375,-0.0009571847040206194,-0.0004898845218122005,0.0008437810465693474
1761412880219551000,8.061551025390624,-0.0026541196275502443,0.001023729331791401,-0.0008960588602349162
1761412880229564200,8.071564208984375,-0.0020778116304427385,0.0015166806988418102,0.0017681673634797335
1761412880239577000,8.0815771484375,-0.0021010483615100384,-0.00011229701340198517,-0.0019516563042998314
1761412880249590300,8.09159033203125,0.0013333642855286598,-0.0007730270735919476,-0.000938856159336865
1761412880259602200,8.101602294921875,0.0017474859487265348,-0.0002702223137021065,0.0012148423120379448
1761412880269615000,8.111614990234376,0.0005136433755978942,0.0019394024275243282,-0.00038625020533800125
1761412880279628000,8.1216279296875,0.0014086717274039984,0.0002029077149927616,-0.0036386209540069103
1761412880289641200,8.13164111328125,-0.0008528845501132309,0.0007387357763946056,0.0011492099147289991
1761412880299654000,8.14165380859375,-0.0003976630396209657,0.000049384310841560364,0.0008245562203228474
1761412880309667000,8.1516669921875,0.0019568377174437046,-0.00041933218017220497,-0.0006569601828232408
1761412880319680000,8.161679931640625,-0.000003837456461042166,0.0015549738891422749,0.002480220515280962
1761412880329693200,8.171693115234374,0.0013519779313355684,0.0010582939721643925,-0.00010464340448379517
1761412880339706000,8.1817060546875,0.0020336902234703302,0.002191960345953703,-0.002209507627412677
1761412880349719000,8.191718994140626,0.001101050991564989,-0.000247761607170105,-0.0014403867535293102
1761412880359732200,8.201732177734375,0.001016150927171111,-0.003230471396818757,-0.002911063376814127
1761412880369745000,8.211744873046875,-0.00019265786977484822,-0.001201142556965351,0.0007041776552796364
1761412880379757000,8.221757080078126,0.0011069360189139843,-0.003140028566122055,0.0018238115590065718
1761412880389770000,8.23177001953125,-0.0009929665829986334,0.0009495215490460396,-0.0017056758515536785
1761412880399783200,8.241783203125,-0.0005369702121242881,-0.0023733375128358603,0.0019702878780663013
1761412880409796000,8.251796142578126,-0.0015218071639537811,-0.002844983246177435,-0.0011546652531251311
1761412880419809000,8.26180908203125,-0.0015137710142880678,-0.00059176841750741,0.0025709650944918394
1761412880429822000,8.271822021484375,0.000767492747399956,-0.0006351778283715248,-0.0003675667103379965
1761412880439835100,8.281835205078124,-0.0004975724150426686,0.0014948854222893715,0.0021182780619710684
1761412880449848000,8.29184814453125,-0.0016600422095507383,-0.00004122592508792877,-0.00009267847053706646
1761412880459861000,8.301861083984376,0.0005185422487556934,0.001364732626825571,-0.00048748927656561136
1761412880469874200,8.311874267578125,-0.0006364707369357347,0.000846747774630785,0.003571967128664255
1761412880479887000,8.32188720703125,-0.0007490707794204354,-0.0012843501754105091,-0.0011749780969694257
1761412880489900000,8.331900146484376,0.0010011587291955948,0.00020701996982097626,0.002849590964615345
1761412880499912000,8.341911865234374,0.0018232581205666065,0.002506272867321968,-0.0005867201834917068
1761412880509925000,8.351925048828125,-0.00031739065889269114,-0.0009936532005667686,0.0002782745286822319
1761412880519938000,8.36193798828125,0.0014494351344183087,-0.0013621412217617035,0.00011605815961956978
1761412880529951000,8.371950927734375,-0.000930099340621382,0.000385957770049572,0.001125662587583065
1761412880539964000,8.3819638671875,-0.0002991814981214702,0.0014824839308857918,-0.001356259104795754
1761412880549977000,8.39197705078125,0.0007064280798658729,0.003180248662829399,0.0006272632163017988
1761412880559990300,8.401990234375,-0.00016350607620552182,0.00030437717214226723,-0.0023999467957764864
1761412880570003000,8.4120029296875,0.00006153105641715229,0.00022607995197176933,0.0011226164642721415
1761412880580016000,8.42201611328125,0.0006160688935779035,0.0028754589147865772,0.0011615371331572533
1761412880590029000,8.432029052734375,0.0015524362679570913,-0.0003536236472427845,-0.0003825635649263859
1761412880600042000,8.4420419921875,-0.0007986808195710182,0.00024079997092485428,-0.0031361915171146393
1761412880610055000,8.452054931640625,0.0010596730280667543,-0.0007818536832928658,0.0012465727049857378
1761412880620067000,8.462067138671875,-0.00005612187669612467,-0.0005115224048495293,-0.0017312084091827273
1761412880630080000,8.472080078125,-0.00039381071110256016,-0.00005479017272591591,-0.00015834555961191654
1761412880640093200,8.48209326171875,0.0006188947008922696,0.002259832341223955,0.002367584966123104
1761412880650106000,8.492106201171875,-0.00040509068639948964,-0.0003964044153690338,-0.000033787451684474945
1761412880660119000,8.502119140625,0.0011209554504603148,0.001729272771626711,-0.0012007630430161953
1761412880670132200,8.51213232421875,0.00013798271538689733,0.0011180774308741093,0.0012978147715330124
1761412880680145200,8.522145263671876,-0.0008402233943343163,0.0009252000600099564,-0.0019347632769495249
1761412880690158000,8.532157958984374,-0.0029811386484652758,-0.0012133182026445866,0.001138524617999792
1761412880700171000,8.5421708984375,-0.0006311334436759353,-0.0001920098438858986,-0.0008038812084123492
1761412880710184200,8.55218408203125,0.000636797514744103,-0.0007643229328095913,0.004032152704894543
1761412880720196900,8.56219677734375,-0.0004373324627522379,-0.000597961712628603,-0.0001928047277033329
1761412880730210000,8.5722099609375,-0.0023659938015043736,0.001616457011550665,-0.0012828364269807935
1761412880740223200,8.58222314453125,0.0011102535063400865,0.0005442257970571518,-0.0000032191164791584015
1761412880750235100,8.592235107421875,0.0016348962672054768,-0.0009237085469067097,0.0007589776068925858
1761412880760248000,8.602248046875,0.0008036172948777676,-0.000017896294593811035,-0.0017987359315156937
1761412880770261000,8.612260986328126,-0.00018414913211017847,-0.0006490652449429035,0.002885764464735985
1761412880780274200,8.622274169921875,0.00019637076184153557,0.0005705761723220348,-0.0003829663619399071
1761412880790287000,8.632287109375,-0.0009312116308137774,-0.0013769932556897402,0.0013169292360544205
1761412880800300000,8.642300048828124,0.0004391529073473066,-0.002525568474084139,-0.003942474722862244
1761412880810313000,8.65231298828125,-0.0012863092124462128,0.0010420018807053566,-0.0014239231823012233
1761412880820326100,8.662326171875,-0.0014401705702766776,0.0010939291678369045,-0.0011868380242958665
1761412880830339000,8.672339111328125,-0.0003069955564569682,0.04055611416697502,0.0437161885201931
1761412880840352000,8.68235205078125,0.00495842844247818,0.08048941195011139,0.09645125269889832
1761412880850365200,8.692365234375,-0.0012661778600886464,0.0524391308426857,0.051216933876276016
1761412880860378000,8.702378173828125,0.000011638214346021414,-0.017721205949783325,-0.03699185326695442
1761412880870390300,8.712390380859375,-0.0011279283789917827,-0.1053871437907219,-0.10103954374790192
1761412880880403000,8.72240283203125,-0.0003285782295279205,-0.10273273289203644,-0.09867873042821884
1761412880890416000,8.732416015625,0.004588682670146227,-0.0019422061741352081,-0.024465486407279968
