time,seconds_elapsed,z,y,x
1761412708414354000,0.06635400390625,0.0019291496137157083,-0.0068552554585039616,-0.003400301793590188
1761412708424366600,0.07636669921875,0.0006074960110709071,-0.00029333168640732765,0.0031268433667719364
1761412708434380800,0.086380859375,0.0018072501989081502,0.0042755878530442715,0.0036730575375258923
1761412708444393700,0.096393798828125,0.00017018296057358384,-0.00022140098735690117,-0.0009253716561943293
1761412708454407700,0.10640771484375,0.0006066750502213836,-0.0036145346239209175,-0.004816782660782337
1761412708464420900,0.1164208984375,-0.0011488128220662475,-0.006249131169170141,0.0009832929354161024
1761412708474434800,0.126434814453125,0.00026532571064308286,-0.0034469531383365393,0.001897556008771062
1761412708484447700,0.13644775390625,-0.0006384157459251583,0.006608747877180576,0.0032032590825110674
1761412708494461000,0.1464609375,0.0002979516866616905,0.001982038374990225,-0.0005909465253353119
1761412708504475400,0.156475341796875,0.0009712390601634979,-0.0018007154576480389,-0.0013283758889883757
1761412708514488300,0.16648828125,0.0008439399534836411,-0.002728827064856887,0.001701502362266183
1761412708524502300,0.176502197265625,0.0018159904284402728,0.0016828710213303566,0.0030170755926519632
1761412708534515200,0.18651513671875,0.00038507406134158373,0.00156808877363801,0.0008029232267290354
1761412708544528100,0.196528076171875,-0.002379088895395398,0.0015773414634168148,-0.000150731997564435
1761412708554542300,0.206542236328125,-0.0009444439201615751,-0.0017063363920897245,-0.0010700550628826022
1761412708564555300,0.21655517578125,-0.0011028323788195848,-0.004652609117329121,0.0007689823396503925
1761412708574569200,0.2265693359375,0.0011981388088315725,-0.0006304369308054447,-0.00090454809833318
1761412708584582400,0.23658251953125,0.0019107949919998646,0.0010201823897659779,0.0007701388094574213
1761412708594596000,0.24659619140625,0.0006822789437137544,0.002262546680867672,0.0009235369507223368
1761412708604609300,0.256609375,-0.00037628260906785727,-0.0016265532467514277,-0.00038952077738940716
1761412708614622500,0.26662255859375,-0.000021549523808062077,-0.002073964336887002,-0.00273097213357687
1761412708624636200,0.27663623046875,0.00039820856181904674,0.0006338446401059628,0.00184164778329432
1761412708634649300,0.2866494140625,-0.000016179343219846487,0.002134003210812807,0.0008895678911358118
1761412708644663300,0.296663330078125,0.00005504355067387223,0.0013812892138957977,-0.0021043529268354177
1761412708654676200,0.30667626953125,-0.002547929994761944,0.0017051296308636665,0.0019748108461499214
1761412708664689400,0.316689453125,-0.0005090443883091211,-0.0013563286047428846,0.0012545953504741192
1761412708674703400,0.326703369140625,-0.0010754987597465515,0.0007033604197204113,-0.0005837846547365189
1761412708684716300,0.33671630859375,0.0006475938716903329,0.0024604196660220623,-0.002480515744537115
1761412708694730200,0.346730224609375,-0.0008160794386640191,-0.0013774617109447718,0.0020447277929633856
1761412708704743200,0.3567431640625,-0.0006813615909777582,0.0006734644994139671,-0.00007296749390661716
1761412708714757000,0.366757080078125,0.0017274676356464624,-0.004201984498649836,-0.0003629857674241066
1761412708724770300,0.376770263671875,-0.0020598534028977156,0.0009416700340807438,-0.00034535815939307213
1761412708734783200,0.386783203125,0.0017508638557046652,0.0003400617279112339,0.0016794430557638407
1761412708744797200,0.396797119140625,-0.0005765159148722887,0.0011305054649710655,-0.0004908910486847162
1761412708754810400,0.406810302734375,0.0004139136872254312,-0.0006868354976177216,-0.0006224510725587606
1761412708764824000,0.416823974609375,0.00018349691526964307,-0.001755089731886983,-0.00155915308278054
1761412708774837200,0.426837158203125,0.0009358398383483291,-0.0021969082299619913,-0.0015461035072803497
1761412708784851200,0.436851318359375,0.00017863739049062133,-0.0004938761703670025,0.0010509437415748835
1761412708794864000,0.446864013671875,0.0016076897736638784,0.0026768832467496395,0.0004099209327250719
1761412708804877300,0.456877197265625,0.0004988129949197173,0.0023573637008666992,0.00076125911436975
1761412708814891300,0.466891357421875,0.0005115960957482457,0.000003129243850708008,-0.0019381209276616573
1761412708824904200,0.476904296875,0.0013350299559533596,-0.00042271846905350685,0.0007704051677137613
1761412708834918100,0.486918212890625,-0.001299635274335742,-0.00038809748366475105,0.0034218484070152044
1761412708844931000,0.49693115234375,-0.0006961027393117547,0.0029590409249067307,0.0005039751995354891
1761412708854944300,0.5069443359375,0.00023307412629947066,-0.0009920252487063408,0.0002251423429697752
1761412708864958200,0.516958251953125,0.000006955757271498442,-0.0022517950274050236,-0.0006372175412252545
1761412708874971100,0.52697119140625,-0.0004154215566813946,-0.0034592722076922655,0.0014560269191861153
1761412708884985000,0.536985107421875,-0.0007268342887982726,0.0005152467638254166,-0.0007622441044077277
1761412708894998300,0.546998291015625,-0.0001449336123187095,0.00018394971266388893,0.002123024547472596
1761412708905012200,0.55701220703125,0.0008896304061636329,0.0013142288662493229,-0.0035748486407101154
1761412708915025200,0.567025146484375,-0.00035033741733059287,-0.0007763523608446121,-0.0018344728741794825
1761412708925038300,0.577038330078125,-0.00026659571449272335,-0.0018707828130573034,0.00007133046165108681
1761412708935052000,0.587052001953125,-0.0008868459262885153,-0.0003866031765937805,0.0014646961353719234
1761412708945065200,0.597065185546875,0.00041407463140785694,0.003108435310423374,0.0018372442573308945
1761412708955079400,0.607079345703125,-0.0006924687186256051,0.0013611353933811188,-0.0018933115061372519
1761412708965092000,0.617092041015625,0.0006699811201542616,-0.00035063689574599266,0.0008404802065342665
1761412708975105300,0.627105224609375,-0.0016325879842042923,-0.001416167477145791,-0.0007036204915493727
1761412708985119200,0.637119140625,0.0005761977517977357,-0.0005775438621640205,-0.0000021352898329496384
1761412708995132200,0.647132080078125,0.0009061633609235287,0.002518114633858204,-0.0011534198420122266
1761412709005146400,0.657146484375,-0.00020673120161518455,0.00033402349799871445,-0.0018508372595533729
1761412709015159000,0.667158935546875,-0.0006943559856154025,0.0009422893635928631,0.00027196831069886684
1761412709025173200,0.67717333984375,-0.0005119133275002241,-0.0006063813343644142,0.0017157176043838263
1761412709035186200,0.687186279296875,-0.0018141991458833218,-0.0010181060060858727,0.001973511418327689
1761412709045199000,0.69719921875,0.0000986889936029911,-0.0027309332508593798,-0.00019405526109039783
1761412709055213300,0.70721337890625,0.001454770565032959,-0.00007762573659420013,0.0012544379569590092
1761412709065226200,0.717226318359375,-0.004142921883612871,-0.0007359292358160019,-0.0008551743812859058
1761412709075240200,0.727240234375,0.0004752656677737832,-0.002354598604142666,-0.0003220094367861748
1761412709085253000,0.737253173828125,0.000016604724805802107,-0.0018077632412314415,0.0030555706471204758
1761412709095267300,0.747267333984375,-0.0007860719924792647,0.00037283310666680336,-0.001998043851926923
1761412709105280300,0.7572802734375,0.00034956965828314424,0.00008040061220526695,0.0031824614852666855
1761412709115293200,0.767293212890625,-0.0016691064229235053,-0.0005329255945980549,-0.002292997669428587
1761412709125307400,0.777307373046875,-0.000362454418791458,-0.00037230923771858215,-0.0017193122766911983
1761412709135320000,0.787320068359375,-0.0009222509106621146,0.002241050824522972,0.0012168227694928646
1761412709145334300,0.797334228515625,-0.001902771182358265,0.0012943604961037636,-0.0006863969611003995
1761412709155347500,0.807347412109375,-0.0017435140907764435,-0.00040047522634267807,-0.000955908908508718
1761412709165360000,0.817360107421875,0.0008453876944258809,0.0017647799104452133,0.0002200556918978691
1761412709175374300,0.827374267578125,-0.002191947540268302,0.0016265618614852428,-0.0005978010594844818
1761412709185387000,0.837386962890625,0.0002473005442880094,-0.0011650314554572105,0.0009249015711247921
1761412709195401200,0.847401123046875,0.00007552665192633867,-0.0030630663968622684,0.0008655132260173559
1761412709205414400,0.857414306640625,-0.00024603246129117906,-0.0005476400256156921,0.0023965509608387947
1761412709215427000,0.867427001953125,-0.0005962381255812943,-0.000798775814473629,-0.0010695531964302063
1761412709225441300,0.877441162109375,-0.0008924254798330367,0.00013503478839993477,0.0028381929732859135
1761412709235454200,0.8874541015625,0.002224271884188056,-0.0018849729094654322,-0.0006662606028839946
1761412709245468200,0.89746826171875,0.00039310508873313665,0.0008803890086710453,0.0005608703941106796
1761412709255481300,0.9074814453125,-0.0006876056431792676,-0.00212285784073174,-0.0027827282901853323
1761412709265495300,0.917495361328125,0.00047637539682909846,-0.00034532975405454636,-0.0017426302656531334
1761412709275508200,0.92750830078125,-0.0006911544478498399,0.0010597538203001022,0.003287015948444605
1761412709285521200,0.937521240234375,0.0005352519219741225,-0.0024872205685824156,0.001533251954242587
1761412709295535400,0.947535400390625,-0.000355575408320874,-0.0021181064657866955,-0.0017962321871891618
1761412709305548300,0.95754833984375,-0.0007794772391207516,-0.0016067083925008774,-0.0011792023433372378
1761412709315562200,0.967562255859375,-0.0010769523214548826,0.0014149141497910023,0.0007212294731289148
1761412709325575400,0.977575439453125,-0.0011694042477756739,0.0030915490351617336,-0.0029875976033508778
1761412709335588000,0.987588134765625,-0.001182187465019524,0.0019330745562911034,0.001741111045703292
1761412709345602300,0.997602294921875,0.000008003378752619028,-0.0012739601079374552,0.0001352657563984394
1761412709355615200,1.007615234375,-0.00012462201993912458,-0.0032510906457901,0.0012332869227975607
1761412709365629200,1.017629150390625,-0.0007328965002670884,-0.0009684497490525246,-0.0014903254341334105
1761412709375642400,1.027642333984375,-0.00030838866950944066,0.0006624697707593441,-0.0008154804818332195
1761412709385656300,1.03765625,-0.0009653359884396195,-0.0008374182507395744,0.0001854246947914362
1761412709395669200,1.047669189453125,0.0025923808570951223,-0.002375127514824271,0.0017372486181557178
1761412709405682400,1.057682373046875,-0.00029373037978075445,0.001445516012609005,-0.0022038843017071486
1761412709415696100,1.067696044921875,0.0009606184321455657,0.0014399229548871517,0.0013655503280460835
1761412709425709300,1.077709228515625,-0.0005302635836414993,-0.00014145439490675926,-0.0017059475649148226
1761412709435723300,1.08772314453125,-0.00019869999960064888,-0.0008983248844742775,0.0005183245521038771
1761412709445736200,1.097736083984375,-0.0009216444450430572,-0.00011986726894974709,-0.00041794427670538425
1761412709455749400,1.107749267578125,0.00024721695808693767,-0.0006980397738516331,0.00151045061647892
1761412709465763300,1.117763427734375,0.0008486950537189841,0.002261582762002945,0.0035010401625186205
1761412709475776300,1.1277763671875,0.00212141964584589,-0.0002660234458744526,-0.00038477801717817783
1761412709485790200,1.137790283203125,-0.00024403547286055982,-0.0010250434279441833,-0.002413245150819421
1761412709495803400,1.147803466796875,-0.0005249989917501807,-0.0018173337448388338,0.0010121127124875784
1761412709505816600,1.157816650390625,0.0004745715414173901,-0.0008971299976110458,-0.0014365478418767452
1761412709515830500,1.16783056640625,0.0001427416573278606,-0.002169322222471237,-0.002887438051402569
1761412709525843500,1.177843505859375,-0.0007334047695621848,0.0003371136263012886,-0.002687589032575488
1761412709535857400,1.187857421875,-0.0005656256107613444,-0.0008354759775102139,0.00028689554892480373
1761412709545870300,1.197870361328125,-0.0017656085547059774,-0.000764886848628521,-0.000042200786992907524
1761412709555883500,1.207883544921875,0.00010286521865054965,0.0006127664819359779,0.0028483944479376078
1761412709565897500,1.2178974609375,0.001975951250642538,0.0005117841064929962,0.00177554483525455
1761412709575910400,1.227910400390625,0.00011520064435899258,0.0015088720247149467,0.0004756560083478689
1761412709585924400,1.23792431640625,-0.0030990540981292725,-0.00044706277549266815,0.0024248920381069183
1761412709595937500,1.2479375,-0.0006651912117376924,0.0004506888799369335,-0.0013056640746071935
1761412709605951200,1.257951171875,0.0006413597147911787,-0.00010860711336135864,-0.00009436765685677528
1761412709615964400,1.26796435546875,0.0018991705728694797,-0.0007296563126146793,0.0012638445477932692
1761412709625977600,1.2779775390625,0.002453902270644903,0.0012825601734220982,-0.0018620656337589025
1761412709635991300,1.2879912109375,-0.0008617333369329572,-0.0009992364794015884,-0.0006431367946788669
1761412709646004500,1.29800439453125,-0.0014360606437548995,-0.0011329823173582554,-0.0014257680159062147
1761412709656018400,1.308018310546875,-0.0007484324742108583,0.00037862779572606087,-0.00046676374040544033
1761412709666031400,1.31803125,0.0031222179532051086,0.0006217425689101219,-0.000007021473720669746
1761412709676044500,1.32804443359375,0.0008492101333104074,-0.0000810655765235424,-0.0005830632289871573
1761412709686058500,1.33805859375,-0.0019139309879392385,0.0009166444651782513,-0.0014893549960106611
1761412709696071400,1.348071533203125,0.0006791889318265021,-0.00032358989119529724,0.0012318629305809736
1761412709706085400,1.35808544921875,0.0018749706214293838,0.00041679199784994125,-0.00038134329952299595
1761412709716098300,1.368098388671875,0.001185478176921606,0.0014967038296163082,-0.0007880079792812467
1761412709726111500,1.378111572265625,0.0012856611283496022,0.00021550385281443596,-0.0023997740354388952
1761412709736125400,1.38812548828125,-0.00026589655317366123,0.0013039377517998219,0.0018583540804684162
1761412709746138400,1.398138427734375,-0.0009213774465024471,0.0004736548289656639,0.0007871899288147688
1761412709756152300,1.40815234375,-0.00009952596155926585,0.0008419700898230076,0.00016587437130510807
1761412709766165500,1.41816552734375,-0.003583668963983655,0.003206792753189802,-0.0021260592620819807
1761412709776179200,1.42817919921875,-0.0019375690026208758,0.000056006480008363724,-0.0005481364205479622
1761412709786192400,1.4381923828125,-0.0001780401507858187,-0.00043253693729639053,-0.0001424849033355713
1761412709796205600,1.44820556640625,-0.0020031044259667397,-0.00030417274683713913,0.0014221221208572388
1761412709806219300,1.45821923828125,-0.0017470089951530099,-0.00011470774188637733,-0.0019909164402633905
1761412709816232400,1.468232421875,-0.0008849437581375241,0.0028693638741970062,-0.000040950020775198936
1761412709826246400,1.478246337890625,0.00216842838563025,-0.000051182229071855545,0.0007309804204851389
1761412709836259300,1.48825927734375,-0.001068910351023078,-0.0003004539757966995,0.0010425702203065157
1761412709846272500,1.4982724609375,0.0002190587401855737,0.0022946461103856564,0.0023117195814847946
1761412709856286500,1.508286376953125,-0.0005713675054721534,-0.000018042977899312973,0.0014395343605428934
1761412709866299400,1.51829931640625,0.000410561915487051,-0.00043536722660064697,0.0006032977253198624
1761412709876313300,1.528313232421875,0.0007940570940263569,-0.0008934307843446732,-0.0014641142915934324
1761412709886326300,1.538326171875,0.001713070087134838,-0.000661215279251337,-0.0012594480067491531
1761412709896339500,1.54833935546875,-0.0018864583689719439,-0.00008330913260579109,0.002537154359742999
1761412709906353400,1.558353515625,0.0022411495447158813,-0.0013520605862140656,-0.0016816338757053018
1761412709916366300,1.568366455078125,0.0015191666316241026,0.0013585048727691174,0.00009868922643363476
1761412709926380300,1.57838037109375,-0.0004819600435439497,-0.002307681366801262,0.0005650748498737812
1761412709936393500,1.5883935546875,0.000009925803169608116,0.00015574274584650993,-0.0003185621462762356
1761412709946406400,1.598406494140625,0.0012221382930874825,0.0010169041343033314,0.002119875280186534
1761412709956420400,1.60842041015625,0.0006756576476618648,-0.0003165407106280327,0.0021451751235872507
1761412709966433500,1.61843359375,-0.0006892472156323493,0.001490072812885046,-0.001223167171701789
1761412709976447200,1.628447265625,-0.0016708883922547102,0.00010203337296843529,-0.0014961411943659186
1761412709986460400,1.63846044921875,-0.0005857104551978409,-0.0033172823023051023,-0.00044757931027561426
1761412709996473300,1.648473388671875,0.0010523998644202948,-0.004064565524458885,0.00006561167538166046
1761412710006487300,1.6584873046875,-0.0003491134848445654,0.0007535587064921856,0.00031129992567002773
1761412710016500500,1.66850048828125,0.0006655509350821376,0.0015913890674710274,-0.004518875386565924
1761412710026514200,1.67851416015625,-0.0016805714694783092,0.0024346662685275078,-0.0026121896225959063
1761412710036527400,1.68852734375,-0.00026776455342769623,0.0014511607587337494,-0.00008005602285265923
1761412710046541600,1.69854150390625,0.0006113123381510377,-0.0017879584338515997,0.0003375962842255831
1761412710056554200,1.70855419921875,-0.0009666106197983027,-0.0003887335769832134,0.0022430880926549435
1761412710066567400,1.7185673828125,0.0008979400736279786,0.0013804025948047638,-0.0025897896848618984
1761412710076581400,1.728581298828125,-0.001066940138116479,0.002898670732975006,0.00252241431735456
1761412710086594300,1.73859423828125,0.0009940392337739468,-0.0004425235092639923,-0.0012030474608764052
1761412710096608500,1.7486083984375,0.0009085517376661301,-0.0023288403172045946,-0.001586009981110692
1761412710106621400,1.758621337890625,-0.0011312467977404594,0.0014893598854541779,0.0030894530937075615
1761412710116634400,1.76863427734375,0.001705019734799862,0.0035099005326628685,0.0019091400317847729
1761412710126648300,1.7786484375,0.000860647123772651,0.0008940775878727436,-0.003532188944518566
1761412710136661200,1.7886611328125,0.002250018296763301,-0.0014039643574506044,-0.0016048592515289783
1761412710146675500,1.798675537109375,0.0012438468402251601,-0.0012038792483508587,-0.002901019062846899
1761412710156688400,1.8086884765625,-0.00014951906632632017,-0.001275784568861127,0.0008244768250733614
1761412710166701300,1.818701416015625,-0.00044084188994020224,0.0035071587190032005,-0.0007466935785487294
1761412710176715300,1.82871533203125,0.0023014149628579617,-0.0016290133353322744,-0.00046865956392139196
1761412710186728400,1.838728515625,0.0008618446299806237,0.0014229812659323215,0.000002284534275531769
1761412710196742400,1.848742431640625,-0.00031820201547816396,0.000049056485295295715,0.000030514085665345192
1761412710206755300,1.85875537109375,0.00003171467687934637,0.0005547967739403248,0.002335930010303855
1761412710216768500,1.8687685546875,-0.0011280919425189495,0.0009244438260793686,0.000030697789043188095
1761412710226782200,1.8787822265625,-0.00084249849896878,0.0000651204027235508,-0.00035950494930148125
1761412710236795400,1.88879541015625,0.0002637786092236638,0.0010238583199679852,-0.0016713780350983143
1761412710246809600,1.8988095703125,-0.0011597584234550595,0.00149551872164011,-0.00008957600221037865
1761412710256822300,1.908822265625,-0.00018637299945112318,-0.0014912167098373175,0.0023906261194497347
1761412710266835500,1.91883544921875,0.00010849913815036416,-0.0011528455652296543,0.0004882854409515858
1761412710276849400,1.928849365234375,0.0010978635400533676,0.0012589129619300365,0.001256607472896576
1761412710286862300,1.9388623046875,-0.00017308845417574048,-0.0018261705990880728,0.0007085530087351799
1761412710296876500,1.94887646484375,0.0001448929833713919,0.00008518015965819359,0.0005841832607984543
1761412710306889200,1.95888916015625,0.0008969143382273614,0.0002734377048909664,0.0012225713580846786
1761412710316902400,1.96890234375,-0.00007141099194996059,0.0016164695844054222,0.0013575938064604998
1761412710326916400,1.978916259765625,-0.000011573283700272441,0.0004679686389863491,-0.004089731257408857
1761412710336929300,1.98892919921875,-0.0007721721194684505,-0.0006265905685722828,0.0012216770555824041
1761412710346943500,1.998943603515625,0.0016091595171019435,0.0007928721606731415,-0.0003230550792068243
1761412710356956400,2.008956298828125,0.00020114629296585917,-0.0011480397079139948,-0.00008896319195628166
1761412710366970400,2.018970458984375,0.0011453891638666391,-0.0005137715488672256,-0.00046715454664081335
1761412710376983300,2.0289833984375,0.0002939766854979098,0.00008464045822620392,-0.0010392015101388097
1761412710386996500,2.03899658203125,0.0027093889657408,-0.0013772021047770977,0.0014132214710116386
1761412710397010400,2.049010498046875,0.0022169703152030706,-0.0007700012065470219,0.0021085727494210005
1761412710407023400,2.0590234375,-0.0005428601289168,0.0002857721410691738,-0.0019457016605883837
1761412710417037600,2.06903759765625,0.00013145222328603268,0.002632017247378826,-0.0026599615812301636
1761412710427050200,2.07905029296875,0.002173225861042738,0.0025555905885994434,-0.0009276120690628886
1761412710437063400,2.0890634765625,-0.0003668970603030175,0.0007044272497296333,-0.0028400281444191933
1761412710447077600,2.09907763671875,0.0014911225298419595,0.0016178227961063385,0.0021278553176671267
1761412710457090300,2.10909033203125,-0.0013581935781985521,0.0007608179003000259,-0.0005563448648899794
1761412710467104500,2.1191044921875,-0.0015172450803220272,-0.000010930933058261871,-0.0009345514699816704
1761412710477117200,2.1291171875,-0.0012538584414869547,-0.00012784404680132866,-0.0009212356526404619
1761412710487130400,2.13913037109375,-0.002089153276756406,-0.0000947895459830761,0.0010977366473525763
1761412710497144600,2.14914453125,-0.00047714184620417655,0.0010498370975255966,-0.0007459697080776095
1761412710507157000,2.159156982421875,0.000515753636136651,-0.0004608090966939926,-0.0012245316756889224
1761412710517171200,2.169171142578125,0.00029817342874594033,0.0016683884896337986,-0.00022531370632350445
1761412710527184100,2.17918408203125,0.00045323409722186625,-0.0008114888332784176,-0.0011498973472043872
1761412710537197000,2.189197021484375,0.0009517777943983674,0.001695611048489809,-0.0007166010327637196
1761412710547211300,2.199211181640625,-0.0016009596874937415,-0.0032107585575431585,0.0006489916704595089
1761412710557224000,2.209223876953125,-0.0013532857410609722,0.0024742912501096725,-0.0015854004304856062
1761412710567238100,2.219238037109375,-0.0009622214129194617,-0.0004309886135160923,-0.0004790837410837412
1761412710577251000,2.2292509765625,0.002060200087726116,-0.0008560288697481155,-0.0003496541175991297
1761412710587264000,2.239263916015625,-0.0016979319043457508,0.0006647165864706039,-0.0003695159684866667
1761412710597278200,2.2492783203125,0.0009995840955525637,0.0014998838305473328,-0.0003804350271821022
1761412710607291100,2.259291015625,-0.0009250293951481581,-0.0009216158650815487,-0.002297908067703247
1761412710617305000,2.26930517578125,0.00002545275492593646,0.00019371602684259415,-0.0012310456950217485
1761412710627318000,2.279318115234375,-0.0008969089249148965,-0.002107524313032627,0.0022614572662860155
1761412710637331000,2.2893310546875,0.0014863539254292846,0.0009601707570254803,0.003401822643354535
1761412710647345200,2.29934521484375,0.00039401702815666795,0.001519080251455307,0.0007411621045321226
1761412710657358000,2.309358154296875,0.0010092072188854218,-0.0003635082393884659,-0.001821597688831389
1761412710667372300,2.319372314453125,-0.001772633520886302,-0.003300601150840521,0.0012904596514999866
1761412710677385200,2.32938525390625,0.0016138420905917883,0.001824918668717146,-0.001627299701794982
1761412710687398100,2.339398193359375,-0.0004893422010354698,-0.0006813365034759045,0.003122425638139248
1761412710697412000,2.349412109375,-0.000525827519595623,0.0017248294316232204,0.00044807931408286095
1761412710707425000,2.359425048828125,-0.0010270255152136087,0.0007944907993078232,-0.0010686367750167847
1761412710717439200,2.369439208984375,0.0010313316015526652,-0.0012737202923744917,-0.001474236138164997
1761412710727452200,2.3794521484375,-0.000617031124420464,0.0006722086109220982,-0.0003865273902192712
1761412710737466000,2.389466064453125,-0.0005552457878366113,-0.000007696449756622314,-0.0006467181956395507
1761412710747479300,2.399479248046875,-0.0016964103560894728,0.001507642213255167,0.0005194800905883312
1761412710757492000,2.409491943359375,0.000001088541466742754,0.002811525948345661,-0.0014802876394242048
1761412710767506200,2.419506103515625,-0.002297881292179227,0.0008087959140539169,-0.0004344792105257511
1761412710777519000,2.42951904296875,-0.0003609643317759037,0.00012249965220689774,-0.0011636527488008142
1761412710787533000,2.439532958984375,-0.000754579552449286,-0.00013396283611655235,0.001271009212359786
1761412710797546200,2.449546142578125,0.00021241424838081002,0.00040159886702895164,0.0006377093959599733
1761412710807559000,2.459558837890625,-0.00006222361116670072,0.0007512988522648811,-0.0014123395085334778
1761412710817573000,2.469572998046875,0.0001894450979307294,-0.0000708186998963356,-0.0014466942520812154
1761412710827586000,2.4795859375,0.0005540306447073817,-0.0000871606171131134,-0.00030769058503210545
1761412710837600300,2.489600341796875,0.00019104179227724671,0.0015525477938354015,0.0006473190151154995
1761412710847613200,2.49961328125,0.0002510846534278244,-0.00004414469003677368,0.0020300247706472874
1761412710857626000,2.509626220703125,-0.0009081893367692828,0.0001420103944838047,-0.0010102400556206703
1761412710867640000,2.51964013671875,0.0002399250806774944,-0.0012554596178233624,-0.00045544025488197803
1761412710877653200,2.5296533203125,-0.0004474368179216981,-0.0005052471533417702,0.0003261975944042206
1761412710887667200,2.539667236328125,0.0019050711998715997,-0.002241584239527583,0.0008422844111919403
1761412710897680100,2.54968017578125,-0.00004968891153112054,-0.0018471700605005026,-0.0007867711829021573
1761412710907693000,2.559693115234375,-0.0014601380098611116,0.0006980593316257,-0.0019179426599293947
1761412710917707300,2.569707275390625,0.000532172794919461,-0.00038664601743221283,0.0023143526632338762
1761412710927720200,2.57972021484375,-0.003620228497311473,0.000913859810680151,-0.0015745433047413826
1761412710937734100,2.589734130859375,-0.001228443579748273,0.0024611568078398705,-0.003810000605881214
1761412710947747300,2.599747314453125,0.001782192848622799,-0.00128757837228477,0.001031647901982069
1761412710957760000,2.609760009765625,0.00022184685803949833,-0.000651615671813488,0.0009288499131798744
1761412710967774200,2.619774169921875,0.0016833211993798614,3.4319236874580383e-7,0.0018248776905238628
1761412710977787100,2.629787109375,0.0021033016964793205,-0.0010934174060821533,-0.00022442475892603397
1761412710987801000,2.639801025390625,0.0019466435769572854,-0.0011081236880272627,-0.000324892345815897
1761412710997814300,2.649814208984375,-0.0017572807846590877,0.0005278564058244228,0.0016695489175617695
1761412711007827000,2.659826904296875,0.00006505378405563533,0.0004342244938015938,0.0007855501025915146
1761412711017841200,2.669841064453125,0.0010429664980620146,-0.00012903381139039993,0.00233684154227376
1761412711027854000,2.67985400390625,0.0013496964238584042,-0.0006016325205564499,0.0006562906783074141
1761412711037868000,2.689867919921875,0.0005278448224999011,-0.0030735787004232407,-0.00003826175816357136
1761412711047881200,2.699881103515625,0.000578908366151154,-0.001267854357138276,0.0019508451223373413
1761412711057894100,2.70989404296875,0.0008889003656804562,0.0016698786057531834,-0.0007163105765357614
1761412711067908000,2.719908203125,0.0002936655073426664,0.0008463594131171703,-0.001018405077047646
1761412711077921300,2.72992138671875,0.0009956748690456152,0.0018658172339200974,0.0008711076807230711
1761412711087935200,2.739935302734375,-0.00014753045979887247,-0.00002413196489214897,0.00011890730820596218
1761412711097948200,2.7499482421875,0.001162744709290564,-0.000508028082549572,0.0005356920883059502
1761412711107961000,2.759961181640625,-0.0003246312844567001,-0.002071484923362732,0.002119858516380191
1761412711117975300,2.769975341796875,0.00017843986279331148,0.0027664131484925747,-0.0012602255446836352
1761412711127988200,2.77998828125,-0.0015938305296003819,0.0007520997896790504,0.00011093029752373695
1761412711138002200,2.790002197265625,0.00015000728308223188,-0.0008236924186348915,0.0006630036514252424
1761412711148015000,2.80001513671875,-0.0001320822339039296,-0.000323515385389328,0.0004943879321217537
1761412711158028000,2.810028076171875,-0.0013422226766124368,0.0004421430639922619,0.0012043865863233805
1761412711168042200,2.820042236328125,-0.00309711298905313,0.0009234193712472916,-0.0025752459187060595
1761412711178055200,2.83005517578125,-0.001595090376213193,0.002885636407881975,0.0013984567485749722
1761412711188069000,2.840069091796875,0.001109396107494831,0.0018187076784670353,0.0017112167552113533
1761412711198082300,2.850082275390625,-0.0020035728812217712,-0.0001525641418993473,0.00008056312799453735
1761412711208096000,2.860095947265625,-0.0005210375529713929,0.0007023620419204235,0.0008608244825154543
1761412711218109200,2.870109130859375,0.0017738083843141794,-0.0006446647457778454,-0.0004063076339662075
1761412711228122000,2.8801220703125,0.0010627941228449345,0.00040333205834031105,0.0002124379388988018
1761412711238136000,2.890135986328125,-0.0016600218368694186,0.002290980890393257,0.0004369423259049654
1761412711248149200,2.900149169921875,0.00041397582390345633,-0.002387705259025097,0.002252352423965931
1761412711258163200,2.9101630859375,0.0016025446821004152,0.0001710597425699234,0.00013780244626104832
1761412711268176100,2.920176025390625,0.00008787927799858153,-0.0009754849597811699,0.0007551729213446379
1761412711278189000,2.93018896484375,0.001010132022202015,0.0003228061832487583,-0.00171411014162004
1761412711288203000,2.940203125,0.0005996342515572906,-0.00022529950365424156,-0.0006108031375333667
1761412711298216200,2.95021630859375,0.0013320035068318248,0.0005904268473386765,0.0032635636162012815
1761412711308230100,2.960230224609375,0.0026539575774222612,-0.002322138287127018,0.003398413769900799
1761412711318243000,2.9702431640625,-0.00006885845505166799,-0.00021238205954432487,0.000308348098769784
1761412711328256300,2.98025634765625,-0.0007483572699129581,0.0006582895293831825,0.001386536518111825
1761412711338270200,2.990270263671875,-0.00035687259514816105,0.0018093078397214413,-0.0018494704272598028
1761412711348283100,3.000283203125,0.0008165547624230385,0.0015805275179445744,0.0013262566644698381
1761412711358297000,3.010297119140625,0.00028605308034457266,0.00012111570686101913,0.0011494227219372988
1761412711368310300,3.020310302734375,-0.0016902558272704482,-0.0004076864570379257,-0.0015943393809720874
1761412711378323200,3.0303232421875,-0.0018385938601568341,0.0020006103441119194,-0.0013053864240646362
1761412711388337200,3.040337158203125,0.0031705887522548437,-0.0004214225336909294,0.0005056499503552914
1761412711398350000,3.05035009765625,-0.0009437287226319313,0.00018817512318491936,-0.0018781456165015697
1761412711408364000,3.060364013671875,-0.00047375820577144623,-0.0008208216167986393,-0.0019823231268674135
1761412711418377200,3.070377197265625,0.0011182795278728008,-0.0030232558492571115,0.00031465315259993076
1761412711428390100,3.08039013671875,-0.0004915327299386263,-0.0002431715838611126,-0.0021702079102396965
1761412711438404000,3.090404052734375,0.0021849442273378372,-0.0004775295965373516,-0.0013941626530140638
1761412711448417300,3.100417236328125,0.0001280048454646021,-0.002086743013933301,-0.0003022211603820324
1761412711458431000,3.110430908203125,0.0017637184355407953,-0.002894479548558593,0.002789442427456379
1761412711468444200,3.120444091796875,0.0011842921376228333,0.0010233540087938309,-0.0026716822758316994
1761412711478457000,3.13045703125,0.0012482079910114408,-0.0010914620943367481,0.00013049575500190258
1761412711488471000,3.140470947265625,0.00032388968975283206,-0.0002938583493232727,-0.0011559949489310384
1761412711498484200,3.150484130859375,0.0019401621539145708,-0.000022748485207557678,-0.000027080997824668884
1761412711508498200,3.160498291015625,-0.0012912778183817863,0.0015863142907619476,0.0004665825981646776
1761412711518511000,3.170510986328125,0.0008586921030655503,0.0013319822028279305,-0.00028043403290212154
1761412711528524300,3.180524169921875,0.0005042902776040137,0.00004021031782031059,0.0002965526655316353
1761412711538538200,3.190538330078125,-0.0013647160958498716,-0.0010503539815545082,-0.002862755209207535
1761412711548551200,3.20055126953125,0.0012422603322193027,0.0005303644575178623,-0.0011831215815618634
1761412711558565000,3.210565185546875,0.000045435765059664845,0.0012696580961346626,0.00327101512812078
1761412711568578000,3.220578125,-0.0008603419410064816,0.00033712247386574745,0.0016507136169821024
1761412711578591200,3.23059130859375,0.0012632627040147781,-0.000613093376159668,-0.001382360584102571
1761412711588605200,3.240605224609375,-0.00047929034917615354,0.0014704265631735325,-0.0007555308984592557
1761412711598618000,3.2506181640625,-0.0001732931414153427,-0.0012577157467603683,0.00010573538020253181
1761412711608632000,3.260632080078125,-0.0015965260099619627,-0.0009267497807741165,-0.0024870086926966906
1761412711618645200,3.270645263671875,-0.0016583113465458155,0.0015041837468743324,0.0011937462259083986
1761412711628658200,3.280658203125,0.0013414230197668076,-0.0009846021421253681,-0.0025363981258124113
1761412711638672100,3.290672119140625,0.0007515327888540924,0.000016746576875448227,0.00014753569848835468
1761412711648685300,3.300685302734375,-0.0004233370709698647,0.0015872921794652939,0.0012365567963570356
1761412711658699000,3.310698974609375,0.000045645603677257895,-0.000831124372780323,0.0012416166719049215
1761412711668712200,3.320712158203125,-0.0016636904329061508,0.00007315538823604584,-0.00020892638713121414
1761412711678725000,3.33072509765625,-0.0018343990668654442,-0.00022325478494167328,0.0012353057973086834
1761412711688739000,3.340739013671875,-0.0012705452973023057,0.0002775108441710472,0.001566656632348895
1761412711698752300,3.350752197265625,0.001403268426656723,-0.00000505056232213974,-0.0012347224401310086
1761412711708766200,3.36076611328125,0.000946128973737359,-0.000047517940402030945,-0.0005174078978598118
1761412711718779100,3.370779052734375,0.00018047011690214276,-0.0005428660660982132,-0.00019117072224617004
1761412711728792000,3.3807919921875,0.00022499694023281336,0.0009961789473891258,-0.0027596766594797373
1761412711738806000,3.390805908203125,0.0004822582704946399,-0.0007439302280545235,-0.0007601752877235413
1761412711748819200,3.400819091796875,-0.0001047513069352135,-0.0028941340278834105,-0.0024706278927624226
1761412711758833200,3.410833251953125,-0.0012541715987026691,0.0006345543079078197,-0.0014812636654824018
1761412711768846000,3.42084619140625,0.0005440243403427303,-0.0013183953706175089,-0.0006742720725014806
1761412711778859300,3.430859375,0.001617544679902494,-0.00037137512117624283,-0.00003564590588212013
1761412711788873200,3.440873291015625,0.0010280724382027984,-0.0015959730371832848,-0.003806061577051878
1761412711798886100,3.45088623046875,-0.0008475919021293521,0.00015212595462799072,-0.0009002865990623832
1761412711808900000,3.460900146484375,-0.0007400729227811098,0.00006369128823280334,0.000041655031964182854
1761412711818913300,3.470913330078125,0.0016506467945873737,0.0004937918856739998,0.00036549544893205166
1761412711828926200,3.48092626953125,-0.0018765832064673305,-0.0009982921183109283,0.0009627258405089378
1761412711838940200,3.490940185546875,-0.00036763609386980534,-0.0002747108228504658,-0.0029712957330048084
1761412711848953000,3.500953125,0.000996520509943366,-0.00021824659779667854,-0.0003262102836742997
1761412711858967000,3.510967041015625,-0.000538791820872575,0.00040173716843128204,0.002049595583230257
1761412711868980200,3.520980224609375,-0.0007485522655770183,-0.0031951069831848145,0.0001308575738221407
1761412711878993200,3.5309931640625,0.0014669314259663224,-0.0012376836966723204,0.001205709297209978
1761412711889007000,3.541007080078125,0.0003325786965433508,0.0011732927523553371,0.002121638972312212
1761412711899020300,3.551020263671875,-0.0014906213618814945,0.0009783492423593998,0.0019754315726459026
1761412711909034000,3.561033935546875,0.0007834661519154906,-0.0008391928859055042,-0.002510834950953722
1761412711919047200,3.571047119140625,-0.00015423281001858413,-0.00023066066205501556,-0.0006634000455960631
1761412711929060000,3.58106005859375,-0.0003978862951043993,0.002642451785504818,-0.002160297706723213
1761412711939074000,3.591073974609375,0.00035285879857838154,0.0016789198853075504,0.0033868004102259874
1761412711949087200,3.601087158203125,0.0005189349176362157,-0.0009465496987104416,-0.0013788908254355192
1761412711959101200,3.61110107421875,-0.0007114454638212919,-0.00026265019550919533,0.0020496626384556293
1761412711969114000,3.621114013671875,0.0018678003689274192,0.0027031144127249718,-0.0013598983641713858
1761412711979127300,3.631127197265625,0.000653398921713233,-0.0029571682680398226,0.0017554676160216331
1761412711989141200,3.641141357421875,-0.0029518762603402138,-0.0017362497746944427,-0.0016229689354076982
1761412711999154200,3.651154296875,-0.001938277157023549,0.001788976602256298,-0.0010285513708367944
1761412712009168100,3.661168212890625,0.00012695742771029472,0.0011642072349786758,0.00047554168850183487
1761412712019181000,3.67118115234375,-0.0019258072134107351,0.0016505001112818718,0.0014276218134909868
1761412712029194200,3.6811943359375,0.0005950763006694615,-0.00008594803512096405,-0.000554975587874651
1761412712039208200,3.691208251953125,0.00017802533693611622,0.0023891939781606197,-0.00008466141298413277
1761412712049221000,3.70122119140625,-0.0008427528664469719,0.0015537003055214882,-0.003550891764461994
1761412712059235000,3.711235107421875,0.0013892423594370484,-0.001721987733617425,0.000811632489785552
1761412712069248300,3.721248291015625,-0.002971423091366887,-0.0009064082987606525,-0.0013849253300577402
1761412712079261200,3.73126123046875,0.0009791101329028606,0.002773814368993044,-0.0010586880380287766
1761412712089275100,3.741275146484375,-0.001798373879864812,0.0017519262619316578,-0.0006779208779335022
1761412712099288300,3.751288330078125,0.0004669108893722296,-0.0013149699661880732,0.0014387595001608133
1761412712109302000,3.761302001953125,0.0020950124599039555,0.0009891605004668236,0.00016167829744517803
1761412712119315200,3.771315185546875,-0.0004496378533076495,0.0008043372072279453,0.0019241580739617348
1761412712129328000,3.781328125,0.0002699519391171634,-0.00019527459517121315,-0.0016525695100426674
1761412712139342000,3.791342041015625,0.002098212018609047,-0.0001337556168437004,-0.0015276672784239054
1761412712149355300,3.801355224609375,0.0015718020731583238,-0.0017584746237844229,-0.0027156160213053226
1761412712159369200,3.811369140625,0.0014040227979421616,0.003963327035307884,0.0013992341700941324
1761412712169382100,3.821382080078125,0.0008078285027295351,-0.000309585127979517,-0.0014159055426716805
1761412712179395000,3.83139501953125,0.00007599190576002002,0.0030273552983999252,0.003175916615873575
1761412712189409000,3.841408935546875,0.00020834541646763682,-0.0004885331727564335,-0.0008082364220172167
1761412712199422200,3.851422119140625,-0.0002031129552051425,0.0008923155255615711,-0.0006074340781196952
1761412712209436200,3.861436279296875,-0.000012308475561439991,-0.0020942497067153454,0.0016485746018588543
1761412712219449000,3.871448974609375,0.0005754511221311986,-0.0007394994609057903,0.0011518951505422592
1761412712229462300,3.881462158203125,0.000031077535822987556,0.002038998994976282,-0.0018762912368401885
1761412712239476200,3.891476318359375,-0.00034256395883858204,0.0064055174589157104,0.00016928277909755707
1761412712249489200,3.9014892578125,-0.0018085476476699114,-0.0013368139043450356,0.000058720819652080536
1761412712259503000,3.911503173828125,-0.0008048021700233221,-0.002209265483543277,0.0022760687861591578
1761412712269516300,3.921516357421875,-0.0002252685371786356,-0.0004381979815661907,-0.0009663869859650731
1761412712279529200,3.931529296875,0.0008722201455384493,0.0029693166725337505,0.0004352347459644079
1761412712289543200,3.941543212890625,-0.00006436576950363815,0.001657235436141491,-0.0007892383728176355
1761412712299556000,3.95155615234375,-0.0017440214287489653,-0.0017177886329591274,-0.00021799025125801563
1761412712309570000,3.961570068359375,-0.0005628183716908097,-0.0027077163103967905,0.00011153914965689182
1761412712319583200,3.971583251953125,0.00023266783682629466,-0.0030078545678406954,-0.0015681164804846048
1761412712329596200,3.98159619140625,0.0010586900170892477,0.0014485837891697884,-0.0008856498170644045
1761412712339610000,3.991610107421875,-0.0003972601843997836,0.004792715422809124,0.0011775011662393808
1761412712349623300,4.001623291015625,0.0005226744688116014,0.0016704201698303223,0.0006064435001462698
1761412712359637000,4.011636962890625,-0.001917846268042922,-0.0032897174824029207,-0.0007222074782475829
1761412712369650200,4.021650146484375,0.0005900177056901157,-0.0008194316178560257,0.0025122961960732937
1761412712379663000,4.0316630859375,0.00024833407951518893,0.001400046981871128,-0.0024017684627324343
1761412712389677000,4.041677001953125,0.0016421653563156724,-0.00042178481817245483,-0.00211337604559958
1761412712399690200,4.051690185546875,0.00029007851844653487,0.0007044658996164799,-0.001807378837838769
1761412712409704200,4.0617041015625,0.0009691138402558863,-0.0002676318399608135,-0.003729460760951042
1761412712419717000,4.071717041015625,-0.0002301075728610158,0.0006061512976884842,-0.0015355487121269107
1761412712429730300,4.081730224609375,0.00007589050801470876,-0.0011292626149952412,0.00024420954287052155
1761412712439744300,4.091744140625,0.0006282301037572324,-0.000619267113506794,0.0005488751921802759
1761412712449757200,4.101757080078125,0.0008712494745850563,-0.00033606356009840965,-0.001916840672492981
1761412712459771100,4.111771240234375,-0.0015951038803905249,0.00006633996963500977,0.0003918535076081753
1761412712469784000,4.1217841796875,-0.002287526149302721,-0.001983676804229617,-0.00030604342464357615
1761412712479797200,4.13179736328125,0.0008874946506693959,-0.0007501007057726383,0.0017632325179874897
1761412712489811200,4.141811279296875,-0.0012008215999230742,0.00028215721249580383,0.00044286856427788734
1761412712499824000,4.15182421875,0.000974981056060642,-0.0005484828725457191,-0.0001914964523166418
1761412712509838000,4.161838134765625,-0.0027912131045013666,-0.0007823193445801735,-0.003793088486418128
1761412712519851000,4.17185107421875,-0.000997840310446918,0.0005865455605089664,-0.0037078673485666513
1761412712529864200,4.1818642578125,-0.002042528474703431,0.00034612370654940605,0.0011986771132797003
1761412712539878000,4.1918779296875,0.000969240500126034,0.00034186290577054024,0.002352624898776412
1761412712549891000,4.20189111328125,0.00004645460285246372,-0.0030897294636815786,0.0017265703063458204
1761412712559905000,4.211905029296875,-0.000005477049853652716,-0.0014092749916017056,0.002033366123214364
1761412712569918000,4.22191796875,0.00022981740767136216,0.0017739706672728062,0.0008808022830635309
1761412712579931100,4.23193115234375,0.00022688793251290917,0.0009859413839876652,-0.0001309327781200409
1761412712589945000,4.241945068359375,-0.0007176686776801944,-0.0013008702080696821,0.0010178207885473967
1761412712599958000,4.2519580078125,0.00016889761900529265,0.0020179608836770058,0.0010031734127551317
1761412712609972000,4.261971923828125,-0.001211327500641346,-0.0004043774679303169,0.0003730559255927801
1761412712619985200,4.271985107421875,0.0019120279466733336,0.0004963036626577377,-0.003506370820105076
1761412712629998000,4.281998046875,0.0008098561665974557,0.0012302775867283344,0.0018568590749055147
1761412712640012000,4.292011962890625,-0.0016788679640740156,0.002832700964063406,0.002568189287558198
1761412712650025000,4.30202490234375,-0.0006231464794836938,-0.000727454200387001,0.0006876499392092228
1761412712660039000,4.312038818359375,-0.0005035705398768187,-0.0012172095011919737,-0.0009009254863485694
1761412712670052000,4.322052001953125,0.00019212515326216817,-0.0011722350027412176,0.0007788205984979868
1761412712680065000,4.33206494140625,-0.00018684266251511872,0.0021987943910062313,0.0004134348127990961
1761412712690079000,4.342078857421875,-0.0020921300165355206,0.001985142007470131,0.0022410904057323933
1761412712700092200,4.352092041015625,-0.0013373901601880789,0.0017071082256734371,0.000555575592443347
1761412712710105900,4.36210595703125,-0.00023241923190653324,0.0018150871619582176,-0.001426749979145825
1761412712720119000,4.372119140625,0.0008107409812510014,-0.0008238391019403934,0.00016129296272993088
1761412712730132200,4.38213232421875,0.0018969820812344551,0.0013386476784944534,0.00018992973491549492
1761412712740146000,4.39214599609375,-0.0023025567643344402,0.0036571952514350414,0.0014493386261165142
1761412712750159000,4.4021591796875,0.0006465321639552712,0.0037703453563153744,0.0009237867780029774
1761412712760173000,4.412173095703125,-0.001894656103104353,0.00497569190338254,-0.0013361717574298382
1761412712770186000,4.42218603515625,-0.0004135112976655364,-0.001020803116261959,-0.002553901169449091
1761412712780199200,4.43219921875,0.00099796405993402,-0.0003145327791571617,0.0003963485360145569
1761412712790213000,4.442213134765625,0.0013331762747839093,0.003362454939633608,0.002045348519459367
1761412712800226000,4.45222607421875,0.00015233061276376247,0.0007786564528942108,0.000010427087545394897
1761412712810240000,4.462239990234375,-0.0005073471111245453,0.0012741913087666035,0.0001932654995471239
1761412712820253000,4.4722529296875,0.001052199979312718,-0.004261455498635769,-0.00011912337504327297
1761412712830266000,4.48226611328125,0.0011955335503444076,-0.001308804377913475,0.0016568314749747515
1761412712840280000,4.492280029296875,0.000017351063434034586,0.0017495700158178806,0.0001343023031949997
1761412712850293000,4.50229296875,-0.000598819344304502,0.002542950678616762,0.00048813153989613056
1761412712860307000,4.512306884765625,0.0006446105544455349,0.001548526342958212,-0.001629081554710865
1761412712870320000,4.522320068359375,-0.0015329283196479082,-0.00014166580513119698,0.0015600835904479027
1761412712880333000,4.5323330078125,0.002794708590954542,0.0018868641927838326,0.0022439833264797926
1761412712890347000,4.542346923828125,-0.0010885223746299744,0.0026346808299422264,-0.0008705678628757596
1761412712900360200,4.552360107421875,-0.0018318106885999441,0.002270893193781376,0.0021851430647075176
1761412712910374000,4.562373779296875,-0.0005448575830087066,-0.000948665663599968,0.0013025158550590277
1761412712920387000,4.572386962890625,0.0014210878871381283,-0.0002322751097381115,-0.0011233575642108917
1761412712930400000,4.58239990234375,-0.00041267339838668704,0.003266196697950363,0.0006407361943274736
1761412712940414000,4.5924140625,0.000706386927049607,0.0012752171605825424,0.0036628914531320333
1761412712950427100,4.60242724609375,0.001872260239906609,-0.00016746297478675842,0.0010336735285818577
1761412712960440800,4.61244091796875,-0.00013283378211781383,-0.00013284198939800262,0.0005993118975311518
1761412712970454000,4.6224541015625,0.0008966640452854335,0.0005131363868713379,0.001499638892710209
1761412712980467200,4.63246728515625,-0.0006684756372123957,0.0003205901011824608,0.0009776593651622534
1761412712990481000,4.64248095703125,-0.0018667617114260793,-0.000886902678757906,0.0022843738552182913
1761412713000494000,4.652494140625,-0.0022041841875761747,0.0004891529679298401,0.001558396266773343
1761412713010508000,4.662508056640625,-0.0016656839288771152,0.0009542237967252731,0.0033206697553396225
1761412713020521000,4.67252099609375,-0.000016388308722525835,0.0034522684291005135,-0.0003278609365224838
1761412713030534100,4.6825341796875,0.0007742151501588523,-0.000979169737547636,-0.00025679939426481724
1761412713040548000,4.692548095703125,0.00013319228310137987,0.0003915592096745968,-0.0012163362698629498
1761412713050561000,4.70256103515625,0.0007938402704894543,-0.0011907350271940231,0.0008639099542051554
1761412713060575000,4.712574951171875,-0.00046903075417503715,0.0016125082038342953,0.002030108356848359
1761412713070588000,4.722587890625,-0.002147312043234706,0.0008726585656404495,-0.0020209532231092453
1761412713080601000,4.73260107421875,0.0016239904798567295,0.0016116858460009098,0.00003154505975544453
1761412713090615000,4.742614990234375,0.0013855117140337825,0.0012503531761467457,-0.000608346308581531
1761412713100628000,4.7526279296875,-0.0023000366054475307,0.0027941870503127575,-0.000932186609134078
1761412713110642000,4.762641845703125,-0.0005029311869293451,0.0008026375435292721,0.0014784012455493212
1761412713120655000,4.772655029296875,-0.0005974734085611999,0.001635408028960228,0.0042653996497392654
1761412713130668000,4.78266796875,0.0010975379263982177,-0.001989437732845545,0.0015152208507061005
1761412713140682000,4.792681884765625,-0.0012809312902390957,0.00022258376702666283,-0.0005370111903175712
1761412713150695200,4.802695068359375,-0.00045466225128620863,-0.0001320759765803814,-0.000571375829167664
1761412713160708900,4.812708984375,0.002953385002911091,0.0017198859713971615,0.0015154771972447634
1761412713170722000,4.82272216796875,-0.0005263942293822765,0.0003576246090233326,-0.0019060811027884483
1761412713180735200,4.8327353515625,-0.003073174972087145,-0.000010957010090351105,-0.0013896941673010588
1761412713190749000,4.8427490234375,0.0014251460088416934,0.0016639567911624908,-0.00041249452624469995
1761412713200762000,4.85276220703125,-0.001002857810817659,0.001695116050541401,0.002454131841659546
1761412713210776000,4.862776123046875,0.0007090280414558947,0.00031927088275551796,0.0014207882340997458
1761412713220789000,4.8727890625,-0.00290275109000504,0.00014936085790395737,0.00008308235555887222
1761412713230802200,4.88280224609375,-0.0005696809384971857,0.000347968190908432,0.00106226303614676
1761412713240815900,4.89281591796875,0.000571749871596694,-0.0009114407002925873,-0.0025532443542033434
1761412713250829000,4.9028291015625,-0.0011661248281598091,0.001845252700150013,0.0004192674532532692
1761412713260843000,4.912843017578125,0.0011044862912967801,-0.0010482720099389553,0.0029183777514845133
1761412713270856000,4.92285595703125,-0.0012427248293533921,-0.000028658192604780197,-0.0009003998711705208
1761412713280869000,4.932869140625,0.00030616961885243654,0.0008552451618015766,0.0005009553860872984
1761412713290883000,4.942883056640625,0.0016164532862603664,-0.000021315179765224457,0.00008096592500805855
1761412713300896000,4.95289599609375,-0.0007787939393892884,0.0036623692139983177,0.0001518060453236103
1761412713310910000,4.962909912109375,-0.0007205937872640789,0.0005920380353927612,0.002478811889886856
1761412713320923100,4.972923095703125,0.0003529264940880239,-0.0011137165129184723,-0.0006645171670243144
1761412713330936000,4.98293603515625,-0.0012033282546326518,0.00038186507299542427,0.0013824393972754478
1761412713340950000,4.992949951171875,-0.0009673721506260335,0.0003477768041193485,-0.0009563486091792583
1761412713350963000,5.002962890625,0.000059811980463564396,0.0007299836724996567,0.00006509036757051945
1761412713360977000,5.012976806640625,-0.0019846968352794647,0.0011481000110507011,0.0008621744345873594
1761412713370990000,5.022989990234375,-0.00014076498337090015,0.000046106986701488495,0.0006987228989601135
1761412713381003000,5.0330029296875,0.0022789831273257732,-0.0014327464159578085,-0.002254456514492631
1761412713391017000,5.043016845703125,-0.0005223145708441734,0.0004059355705976486,0.0006749825552105904
1761412713401030100,5.053030029296875,0.000356528558768332,-0.002586658578366041,0.0003982800990343094
1761412713411043800,5.0630439453125,-0.003434757236391306,-0.0002603130415081978,0.00023918156512081623
1761412713421057000,5.07305712890625,-0.0004381684120744467,0.0011836527846753597,-0.0008500514086335897
1761412713431070200,5.0830703125,0.0004594509955495596,-0.0007472927682101727,0.0010710142087191343
1761412713441084000,5.093083984375,-0.0005253859562799335,0.0008055968210101128,-0.00031915586441755295
1761412713451097000,5.10309716796875,-0.0016909183468669653,-0.0009035649709403515,0.000954207731410861
1761412713461111000,5.113111083984375,-0.0003476199053693563,0.00020537525415420532,-0.00041625509038567543
1761412713471124000,5.1231240234375,0.0006765824509784579,0.0003333361819386482,-0.0002976800315082073
1761412713481137200,5.13313720703125,-0.0017277193255722523,-0.0002970341593027115,-0.0004548064898699522
1761412713491151000,5.143151123046875,-0.0004143910191487521,0.0010130149312317371,0.0022423018235713243
1761412713501164000,5.1531640625,0.0006199807394295931,0.0005682674236595631,0.0023906396236270666
1761412713511177000,5.163177001953125,-0.0011384994722902775,-0.002148072002455592,0.00017361412756145
1761412713521191200,5.173191162109375,-0.0014072124613448977,-0.0007973168976604939,-0.0030237771570682526
1761412713531204000,5.1832041015625,-0.0019242524867877364,-0.000810000579804182,0.0006713708862662315
1761412713541218000,5.193218017578125,-0.00185101549141109,-0.0022323946468532085,0.0012511410750448704
1761412713551231200,5.203231201171875,0.00024509045761078596,0.002379594836384058,-0.001014204928651452
1761412713561244000,5.213243896484375,-0.0023943684063851833,0.0006203106604516506,-0.001432853750884533
1761412713571258000,5.223258056640625,-0.0010001541813835502,-0.004402279853820801,-0.0019047500099986792
1761412713581271000,5.23327099609375,-0.0012355776270851493,-0.001909560989588499,-0.0001878100447356701
1761412713591285000,5.243284912109375,-0.00009151268750429153,0.00018296251073479652,0.0016140667721629143
1761412713601298200,5.253298095703125,-0.0004158856754656881,0.001711084507405758,0.0004619832616299391
1761412713611310800,5.263310791015625,-0.001234807656146586,-0.0020138430409133434,0.00010932120494544506
1761412713621325000,5.273324951171875,-0.0013250887859612703,0.00036569125950336456,-0.0014976301463320851
1761412713631338200,5.283338134765625,-0.000561846885830164,0.0005450043827295303,0.0020760188344866037
1761412713641352000,5.29335205078125,0.00001845590304583311,-0.0018782056868076324,0.0021127702202647924
1761412713651365000,5.303365234375,-0.0009360646363347769,0.00010044453665614128,0.0009463529568165541
1761412713661378000,5.3133779296875,0.0005872634937986732,0.0006067114882171154,0.0021993701811879873
1761412713671392000,5.32339208984375,0.00015977019211277366,-0.0013787266798317432,0.0009812726639211178
1761412713681405200,5.3334052734375,-0.0003864441532641649,0.0029062991961836815,0.0005927174352109432
1761412713691419100,5.343419189453125,-0.0001443157671019435,-0.0012986573856323957,-0.0017728398088365793
1761412713701432000,5.35343212890625,-0.0004649603506550193,-0.0012541825417429209,0.002184883691370487
1761412713711445000,5.363445068359375,0.0002020700485445559,-0.0007529607973992825,-0.001489173388108611
1761412713721459200,5.373459228515625,0.000371713365893811,-0.001470682444050908,-0.002173073124140501
1761412713731472100,5.38347216796875,0.0013228837633505464,-0.001088108867406845,0.00040394533425569534
1761412713741486000,5.393486083984375,-0.00015996437286958098,0.001313796266913414,0.0010593491606414318
1761412713751499000,5.4034990234375,0.000613774755038321,0.00037866178900003433,-0.001585239078849554
1761412713761512000,5.413511962890625,-0.0005731961573474109,-0.0015774299390614033,-0.0006110548274591565
1761412713771526100,5.423526123046875,-0.0007167722214944661,-0.003766220761463046,-0.0015113839181140065
1761412713781539000,5.4335390625,-0.0006765584694221616,-0.0016151855234056711,0.0010713497176766396
1761412713791553000,5.443552978515625,-0.0017686332575976849,-0.0007063816301524639,-0.001926605822518468
1761412713801566200,5.453566162109375,-0.0010823366465047002,0.00011014332994818687,-0.00022111739963293076
1761412713811579000,5.463578857421875,0.0015006022294983268,0.0003819321282207966,-0.0011602445738390088
1761412713821593000,5.473593017578125,-0.000478925445349887,-0.0016122427769005299,-0.0007495852187275887
1761412713831606300,5.483606201171875,-0.0006250677397474647,-0.00023061828687787056,0.0011410522274672985
1761412713841620000,5.493619873046875,0.0005315431044436991,0.002368360757827759,0.0011325301602482796
1761412713851633200,5.503633056640625,-0.0023462495300918818,0.0011607883498072624,-0.001059774192981422
1761412713861645800,5.513645751953125,-0.00008256250293925405,0.0003314800560474396,0.00030083488672971725
1761412713871660000,5.523659912109375,-0.00038249613135121763,-0.0002859276719391346,0.001500739948824048
1761412713881673200,5.533673095703125,-0.0018357831286266446,0.0027830987237393856,0.0018554730340838432
1761412713891686000,5.543685791015625,0.0012480145087465644,0.0005121557042002678,-0.001341423369012773
1761412713901700000,5.5537001953125,-0.00020553887588903308,-0.0022862940095365047,-0.001022376585751772
1761412713911713000,5.563713134765625,-0.00044535487540997565,-0.0034588552080094814,-0.0009988137753680348
1761412713921727000,5.57372705078125,0.001741899293847382,-0.0000912882387638092,-0.0016499566845595837
1761412713931740200,5.583740234375,0.0008273859275504947,0.0015568090602755547,0.0034720946568995714
1761412713941753000,5.593753173828125,-0.001180104911327362,0.0016558784991502762,-0.0009777811355888844
1761412713951767000,5.60376708984375,0.0004703155136667192,-0.0014193388633430004,0.00003960728645324707
1761412713961780000,5.613780029296875,0.000031160248909145594,-0.0012627451214939356,-0.001682658912613988
1761412713971794200,5.623794189453125,-0.0012880442664027214,-0.0008945069275796413,-0.0025919852778315544
1761412713981807000,5.63380712890625,0.00001370883546769619,-0.000702759250998497,0.000732172280550003
1761412713991820000,5.643820068359375,0.0018735785270109773,-0.0004891506396234035,0.002449431922286749
1761412714001834000,5.653833984375,-0.0004439041658770293,-0.002147234510630369,-0.00010880059562623501
1761412714011847000,5.663846923828125,-0.0026999362744390965,-0.0007447991520166397,-0.00038027018308639526
1761412714021861000,5.673861083984375,-0.0007262675790116191,-0.00236453372053802,0.0003856548573821783
1761412714031874000,5.6838740234375,-0.00203873123973608,0.0005871374160051346,-0.001793397357687354
1761412714041887000,5.693886962890625,-0.0012320596724748611,0.0006148340180516243,0.00004338473081588745
1761412714051901200,5.703901123046875,-0.00040705781430006027,-0.0013780614826828241,0.0012985309585928917
1761412714061913900,5.713913818359375,0.00036685680970549583,0.0008707116357982159,-0.0009678191272541881
1761412714071928000,5.723927978515625,-0.0013009433168917894,0.0006284764967858791,-0.0010013709543272853
1761412714081941200,5.733941162109375,0.00022185215493664145,0.0016271616332232952,0.0013933435548096895
1761412714091954000,5.743953857421875,-0.000017056125216186047,-0.00303909950889647,0.0012733133044093847
1761412714101968100,5.753968017578125,-0.0014317273162305355,0.0006717490032315254,-0.0000817030668258667
1761412714111980800,5.763980712890625,-0.001447230577468872,-0.00018890248611569405,-0.0004480915376916528
1761412714121995000,5.7739951171875,0.0011653304100036621,0.00011043669655919075,0.0012347600422799587
1761412714132008200,5.78400830078125,-0.0009743496775627136,0.0028343400917947292,-0.0005878129741176963
1761412714142020900,5.794020751953125,0.0006938544102013111,0.00026944978162646294,0.0023674967233091593
1761412714152035000,5.80403515625,-0.0010543117532506585,-0.0007933895103633404,0.0015970978420227766
1761412714162048000,5.814048095703125,-0.00205299723893404,0.0001512337476015091,-0.0013595434138551354
1761412714172062000,5.82406201171875,0.0000957080046646297,-0.0005564806051552296,0.0007282041478902102
1761412714182075100,5.8340751953125,0.001061104005202651,0.0025839190930128098,0.001323420787230134
1761412714192088000,5.844088134765625,-0.0015024441527202725,-0.0008329236879944801,-0.00014818995259702206
1761412714202102000,5.85410205078125,-0.0010909857228398323,0.00031223567202687263,-0.0004706988111138344
1761412714212115000,5.864114990234375,0.0026206234470009804,-0.002050595125183463,0.0014457136858254671
1761412714222128000,5.874128173828125,-0.0003780960396397859,-0.001803720137104392,0.002056376775726676
1761412714232142000,5.88414208984375,-0.0010847228113561869,0.001137254759669304,0.0023580382112413645
1761412714242155000,5.894155029296875,-0.002108175540342927,0.0005835834890604019,0.003272034926339984
1761412714252169200,5.904169189453125,-0.00001905887620523572,0.001278445590287447,0.0022303552832454443
1761412714262182000,5.914181884765625,-0.0008909777970984578,0.0013141320087015629,0.0006580248009413481
1761412714272195000,5.924195068359375,0.000046735338401049376,0.0006983587518334389,-0.0012439480051398277
1761412714282209000,5.934208984375,-0.002678743563592434,0.002278145868331194,0.0020471864845603704
1761412714292222000,5.944221923828125,-0.0001149712479673326,0.00004499964416027069,0.00035589421167969704
1761412714302236200,5.954236083984375,-0.0021546862553805113,0.003694595769047737,0.0017375422175973654
1761412714312248800,5.964248779296875,-0.0028074553702026606,-0.000756086315959692,0.000023727072402834892
1761412714322262000,5.974261962890625,0.0012482726015150547,-0.0032804966904222965,-0.0017739065224304795
1761412714332276200,5.984276123046875,0.00021565606584772468,0.00008466653525829315,0.0006944045890122652
1761412714342289000,5.994288818359375,0.001463346998207271,-0.00021467264741659164,0.0018637985922396183
1761412714352303000,6.00430322265625,0.0009287645807489753,0.001206343062222004,-0.0018587075173854828
1761412714362316000,6.01431591796875,0.0011788354022428393,-0.00032071350142359734,0.0003037792630493641
1761412714372329000,6.024328857421875,0.0006520654424093664,-0.0018088833894580603,0.0010413264390081167
1761412714382343200,6.03434326171875,0.00020785018568858504,-0.001394761959090829,-0.001236475189216435
1761412714392355800,6.04435595703125,0.0014612136874347925,-0.0011904926504939795,0.001068656099960208
1761412714402370000,6.0543701171875,0.00040340598206967115,-0.0023122159764170647,0.0014990228228271008
1761412714412383000,6.064383056640625,0.00016971619334071875,-0.0015711230225861073,0.0016533415764570236
1761412714422396000,6.07439599609375,-0.00023854640312492847,0.0005727219395339489,0.0006019254215061665
1761412714432410000,6.08441015625,0.00035826792009174824,-0.00007389392703771591,-0.0004675999516621232
1761412714442423000,6.094423095703125,0.0002080656704492867,0.0036172475665807724,0.0018669269047677517
1761412714452437000,6.10443701171875,-0.0013279228005558252,0.0016781045123934746,0.0008634908590465784
1761412714462450000,6.114449951171875,-0.0009241875959560275,-0.0001248554326593876,0.0002421753015369177
1761412714472463000,6.124463134765625,-0.0014716971199959517,-0.0006824941374361515,-0.0011459565721452236
1761412714482477000,6.13447705078125,0.00009317632066085935,-0.0022273939102888107,-0.0008412909228354692
1761412714492490000,6.144489990234375,-0.0016751387156546116,0.0013558035716414452,0.0023726015351712704
1761412714502504200,6.154504150390625,0.000027153873816132545,0.0014463509432971478,0.0011901578400284052
1761412714512516900,6.164516845703125,-0.0022501375060528517,-0.0010103965178132057,0.0002787720877677202
1761412714522529800,6.17452978515625,-0.0008210852975025773,-0.00003940798342227936,-0.0030160907190293074
1761412714532544000,6.1845439453125,0.0006060698069632053,-0.00048296013846993446,0.00039758183993399143
1761412714542556700,6.194556640625,-0.0012000859715044498,-0.00012023746967315674,-0.0003100200556218624
1761412714552569900,6.20456982421875,-0.00017152947839349508,-0.0009761699475347996,-0.0005569724598899484
1761412714562583800,6.214583740234375,0.0007102431845851243,-0.0005868156440556049,-0.0008776170434430242
1761412714572596700,6.2245966796875,0.0018541094614192843,-0.0010814876295626163,0.001260001678019762
1761412714582611000,6.23461083984375,-0.0009725698037073016,-0.0035220086574554443,-0.001735521829687059
1761412714592623900,6.244623779296875,0.0013994646724313498,0.0006521102041006088,-0.0007968010613694787
1761412714602636800,6.25463671875,-0.001057035056874156,0.0012494572438299656,0.0012929814402014017
1761412714612650800,6.264650634765625,-0.0002642155159264803,0.0021621380001306534,-0.0017353815492242575
1761412714622664000,6.274663818359375,-0.0002519649569876492,0.001136820763349533,0.00025479868054389954
1761412714632678000,6.284677978515625,0.0010163692058995366,-0.0022328500635921955,0.002356040757149458
1761412714642690800,6.29469091796875,0.00024485145695507526,0.0006316457875072956,0.0009008892811834812
1761412714652703700,6.304703857421875,-0.001183335087262094,0.0002634846605360508,-0.0007310000946745276
1761412714662717700,6.3147177734375,0.00042015418875962496,-0.0009621018543839455,0.0012101780157536268
1761412714672731000,6.32473095703125,0.0012282893294468522,-0.0009654238820075989,0.0006910862866789103
1761412714682745000,6.3347451171875,0.0012072502868250012,-0.0011140280403196812,0.0018572842236608267
1761412714692757800,6.3447578125,-0.0020122434943914413,0.002795926760882139,-0.0018714404432103038
1761412714702771000,6.35477099609375,0.0004860678454861045,0.0008076103404164314,0.0023725731298327446
1761412714712784600,6.36478466796875,-0.002677967306226492,0.0016735582612454891,-0.0015951747773215175
1761412714722797800,6.3747978515625,0.0016525989631190896,-0.0024777771905064583,-0.002061228035017848
1761412714732811000,6.38481103515625,0.0007723150192759931,-0.0017032986506819725,-0.00017023365944623947
1761412714742824700,6.39482470703125,-0.0010327756172046065,0.0014525474980473518,-0.00022722524590790272
1761412714752838000,6.404837890625,-0.002215817105025053,-0.00019824504852294922,0.0011180920992046595
1761412714762851800,6.414851806640625,0.0010726541513577104,0.001306973397731781,-0.0003991108387708664
1761412714772864800,6.42486474609375,0.0011668039951473475,-0.0017344402149319649,0.0017663922626525164
1761412714782878000,6.4348779296875,0.00035986624425277114,0.0007327119819819927,0.00122417276725173
1761412714792892000,6.444891845703125,-0.000983998877927661,-0.0002379617653787136,0.0006274383049458265
1761412714802904800,6.45490478515625,0.000056764460168778896,0.0007077264599502087,-0.000305733410641551
1761412714812918800,6.464918701171875,0.0016521676443517208,0.0010871635749936104,-0.0028444002382457256
1761412714822931700,6.474931640625,-0.0009808996692299843,-0.0011530874762684107,-0.0018060337752103806
1761412714832945000,6.48494482421875,0.0030941693112254143,-0.002476566703990102,-0.0024179555475711823
1761412714842958800,6.494958740234375,-0.0003093506384175271,0.00010590068995952606,0.00011417805217206478
1761412714852971800,6.5049716796875,-0.001409038552083075,-0.002265996765345335,0.0006056539714336395
1761412714862985700,6.51498583984375,0.0036477718967944384,-0.0005192295648157597,-0.000979459611698985
1761412714872999000,6.5249990234375,0.0009390374179929495,0.0018258532509207726,0.0004884903319180012
1761412714883011800,6.53501171875,-0.001790702692233026,-0.0000615287572145462,-0.0028457874432206154
1761412714893025800,6.54502587890625,-0.0016548358835279942,-0.001220406498759985,-0.0004196534864604473
1761412714903039000,6.5550390625,-0.00031233637128025293,-0.0012984371278434992,0.00018541677854955196
1761412714913052700,6.565052734375,0.0005849041044712067,0.0002763979136943817,-0.0007155886851251125
1761412714923065900,6.57506591796875,0.0009095433633774519,0.0023185093887150288,-0.0016833813861012459
1761412714933078800,6.585078857421875,-0.000449540966656059,-0.0019171354360878468,0.0034600947983562946
1761412714943092700,6.5950927734375,0.00040506740333512425,0.00038330303505063057,0.0005311504937708378
1761412714953106000,6.60510595703125,-0.00032024626852944493,0.001854614820331335,0.0020526207517832518
1761412714963119900,6.615119873046875,0.0010286448523402214,0.0011283708736300468,-0.00012664427049458027
1761412714973132800,6.6251328125,0.0019341896986588836,0.0005701412446796894,0.00018480769358575344
1761412714983146000,6.63514599609375,0.0016380463493987918,-0.0010144393891096115,0.00138269760645926
1761412714993159700,6.64515966796875,-0.0008195716654881835,-0.0007425183430314064,-0.00175239029340446
1761412715003172900,6.6551728515625,0.0002976243558805436,0.0007967888377606869,-0.0005576963303610682
1761412715013186800,6.665186767578125,0.0014238182920962572,-0.0014549759216606617,0.0017550098709762096
1761412715023199700,6.67519970703125,0.0007897196337580681,0.001816717442125082,-0.001158488099463284
1761412715033213000,6.685212890625,0.0012430227361619473,0.0007784329354763031,0.0019084359519183636
1761412715043227000,6.695226806640625,0.00005525286542251706,0.00015312246978282928,0.0003701942041516304
1761412715053239800,6.70523974609375,0.0003654703905340284,0.0016489862464368343,-0.001138473628088832
1761412715063253000,6.7152529296875,-0.00023320825130213052,-0.0008381400257349014,-0.0013896097661927342
1761412715073267000,6.725266845703125,0.0007700631394982338,0.0014180480502545834,-0.0015132741536945105
1761412715083280000,6.73527978515625,0.0002254466526210308,0.0010920772328972816,-0.001464271917939186
1761412715093293800,6.7452939453125,-0.0006576985470019281,-0.0018087148200720549,-0.0009549788665026426
1761412715103306800,6.755306640625,0.0004949175054207444,0.001354321837425232,0.004572145640850067
1761412715113320000,6.76531982421875,0.0018513023387640715,-0.0009259656071662903,0.0013379964511841536
1761412715123334000,6.775333984375,-0.0026811317075043917,0.0018029757775366306,0.000937456963583827
1761412715133346800,6.785346923828125,0.0005571683286689222,0.0015053623355925083,0.0017247472424060106
1761412715143360800,6.79536083984375,-0.00003298817318864167,-0.001080567017197609,-0.00007901201024651527
1761412715153374000,6.8053740234375,-0.0005710991099476814,-0.0005398094654083252,-0.0011067668674513698
1761412715163387000,6.815386962890625,-0.0008557910332456231,0.00028230855241417885,-0.0009416509419679642
1761412715173400800,6.82540087890625,0.00131189392413944,0.0012505664490163326,0.002184844110161066
1761412715183414000,6.8354140625,-0.0019736478570848703,-0.0011470774188637733,0.00002289004623889923
1761412715193427700,6.845427734375,-0.0009193401201628149,-0.0012152274139225483,-0.002582852030172944
1761412715203441000,6.85544091796875,-0.00005700855399481952,-0.0011076354421675205,0.0003860399592667818
1761412715213453800,6.865453857421875,0.001277833478525281,-0.003108131466433406,0.0005061277188360691
1761412715223467800,6.8754677734375,0.000578753650188446,0.000816569197922945,0.0006113226991146803
1761412715233481000,6.88548095703125,0.0004336141864769161,0.003924197051674128,-0.001135361730121076
1761412715243494000,6.895493896484375,0.0035039724316447973,0.000024795997887849808,0.0005661319009959698
1761412715253507800,6.9055078125,0.00021279239444993436,0.00025018537417054176,0.001092475838959217
1761412715263521000,6.91552099609375,0.00010360279702581465,0.0006254245527088642,-0.0024231630377471447
1761412715273534700,6.92553466796875,0.0002960933488793671,-0.0004803868941962719,-0.0010531045263633132
1761412715283548000,6.9355478515625,0.0007259275880642235,0.0016626589931547642,0.0007924661040306091
1761412715293561000,6.94556103515625,0.00031523892539553344,-0.00016124965623021126,0.0024020089767873287
1761412715303574800,6.95557470703125,-0.0009241962106898427,0.0015389127656817436,-0.0006124229403212667
1761412715313588000,6.965587890625,0.0002785696997307241,-0.0013797292485833168,-0.00014188792556524277
1761412715323602000,6.975601806640625,0.00034967606188729405,-0.0005552144721150398,0.00009406800381839275
1761412715333614800,6.98561474609375,-0.00004721165169030428,0.0001966431736946106,0.0016168463043868542
1761412715343628000,6.9956279296875,-0.0002746456302702427,-0.00027819862589240074,0.0015803608112037182
1761412715353641700,7.005641845703125,-0.0020385142415761948,-0.0007518194615840912,-0.0011539279948920012
1761412715363655000,7.015655029296875,-0.00011651089880615473,0.0011544711887836456,-0.001492415787652135
1761412715373668900,7.0256689453125,-0.0007856241427361965,-0.001042890828102827,0.0011593929957598448
1761412715383681800,7.035681884765625,0.0017196114640682936,-0.0006447485648095608,0.001631038961932063
1761412715393695000,7.045695068359375,-0.0010524572571739554,0.0007573855109512806,0.0008521657437086105
1761412715403709000,7.055708984375,-0.0018833635840564966,0.0000833394005894661,-0.00019605434499680996
1761412715413721900,7.065721923828125,-0.00031325488816946745,-0.0002545737661421299,-0.001369250938296318
1761412715423734800,7.07573486328125,0.001003145705908537,0.00025009503588080406,-0.00010877684690058231
1761412715433749000,7.0857490234375,0.00006926635978743434,0.0012425021268427372,0.002227434888482094
1761412715443762000,7.095761962890625,-0.00045191426761448383,0.0012046853080391884,0.0003477758727967739
1761412715453776000,7.10577587890625,0.00014675033162347972,-0.0003171688877046108,0.00016197212971746922
1761412715463789000,7.1157890625,-0.000725701218470931,0.000192293431609869,-0.0008303216891363263
1761412715473801700,7.1258017578125,-0.00026753879501484334,0.001657803077250719,-0.0003315156791359186
1761412715483816000,7.13581591796875,0.0006435286486521363,0.00003567151725292206,0.0026126091834157705
1761412715493828900,7.145828857421875,-0.00023630031500943005,-0.0003304756246507168,-0.0003195528406649828
1761412715503842800,7.1558427734375,0.0008081914857029915,0.0007318593561649323,-0.0002385927364230156
1761412715513856000,7.16585595703125,-0.0008665312780067325,0.0017450903542339802,0.00025157048366963863
1761412715523868700,7.17586865234375,0.0029798722825944424,0.001764264889061451,0.0015647751279175282
1761412715533883000,7.1858828125,0.0020325661171227694,-0.0006509730592370033,0.000718467403203249
1761412715543896000,7.19589599609375,-0.0018521868623793125,0.0007999171502888203,0.002429814776405692
1761412715553909800,7.20590966796875,0.0009922024328261614,-0.0034307879395782948,0.0007425567600876093
1761412715563923000,7.2159228515625,-0.00006613775622099638,0.0017226948402822018,-0.0009669263381510973
1761412715573935900,7.225935791015625,0.0001029168488457799,-0.000939052551984787,0.002061321400105953
1761412715583949800,7.23594970703125,0.001448079477995634,-0.001721755601465702,0.0029329736717045307
1761412715593963000,7.245962890625,-0.0006478432915173471,0.0010232753120362759,0.0003665066324174404
1761412715603975700,7.2559755859375,0.0018384838476777077,0.0014096996746957302,-0.0013230027398094535
1761412715613990000,7.265989990234375,-0.00013182859402149916,0.00014960113912820816,0.0013494575396180153
1761412715624002800,7.2760029296875,0.0006101281032897532,-0.0010458920150995255,-0.001593335415236652
1761412715634016800,7.286016845703125,-0.0011788294650614262,-0.0008960040286183357,0.0012480199802666903
1761412715644030000,7.296030029296875,0.00022838485892862082,-0.000551124569028616,0.002672278555110097
1761412715654043000,7.30604296875,-0.0016485261730849743,0.0006007300689816475,-0.0007725470932200551
1761412715664056800,7.316056884765625,0.00038346569635905325,-0.0008123433217406273,0.0007814073469489813
1761412715674069800,7.32606982421875,0.0005575960967689753,-0.0002328595146536827,-0.0005048328312113881
1761412715684084000,7.336083984375,-0.0006277768407016993,-0.00008398899808526039,-0.001153046265244484
1761412715694097000,7.346096923828125,0.0017813207814469934,0.0018389811739325523,0.0014893084298819304
1761412715704109800,7.35610986328125,-0.0019273972138762474,-0.0017336492892354727,0.0009497520513832569
1761412715714124000,7.3661240234375,0.0004447470710147172,-0.002879719715565443,-0.00023659062571823597
1761412715724136700,7.37613671875,0.0011363700032234192,-0.001293807290494442,0.0006262734532356262
1761412715734151000,7.38615087890625,-0.00037963868817314506,-0.0002927514724433422,-0.00011968519538640976
1761412715744163800,7.396163818359375,0.001039293478243053,-0.00034308480098843575,-0.0022406266070902348
1761412715754176800,7.4061767578125,0.00023590080672875047,0.00031389761716127396,0.00007391348481178284
1761412715764191000,7.41619091796875,-0.0007539961952716112,-0.0014885300770401955,-0.0009902857709676027
1761412715774204000,7.426203857421875,0.000404733931645751,0.0004968577995896339,0.0010883859358727932
1761412715784217900,7.4362177734375,0.0009458882268518209,-0.00007545528933405876,0.0019344720058143139
1761412715794231000,7.44623095703125,-0.0011509860632941127,0.0013417638838291168,-0.0009339542593806982
1761412715804243700,7.45624365234375,-0.0007568382425233722,-0.0016108828131109476,0.0003052146639674902
1761412715814258000,7.4662578125,0.0005283840582706034,-0.0024098921567201614,-0.00025546038523316383
1761412715824270800,7.476270751953125,0.0011017625220119953,-0.0007739122956991196,-0.000053859082981944084
1761412715834283800,7.48628369140625,-0.0027320680674165487,0.001250147819519043,0.0024105182383209467
1761412715844298000,7.496298095703125,-0.00039194829878397286,-0.00010007480159401894,-0.0009969965321943164
1761412715854310700,7.506310546875,0.00023290960234589875,-0.0034374468959867954,0.000569450668990612
1761412715864324900,7.516324951171875,-0.0006746957078576088,-0.0034587522968649864,-0.0004771717358380556
1761412715874337800,7.526337890625,0.001927023520693183,0.0002048499882221222,-0.0005104484735056758
1761412715884350700,7.536350830078125,-0.00008685878128744662,-0.0011155451647937298,0.00281504075974226
1761412715894365000,7.546364990234375,0.0005642992909997702,0.0010336870327591896,0.002128786174580455
1761412715904377900,7.5563779296875,0.00030703796073794365,-0.0006465013138949871,0.00016869953833520412
1761412715914391800,7.566391845703125,0.0007319686701521277,-0.004032025579363108,0.003369607962667942
1761412715924404700,7.57640478515625,0.00032903242390602827,0.0027446537278592587,-0.00007119611836969852
1761412715934418000,7.58641796875,0.0010922262445092201,0.0016780868172645569,-0.0016671740449965
1761412715944431900,7.596431884765625,-0.0008723877253942192,-0.000970959197729826,-0.0006202853983268142
1761412715954444800,7.60644482421875,0.0012619332410395145,-0.0008247653022408485,-0.001096061896532774
1761412715964457700,7.616457763671875,-0.0007162627298384905,0.0010098866187036037,0.0015705612022429705
1761412715974471700,7.6264716796875,-0.0008616657578386366,0.001046971883624792,0.001996598206460476
1761412715984484900,7.63648486328125,-0.0007703193696215749,0.0014589629136025906,0.00043598609045147896
1761412715994499000,7.6464990234375,-0.0011998872505500913,0.0007194033823907375,0.00008578039705753326
1761412716004511700,7.65651171875,-0.00003315636422485113,0.0016586999408900738,-0.0002447180449962616
1761412716014525000,7.66652490234375,-0.00039412276237271726,0.0016567162238061428,0.0013218228705227375
1761412716024539000,7.676538818359375,0.0004980362136848271,-0.0018823584541678429,0.000009417068213224411
1761412716034551800,7.6865517578125,-0.0009384411969222128,-0.0008425675332546234,-0.0014142392901703715
1761412716044566000,7.69656591796875,0.0000945989741012454,0.00002961745485663414,0.00021428358741104603
1761412716054578700,7.70657861328125,0.0014792465372011065,0.0013617854565382004,-0.0009931325912475586
1761412716064592000,7.716591796875,-0.0025855363346636295,-0.0003048209473490715,-0.0023018098436295986
1761412716074605800,7.726605712890625,0.001154272467829287,-0.001203608699142933,0.00000693928450345993
1761412716084618800,7.73661865234375,0.0007987405406311154,-0.0010054693557322025,-0.002246095100417733
1761412716094633000,7.746633056640625,-0.0011233316035941243,0.00023559294641017914,0.0015838518738746643
1761412716104646000,7.75664599609375,0.0017859055660665035,-0.001457378501072526,-0.00011657644063234329
1761412716114658800,7.766658935546875,0.0005073921056464314,0.000456156674772501,-0.000017179641872644424
1761412716124672800,7.7766728515625,-0.00004814329440705478,0.0016226209700107574,0.000680035911500454
1761412716134685700,7.786685791015625,-0.0008092747302725911,-0.00013346737250685692,-0.0005862972466275096
1761412716144699000,7.796698974609375,0.00022270018234848976,0.000024990644305944443,0.0003633860033005476
1761412716154712800,7.806712890625,-0.0004883637884631753,-0.0020546717569231987,-0.0015173383289948106
1761412716164725800,7.816725830078125,0.0007292334921658039,0.0011877268552780151,0.00036152172833681107
1761412716174739700,7.82673974609375,0.0019359118305146694,-0.0005542468279600143,-0.0006475499831140041
1761412716184753000,7.8367529296875,-0.00046119955368340015,0.0002942364662885666,-0.0010211914777755737
1761412716194765800,7.846765869140625,-0.0001645000302232802,0.0009182407520711422,-0.00002646283246576786
1761412716204779800,7.85677978515625,-0.0005426689167506993,-0.0004634074866771698,0.0003341292031109333
1761412716214793000,7.86679296875,-0.0007386512006632984,-0.0007470529526472092,-0.0018046321347355843
1761412716224807000,7.876806884765625,0.0006291482714004815,-0.0009470563381910324,-0.0004613336641341448
1761412716234819800,7.88681982421875,-0.0014295077417045832,-0.001365570118650794,0.000024151988327503204
1761412716244832800,7.896832763671875,-0.0003290895838290453,0.0024283691309392452,0.0005623768083751202
1761412716254846700,7.9068466796875,0.0013503875816240907,-0.002249151235446334,0.0010204080026596785
1761412716264860000,7.91685986328125,0.001881422009319067,-0.003228661837056279,-0.00022089132107794285
1761412716274872800,7.926872802734375,-0.00048369832802563906,0.000855056568980217,-0.0009156530722975731
1761412716284886800,7.93688671875,0.0019064887892454863,-0.0004887743853032589,-0.0005385495023801923
1761412716294900000,7.94689990234375,0.0009387112222611904,0.0012550950050354004,-0.001633874257095158
1761412716304913700,7.95691357421875,0.0016889236867427826,0.0014897193759679794,0.00011635525152087212
1761412716314926800,7.9669267578125,-0.002255543600767851,-0.0006845202296972275,0.0007731115911155939
1761412716324940000,7.97693994140625,-0.00013114009925629944,-0.001344451680779457,0.0004868216346949339
1761412716334953700,7.98695361328125,0.0008362342487089336,0.0023406697437167168,-0.0028718053363263607
1761412716344967000,7.996966796875,0.0015821857377886772,0.0008652787655591965,-0.0023839143104851246
1761412716354980900,8.00698095703125,0.00040240483940578997,0.00012892065569758415,-0.00016949977725744247
1761412716364993800,8.016993896484376,0.0015425041783601046,-0.002323318039998412,0.00052212318405509
1761412716375007000,8.027007080078125,0.00034561927895992994,0.001746362540870905,-0.0006198988994583488
1761412716385021000,8.03702099609375,0.002152840606868267,-0.001323463162407279,-0.0000712876208126545
1761412716395033900,8.047033935546875,-0.0014164005406200886,-0.0015512092504650354,-0.002335399156436324
1761412716405047000,8.057047119140625,-0.00038043095264583826,-0.0007059220224618912,-0.0017769343685358763
1761412716415060700,8.067060791015624,0.0009987757075577974,0.00037974631413817406,-0.0012316592037677765
1761412716425074000,8.077073974609375,-0.0012721017701551318,-0.001632804749533534,-0.00024522445164620876
1761412716435088000,8.087087890625,-0.0014545769663527608,-0.0006412765942513943,0.0006426279433071613
1761412716445100800,8.097100830078125,-0.00019863026682287455,0.0003369022160768509,0.0005430255550891161
1761412716455114000,8.107114013671875,0.0015810232143849134,0.0004167519509792328,0.003472553798928857
1761412716465128000,8.1171279296875,0.001177820609882474,0.0017680395394563675,-0.0006811785278841853
1761412716475140900,8.127140869140625,0.00045509496703743935,0.00044653844088315964,0.0008619215805083513
1761412716485154800,8.13715478515625,-0.0005923262797296047,0.0016620052047073841,0.00006403867155313492
1761412716495168000,8.14716796875,-0.00039587743231095374,-0.002016726415604353,-0.0023398173507303
1761412716505181000,8.157180908203125,0.0011737897293642163,-0.002248954027891159,-0.0015001225983723998
1761412716515195600,8.167195556640625,-0.00045224992209114134,0.002938920632004738,-0.00024490803480148315
1761412716525208800,8.177208740234375,0.002003983361646533,0.002397766802459955,-0.001204977510496974
1761412716535221500,8.187221435546874,0.0009425312746316195,0.0017827339470386505,-0.0005379189969971776
1761412716545235700,8.197235595703125,0.0004197527305223048,0.00000667152926325798,-0.002336085308343172
1761412716555248400,8.207248291015626,0.001562966499477625,-0.0003093443810939789,-0.0017130249179899693
1761412716565262600,8.2172626953125,0.00041008414700627327,0.0014472766779363155,-0.000801957561634481
1761412716575275800,8.22727587890625,0.00022713144426234066,-0.0013427031226456165,-0.0028835241682827473
1761412716585288400,8.237288330078124,0.0028854990378022194,-0.0009184614755213261,0.0036502752918750048
1761412716595302700,8.247302734375,0.003123062662780285,-0.000040397047996520996,0.0004243939183652401
1761412716605315600,8.257315673828124,0.0007003850769251585,-0.00038500968366861343,-0.002618267433717847
1761412716615329500,8.26732958984375,0.00016589980805292726,-0.0011200550943613052,-0.0005460446700453758
1761412716625342700,8.2773427734375,0.0006452687666751444,0.001456286758184433,-0.0014283498749136925
1761412716635355600,8.287355712890625,-0.0005182016175240278,0.001251906156539917,-0.0012639008928090334
1761412716645369600,8.29736962890625,0.00036836465005762875,0.0014377948828041553,0.0028837062418460846
1761412716655382500,8.307382568359374,-0.00022493147116620094,-0.002607327187433839,0.00007449090480804443
1761412716665396700,8.317396728515625,0.0015926759224385023,0.000796459149569273,0.0012249764986336231
1761412716675409700,8.32740966796875,-0.00006401896825991571,0.0000884481705725193,0.0018960514571517706
1761412716685422600,8.337422607421875,-0.0018651147838681936,0.0008117631077766418,-0.0004185016732662916
1761412716695436800,8.347436767578126,0.001082899048924446,-0.002285654190927744,-0.0013100397773087025
1761412716705449500,8.357449462890624,0.00009779573883861303,0.0019144169054925442,-0.0005686157383024693
1761412716715462700,8.367462646484375,0.0008811746956780553,0.0005380799993872643,-0.001355767366476357
1761412716725476600,8.3774765625,-0.0005577312549576163,0.0015689898282289505,-0.0016543077072128654
1761412716735489500,8.387489501953125,-0.00040541711496189237,-0.0022920502815395594,0.0013602280523627996
1761412716745503700,8.397503662109376,0.0008404096006415784,-0.0027394613716751337,0.0011461097747087479
1761412716755516400,8.407516357421875,-0.0018417879473417997,-0.0012112129479646683,0.003348225960507989
1761412716765529600,8.417529541015625,-0.002034334698691964,0.0017915014177560806,-0.0005650226958096027
1761412716775543800,8.427543701171874,0.0006018596468493342,0.0016067810356616974,0.0006417918484658003
1761412716785556500,8.437556396484375,0.0006812218343839049,0.0005686809308826923,0.0016537930350750685
1761412716795569700,8.447569580078126,0.0010934708407148719,0.001807425171136856,-0.0005673780106008053
1761412716805583600,8.45758349609375,-0.0005270626861602068,-0.00013641593977808952,0.0037131209392100573
1761412716815596500,8.467596435546875,-0.00011542934225872159,0.0013009444810450077,0.00007469020783901215
1761412716825610800,8.47761083984375,0.0009556940058246255,-0.0010367780923843384,-0.0028531888965517282
1761412716835623400,8.48762353515625,0.0004085607943125069,0.0017557907849550247,0.0005958136171102524
1761412716845636600,8.49763671875,-0.0009152965503744781,0.0018402128480374813,0.00007276865653693676
1761412716855650600,8.507650634765625,-0.0005889060557819903,-0.0003404654562473297,0.00019051553681492805
1761412716865663500,8.51766357421875,-0.0002600057050585747,0.0038590733893215656,0.00008319015614688396
1761412716875677700,8.527677734375,-0.0013185113202780485,-0.002160910749807954,0.0016247646417468786
1761412716885690600,8.537690673828125,-0.000591202056966722,0.0010276921093463898,-0.0021550599485635757
1761412716895703600,8.54770361328125,-0.0004004443471785635,0.0004750317893922329,-0.00023221108131110668
1761412716905717500,8.557717529296875,-0.000977817689999938,0.00009047100320458412,-0.00017362157814204693
1761412716915730700,8.567730712890626,0.00015312369214370847,-0.001040308503434062,-0.0018233119044452906
1761412716925744600,8.57774462890625,0.0005675115389749408,-0.0008546863682568073,0.00016819988377392292
1761412716935757600,8.587757568359375,0.0002003975387196988,-0.0011659685987979174,-0.0001034000888466835
1761412716945770500,8.5977705078125,0.0005394179606810212,0.0005784016102552414,0.00010086433030664921
1761412716955784400,8.607784423828125,-0.0006090129027143121,0.0008807741105556488,0.0003994216676801443
1761412716965797600,8.617797607421876,0.0010107217822223902,0.002452305518090725,-0.0007574555929750204
1761412716975810600,8.627810546875,0.0005703357746824622,-0.001895413501188159,0.0017041401006281376
1761412716985824500,8.637824462890626,0.0015562379267066717,0.0005195410922169685,-0.0011848569847643375
1761412716995837700,8.647837646484374,0.0011220008600503206,0.0005705454386770725,-0.0014816171023994684
1761412717005851400,8.657851318359375,0.0021545083727687597,-0.000635866541415453,-0.000254698796197772
1761412717015864600,8.667864501953124,0.00004790851380676031,-0.0005978499539196491,-0.0015811447519809008
1761412717025877800,8.677877685546875,-0.00042506889440119267,0.0006349273025989532,0.002330772578716278
1761412717035891500,8.687891357421876,0.0007573235780000687,0.0008529894985258579,-0.002122662030160427
1761412717045904600,8.697904541015625,0.0006020612781867385,-0.0010533011518418789,0.00019641872495412827
1761412717055918600,8.707918701171875,0.0011236981954425573,0.0017610355280339718,-0.0007066924590617418
1761412717065931500,8.717931640625,0.0011716351145878434,-0.00110133015550673,-0.000775401946157217
1761412717075944700,8.72794482421875,-0.00003259824006818235,-0.00021873041987419128,-0.0017281940672546625
1761412717085958700,8.737958740234374,-0.0015628505498170853,0.0007959338836371899,0.0006414866074919701
1761412717095971600,8.7479716796875,0.00004506693221628666,0.0006610876880586147,0.0019579546060413122
1761412717105984800,8.75798486328125,-0.0009016868425533175,0.00015295669436454773,-0.0011193278478458524
1761412717115998500,8.76799853515625,-0.00141606864053756,0.000819153618067503,-0.001848716288805008
1761412717126011600,8.77801171875,-0.000209923047805205,-0.00021575111895799637,0.0034280712716281414
1761412717136025600,8.788025634765624,0.0005372276064008474,0.0009621395729482174,0.0016089377459138632
1761412717146038500,8.79803857421875,-0.0005525379092432559,0.0015690741129219532,0.0004920081701129675
1761412717156051700,8.8080517578125,0.0011469926685094833,0.0016930499114096165,-0.0011140115093439817
1761412717166065700,8.818065673828125,0.0006042405148036778,0.0013223378919064999,-0.0023625013418495655
1761412717176078600,8.82807861328125,-0.00151967559941113,0.00010193930938839912,-0.0002717801835387945
1761412717186091800,8.838091796875,-0.001478396588936448,-0.00010019494220614433,-0.0012025550240650773
1761412717196105700,8.848105712890625,0.000718842027708888,0.0018209167756140232,-0.0012203112710267305
1761412717206118700,8.85811865234375,0.0007963399402797222,-0.0009104213677346706,-0.00004559103399515152
1761412717216132600,8.868132568359375,0.000900511397048831,-0.000562300905585289,-0.00016153114847838879
1761412717226145500,8.8781455078125,-0.000030795985367149115,0.0007367893122136593,0.0005058571696281433
1761412717236158700,8.88815869140625,0.00011307853856123984,-0.00008125649765133858,-0.00034353602677583694
1761412717246172700,8.898172607421875,0.003235634882003069,-0.00003225402906537056,0.0009443687740713358
1761412717256185600,8.908185546875,-0.001851573120802641,0.00017983047291636467,0.0022441775072366
1761412717266199600,8.918199462890625,0.0022832509130239487,-0.0017200687434524298,0.001381579553708434
1761412717276212700,8.928212646484376,0.0010234133806079626,0.0008184690959751606,-0.0002224384807050228
1761412717286225700,8.9382255859375,0.001988542964681983,0.002225949428975582,0.0021544327028095722
1761412717296239600,8.948239501953125,-0.0012277329806238413,0.001453484408557415,0.0010481253266334534
1761412717306252800,8.958252685546874,0.0013994754990562797,0.0013538822531700134,-0.002728237072005868
1761412717316265500,8.968265380859375,-0.0007034830050542951,0.001105903647840023,0.0020088101737201214
1761412717326279700,8.97827978515625,-0.0015003008302301168,-0.00033247005194425583,-0.0013230707263574004
1761412717336292600,8.988292724609375,-0.00003315453068353236,-0.0010516983456909657,-0.0008410939481109381
1761412717346306600,8.998306640625,0.0010920310160145164,-0.00048124929890036583,0.0007259100675582886
1761412717356319700,9.00831982421875,-0.000959142460487783,0.0016548270359635353,-0.0006605333182960749
1761412717366332400,9.01833251953125,-0.0019746057223528624,-0.000648807268589735,0.000009251758456230164
1761412717376346600,9.0283466796875,-0.0006888408679515123,0.00023404555395245552,0.0032776978332549334
1761412717386359800,9.03835986328125,-0.0019051064737141132,0.0004926389083266258,-0.001147943432442844
1761412717396373500,9.04837353515625,-0.00056625553406775,0.00021162675693631172,0.00008246861398220062
1761412717406386700,9.05838671875,-0.0024933188688009977,0.0018196436576545238,-0.0026139819528907537
1761412717416399600,9.068399658203125,-0.0011855337070301175,0.0011549978516995907,-0.0010160404490306973
1761412717426413600,9.07841357421875,-0.001871297718025744,-0.00014089606702327728,-0.0017012718599289656
1761412717436426800,9.0884267578125,-0.0003591115528251976,0.00013623759150505066,0.00013933726586401463
1761412717446439400,9.098439453125,0.0019293427467346191,0.000592703465372324,-0.00021219998598098755
1761412717456453600,9.10845361328125,-0.0004403524799272418,0.0010783849284052849,0.00008999602869153023
1761412717466466600,9.118466552734375,-0.0001356868597213179,0.0003191176801919937,-0.0010913822334259748
1761412717476480800,9.128480712890624,0.00023213180247694254,-0.001980664674192667,-0.000030345283448696136
1761412717486493700,9.13849365234375,-0.0008046368020586669,0.0007922183722257614,0.0006743271369487047
1761412717496506600,9.148506591796876,-0.00006116335862316191,0.0008792649023234844,-0.0020281351171433926
1761412717506520600,9.1585205078125,-0.0002981846919283271,0.00028165150433778763,-0.0003237121272832155
1761412717516533500,9.168533447265625,0.0002463211421854794,-0.0009192363359034061,-0.00023510819301009178
1761412717526546700,9.178546630859374,0.00022847799118608236,0.001687732059508562,-0.00019036699086427689
1761412717536561000,9.188560791015625,0.002287956653162837,0.00046221446245908737,0.0019893310964107513
1761412717546573600,9.198573486328126,0.0012802165001630783,0.0013258778490126133,0.00033524190075695515
1761412717556587800,9.208587890625,0.0015659414930269122,0.0007042298093438148,-0.0007250552298501134
1761412717566600400,9.218600341796876,0.0006460855947807431,-0.00003053667023777962,0.00045765470713377
1761412717576613600,9.228613525390625,-0.0006593303405679762,0.0010595349594950676,-0.0003056870773434639
1761412717586627800,9.2386279296875,0.0011308465618640184,0.00006138207390904427,-0.000960824778303504
1761412717596640500,9.248640625,0.0017915104981511831,-0.0020264526829123497,0.0016464600339531898
1761412717606654700,9.25865478515625,-0.00239524501375854,0.0016188821755349636,-0.001420436310581863
1761412717616667600,9.268667724609376,-0.0003853244998026639,-0.0009267055429518223,-0.0005784513195976615
1761412717626680600,9.2786806640625,-0.00020263163605704904,0.001367873977869749,-0.0006596777820959687
1761412717636694800,9.28869482421875,0.001430814852938056,-0.0036875614896416664,-0.0004245608579367399
1761412717646707700,9.298707763671874,-0.0008296762825921178,-0.0010118833743035793,0.0017038374207913876
1761412717656720600,9.308720703125,-0.0006254062755033374,0.000722675584256649,0.0027999556623399258
1761412717666734600,9.318734619140624,0.002223377116024494,-0.001085077878087759,0.002731778658926487
1761412717676747500,9.32874755859375,0.00041914015309885144,-0.001045802142471075,0.000008261995390057564
1761412717686761700,9.33876171875,0.0015709573635831475,-0.0004415307193994522,0.0016967062838375568
1761412717696774700,9.348774658203125,0.0020316585432738066,-0.00048782024532556534,0.0003615797031670809
1761412717706787600,9.35878759765625,0.001104345778003335,0.0004378943704068661,0.0018825111910700798
1761412717716801500,9.368801513671874,0.001972389407455921,0.000563155859708786,0.0010142438113689423
1761412717726814700,9.378814697265625,0.00044160441029816866,0.00022227130830287933,-0.00018843961879611015
1761412717736827600,9.38882763671875,-0.0007506066467612982,0.0015251906588673592,0.0028184251859784126
1761412717746841600,9.398841552734375,0.000011590076610445976,-0.0013472950085997581,-0.0013771186349913478
1761412717756854800,9.408854736328125,0.0014902919065207243,0.001316532026976347,0.00022550951689481735
1761412717766868500,9.418868408203124,-0.0005201283493079245,0.0004605920985341072,0.0010092777665704489
1761412717776881700,9.428881591796875,-0.0017330488190054893,0.0007115141488611698,0.0000015995465219020844
1761412717786894600,9.43889453125,0.001927199773490429,0.0007096501067280769,0.00022397353313863277
1761412717796908500,9.448908447265625,-0.0019023290369659662,0.0008145743049681187,0.0004115672782063484
1761412717806921700,9.458921630859376,0.0008308731485158205,-0.00017399108037352562,0.0009750921744853258
1761412717816935700,9.468935791015625,0.0033076852560043335,0.0005512046627700329,0.0004826383665204048
1761412717826948600,9.478948486328125,0.00031269429018720984,-0.00164696853607893,-0.0015855724923312664
1761412717836961800,9.4889619140625,0.00018139948952011764,0.0005140220746397972,-0.00111786846537143
1761412717846975500,9.4989755859375,0.0006639643106609583,0.0006343969143927097,0.001889106584712863
1761412717856988700,9.50898876953125,-0.0013632444897666574,0.00043159350752830505,0.0013042802456766367
1761412717867001900,9.519001953125,-0.00009691141895018518,-0.000883209053426981,-0.001265137572772801
1761412717877015600,9.529015625,0.0018599770264700055,0.0014050868339836597,-0.0004713096423074603
1761412717887028700,9.53902880859375,0.0015326746506616473,0.00022424105554819107,-0.0007075320463627577
1761412717897042700,9.549042724609375,-0.0020079684909433126,-0.00021558022126555443,0.0001998173538595438
1761412717907055600,9.5590556640625,0.00011989715858362615,0.000014783348888158798,-0.0009458744898438454
1761412717917068800,9.56906884765625,-0.00004121853271499276,-0.0007041757926344872,0.002124007325619459
1761412717927082800,9.579082763671876,0.0004344220506027341,-0.0015571864787489176,0.0022547682747244835
1761412717937095700,9.589095703125,-0.0016323337331414223,-0.0007603834383189678,-0.0004966856213286519
1761412717947108900,9.59910888671875,0.000513375096488744,-0.0006746295839548111,0.004135617054998875
1761412717957122600,9.60912255859375,0.0004999740049242973,0.0013911775313317776,-0.0008118469268083572
1761412717967135700,9.6191357421875,-0.001253451337106526,-0.0008653188124299049,0.0012734082993119955
1761412717977149700,9.629149658203126,-0.001683256239630282,0.0026494055055081844,0.000555842649191618
1761412717987162600,9.63916259765625,-0.0004419568576849997,0.000877337995916605,-0.00033312058076262474
1761412717997175800,9.64917578125,-0.0029273824766278267,0.026501912623643875,0.028496071696281433
1761412718007189800,9.659189697265624,-0.0034192681778222322,0.04868018627166748,0.0811651423573494
1761412718017202700,9.66920263671875,-0.006015006452798843,0.06211895868182182,0.09836651384830475
1761412718027216600,9.679216552734376,-0.003120150649920106,0.07847262918949127,0.07723379880189896
1761412718037229800,9.689229736328125,-0.0034481012262403965,0.04424244910478592,0.025978412479162216
1761412718047242800,9.69924267578125,0.0017258881125599146,-0.01850881800055504,-0.025829125195741653
1761412718057256700,9.709256591796875,-0.0007436589803546667,-0.06683152914047241,-0.06905051320791245
1761412718067269600,9.71926953125,0.0031176581978797913,-0.09906456619501114,-0.09754207730293274
1761412718077282600,9.729282470703126,0.009483544155955315,-0.07722774893045425,-0.09151287376880646
1761412718087296800,9.739296875,0.003776390105485916,-0.004808410536497831,-0.04584871232509613
1761412718097309700,9.749309814453126,-0.0027421668637543917,0.049349620938301086,0.027505792677402496
1761412718107323600,9.75932373046875,0.0015585720539093018,0.016855327412486076,0.0458642914891243
