time,seconds_elapsed,z,y,x
1761412856008270600,0.0732705078125,-0.001856206450611353,-0.026607001200318336,0.0394190177321434
1761412856018283500,0.083283447265625,-0.0002604403125587851,-0.023959020152688026,-0.0004455739399418235
1761412856028296700,0.093296630859375,0.0038383614737540483,0.011125540360808372,-0.036302078515291214
1761412856038309600,0.1033095703125,0.0016279378905892372,0.02048548497259617,-0.03767414018511772
1761412856048322600,0.113322509765625,0.0016402984037995338,-0.0010294083040207624,-0.005067246034741402
1761412856058335500,0.12333544921875,-0.0006281821406446397,-0.01853489875793457,0.022302059456706047
1761412856068348700,0.1333486328125,0.0005586320767179132,-0.008031672798097134,0.023665281012654305
1761412856078361600,0.143361572265625,0.0008419924415647984,0.009275678545236588,0.0008483820129185915
1761412856088374500,0.15337451171875,0.00019420793978497386,0.011775834485888481,-0.014058220200240612
1761412856098387500,0.163387451171875,0.0031082388013601303,-0.00361830135807395,-0.014473939314484596
1761412856108400600,0.173400634765625,0.0005976645625196397,-0.012347010895609856,-0.0034404462203383446
1761412856118413600,0.18341357421875,0.00013960088836029172,-0.003366299672052264,0.01099974475800991
1761412856128425500,0.193425537109375,0.0007975990301929414,0.008388970047235489,0.014939121901988983
1761412856138438700,0.203438720703125,0.0008676401921547949,0.004282109439373016,0.003719224827364087
1761412856148451600,0.21345166015625,0.00024617998860776424,-0.0017002313397824764,-0.008925799280405045
1761412856158464800,0.22346484375,-0.000953574082814157,-0.006967165041714907,-0.011641690507531166
1761412856168477400,0.2334775390625,0.0006563415518030524,-0.0005086376331746578,0.0026574728544801474
1761412856178490600,0.24349072265625,-0.0008480781107209623,0.006464582867920399,0.014367125928401947
1761412856188503600,0.253503662109375,-0.001214876538142562,0.007227723021060228,0.010009707883000374
1761412856198516500,0.2635166015625,0.0007830269169062376,-0.0006349938921630383,-0.002625393681228161
1761412856208529700,0.27352978515625,-0.0010200836695730686,-0.004221520386636257,-0.006773460190743208
1761412856218542600,0.28354248046875,-0.0016318117268383503,-0.0007130722515285015,-0.006973729934543371
1761412856228555800,0.2935556640625,-0.002053540665656328,0.003827303647994995,0.00037373905070126057
1761412856238568400,0.303568359375,-0.000378146069124341,0.000798489898443222,0.006665457040071487
1761412856248581600,0.31358154296875,-0.0007802486652508378,-0.0008014417253434658,0.002626892412081361
1761412856258594600,0.323594482421875,-0.0007568128639832139,0.0014191018417477608,-0.0032642860896885395
1761412856268607700,0.333607666015625,0.0003045032499358058,0.00022576656192541122,-0.005709500052034855
1761412856278620400,0.343620361328125,0.0003156884922645986,0.001076380256563425,-0.005274871829897165
1761412856288633600,0.353633544921875,-0.00032165233278647065,0.0012670354917645454,0.0007227323949337006
1761412856298646800,0.363646728515625,0.0005497339880093932,-0.0048577021807432175,0.004220527596771717
1761412856308659500,0.373659423828125,0.0005663614138029516,0.0030049667693674564,0.0009156186133623123
1761412856318671600,0.383671630859375,-0.0005676125874742866,0.0028238720260560513,-0.0028676679357886314
1761412856328684500,0.3936845703125,0.0011265339562669396,0.00041822390630841255,-0.004436320625245571
1761412856338697700,0.40369775390625,-0.00037468993104994297,-0.002135480986908078,-0.0028706484008580446
1761412856348710700,0.413710693359375,0.00009887776104733348,0.000595548190176487,0.0011998084373772144
1761412856358723600,0.4237236328125,0.00048130773939192295,-0.001525925938040018,-0.0002076723612844944
1761412856368736500,0.433736572265625,0.0018112794496119022,0.0009610038250684738,-0.00017995527014136314
1761412856378749700,0.443749755859375,-0.0019064935622736812,0.0010097399353981018,-0.003220219863578677
1761412856388762400,0.453762451171875,-0.00019058416364714503,0.0023278342559933662,-0.004079503007233143
1761412856398775600,0.463775634765625,-0.0020904832053929567,-0.0006439872086048126,-0.005017201881855726
1761412856408788700,0.473788818359375,-0.001573141198605299,-0.0019172311294823885,0.0022101353388279676
1761412856418801700,0.4838017578125,0.0004948034766130149,-0.0004250616766512394,-0.0004889783449470997
1761412856428814600,0.493814697265625,-0.0027065477333962917,0.003255256451666355,0.0036382421385496855
1761412856438827500,0.50382763671875,-0.0008697655866853893,0.0020001083612442017,-0.0011623721802607179
1761412856448840700,0.5138408203125,-0.0004430404515005648,-0.0009039812721312046,-0.00036148272920399904
1761412856458853400,0.523853271484375,0.00038040889194235206,-0.000551112461835146,0.0007381364703178406
1761412856468866600,0.533866455078125,-0.0013499335618689656,-0.0017525518778711557,-0.0006606326205655932
1761412856478879700,0.543879638671875,-0.00044605665607377887,0.00043416954576969147,0.0017785567324608564
1761412856488891600,0.5538916015625,-0.0006349094910547137,-0.00005514873191714287,-0.0005054898792877793
1761412856498904800,0.56390478515625,0.0002873432240448892,0.001764056272804737,-0.004939120262861252
1761412856508917500,0.57391748046875,-0.0013700290583074093,-0.0020771108102053404,-0.0013900049962103367
1761412856518930700,0.5839306640625,0.001600194489583373,-0.0011908106971532106,0.0012816782109439373
1761412856528943600,0.593943603515625,-0.00009296205826103687,0.00040374835953116417,0.0006294252816587687
1761412856538956500,0.60395654296875,-0.0005821847589686513,0.0016554337926208973,0.0022153377067297697
1761412856548969500,0.613969482421875,0.00044085137778893113,-0.00106503302231431,0.0018907713238149881
1761412856558982700,0.623982666015625,0.000482130388263613,-0.00035210466012358665,-0.002618226455524564
1761412856568995600,0.63399560546875,-0.0006465173210017383,-0.0008735517039895058,-0.0013971670996397734
1761412856579008500,0.644008544921875,-0.0006361309788189828,0.0004620235413312912,-0.0010456298477947712
1761412856589021700,0.654021728515625,0.0015731926541775465,0.00030027376487851143,0.0001758430153131485
1761412856599034600,0.66403466796875,-0.0016010289546102285,-0.0007157223299145699,0.0013132791500538588
1761412856609047600,0.674047607421875,-0.0010941601358354092,0.0014237859286367893,-0.0004654743243008852
1761412856619060500,0.684060546875,0.00046485435450449586,-0.0029640384018421173,-0.0004140752134844661
1761412856629073700,0.69407373046875,-0.0011587073095142841,-0.0022815256379544735,-0.00012455787509679794
1761412856639086600,0.704086669921875,-0.0010037112515419722,0.0000940137542784214,-0.00019007176160812378
1761412856649098800,0.7140986328125,0.0017678553704172373,0.002151533029973507,-0.0023548398166894913
1761412856659112000,0.72411181640625,0.0016591984312981367,0.0019432734698057175,-0.0006469546351581812
1761412856669125000,0.734125,0.0002671062247827649,-0.0022156755439937115,-0.001707521267235279
1761412856679137000,0.744136962890625,-0.0017145519377663732,0.0029745586216449738,-0.0020662490278482437
1761412856689150000,0.75414990234375,-0.0028520203195512295,0.0010444093495607376,-0.0009976191213354468
1761412856699163000,0.764162841796875,-0.000750253617297858,0.0005892752669751644,0.0011954940855503082
1761412856709176000,0.774176025390625,-0.0009019785793498158,0.0023119645193219185,0.0024936154950410128
1761412856719189000,0.78418896484375,0.0007979170768521726,0.0009177997708320618,0.0012270158622413874
1761412856729202000,0.794201904296875,0.0007583519327454269,0.0010591652244329453,0.0016225685831159353
1761412856739214800,0.80421484375,0.0017085678409785032,-0.0011187680065631866,0.0016137801576405764
1761412856749228000,0.81422802734375,-0.00021419397671706975,0.001929015852510929,0.002088865265250206
1761412856759241000,0.824240966796875,-0.001028854981996119,0.000951369758695364,-0.000027016503736376762
1761412856769254000,0.83425390625,0.0010630522156134248,-0.0008036196231842041,0.0004335863050073385
1761412856779267000,0.84426708984375,-0.00022724931477569044,0.0016337055712938309,0.0007947110570967197
1761412856789280000,0.854280029296875,-0.0011134336236864328,0.00005307141691446304,-0.0016705032903701067
1761412856799293000,0.86429296875,0.002912467112764716,-0.0013629314489662647,-0.0005458503728732467
1761412856809305900,0.874305908203125,-0.0007125119445845485,-0.0031704672146588564,-0.0018840157426893711
1761412856819319000,0.884319091796875,-0.0011732387356460094,-0.00007906975224614143,-0.002701872494071722
1761412856829332000,0.89433203125,0.0011526909656822681,0.00035566743463277817,-0.0004191071493551135
1761412856839345000,0.904344970703125,0.0009843790903687477,-0.0022081576753407717,-0.0013123312965035439
1761412856849356800,0.914356689453125,0.0006488208309747279,-0.0011215880513191223,-0.002015139441937208
1761412856859370000,0.924369873046875,0.0008738579344935715,0.001432117074728012,-0.0014617347624152899
1761412856869383000,0.9343828125,0.0001359819434583187,0.0017194198444485664,0.0011488827876746655
1761412856879395800,0.944395751953125,0.000490448612254113,-0.001615922898054123,0.00017363321967422962
1761412856889409000,0.954408935546875,-0.00033655716106295586,-0.0003161733038723469,-0.000646870001219213
1761412856899422000,0.964421875,0.0006437524571083486,-0.00015984568744897842,0.001010681502521038
1761412856909435100,0.97443505859375,-0.0020025684498250484,0.0024022115394473076,0.000043552136048674583
1761412856919447800,0.98444775390625,-0.00040760121191851795,-0.0004689423367381096,0.001006284961476922
1761412856929461000,0.9944609375,-0.000333493750076741,-0.00027538416907191277,-0.0007233922369778156
1761412856939474000,1.004473876953125,0.0017000960651785135,0.004761984571814537,-0.00018862937577068806
1761412856949486800,1.01448681640625,0.00024376693181693554,0.0005994923412799835,0.001022052951157093
1761412856959500000,1.0245,-0.00007980712689459324,-0.0018298430368304253,0.0019549585413187742
1761412856969513000,1.034512939453125,0.0007208216702565551,-0.00005927355960011482,-0.0014437149511650205
1761412856979526100,1.044526123046875,0.0006225509569048882,0.001633165404200554,-0.0016514414455741644
1761412856989538800,1.054538818359375,0.000018505787011235952,-0.0002180458977818489,-0.0027418825775384903
1761412856999552000,1.064552001953125,-0.000005728972610086203,0.0022661504335701466,0.0008557818364351988
1761412857009565000,1.07456494140625,0.00006575539009645581,0.004013488534837961,0.00011145300231873989
1761412857019577000,1.0845771484375,-0.0007694119703955948,-0.0018145733047276735,0.0018718026112765074
1761412857029590000,1.094590087890625,-0.0022355439141392708,0.0012975153513252735,-0.00022109504789113998
1761412857039603000,1.10460302734375,-0.0022645723074674606,0.0012700851075351238,-0.001242151134647429
1761412857049616000,1.114615966796875,-0.00014483084669336677,0.0003516017459332943,0.0023737438023090363
1761412857059629000,1.124629150390625,-0.0010926498798653483,-0.0011730578262358904,0.0014528229366987944
1761412857069642000,1.13464208984375,-0.0021018050611019135,0.0024867882020771503,0.001975774532184005
1761412857079655000,1.144655029296875,-0.0019223080016672611,-0.0010030181147158146,0.0005246181972324848
1761412857089668000,1.154668212890625,-0.0014925820287317038,-0.0003490089438855648,0.0001410257536917925
1761412857099681000,1.164680908203125,-0.0003847070911433548,0.0019860509783029556,-0.0020606094039976597
1761412857109694000,1.17469384765625,-0.00032165562151931226,-0.0011567939072847366,-0.0016438278835266829
1761412857119707000,1.184706787109375,-0.0009336500661447644,0.0019718878902494907,0.0016286643221974373
1761412857129720000,1.194719970703125,-0.0008985589374788105,0.00011099036782979965,-0.000524845439940691
1761412857139733000,1.20473291015625,0.0012412909418344498,-0.00012230221182107925,-0.0016494982410222292
1761412857149746000,1.214745849609375,-0.000517357955686748,0.00013869768008589745,0.0012865641620010138
1761412857159759000,1.224759033203125,0.0017833468737080693,-0.0020682637114077806,0.0031049703247845173
1761412857169772000,1.23477197265625,0.0008495358051732183,-0.0014927075244486332,0.0014815512113273144
1761412857179785000,1.244784912109375,0.000646869302727282,0.0023419782519340515,-0.0009395284578204155
1761412857189798000,1.2547978515625,0.0012285574339330196,0.0021133585833013058,0.00006344262510538101
1761412857199810000,1.26481005859375,-0.0006577594904229045,0.001263277605175972,0.00026797340251505375
1761412857209823000,1.274822998046875,0.0018298879731446505,0.00013789627701044083,0.0019333483651280403
1761412857219836000,1.2848359375,0.0004772684187628329,-0.0009390856139361858,0.0010100305080413818
1761412857229848800,1.294848876953125,0.00010723771993070841,-0.001295597292482853,-0.0013175527565181255
1761412857239862000,1.304862060546875,0.00029658846324309707,-0.0001373887062072754,-0.0012107599759474397
1761412857249875000,1.314875,-0.002344944514334202,-0.002038549864664674,-0.0025549628771841526
1761412857259887900,1.324887939453125,-0.0021340223029255867,-0.0008925916627049446,-0.0026164818555116653
1761412857269901000,1.334901123046875,-0.002161357318982482,0.0028352956287562847,-0.001176030607894063
1761412857279914000,1.3449140625,-0.0006385617889463902,-0.00010856287553906441,-0.0005480572581291199
1761412857289927000,1.354927001953125,-0.0010631136829033494,0.001100948080420494,-0.0004736764822155237
1761412857299939800,1.36493994140625,-0.0007086468976922333,-0.00040240632370114326,-0.0009690244914963841
1761412857309953000,1.374953125,-0.0012484584003686905,-0.001634805230423808,-0.0008925579022616148
1761412857319966000,1.384966064453125,0.00016434857388958335,-0.0027658496983349323,0.003262772224843502
1761412857329979000,1.394978759765625,0.0027057162951678038,-0.000019516795873641968,0.0005915870424360037
1761412857339992000,1.404991943359375,-0.0005606509512290359,0.0011128592304885387,-0.0005615615518763661
1761412857350005000,1.4150048828125,0.00021921185543760657,-0.0016088206321001053,-0.0010664394358173013
1761412857360018000,1.425017822265625,-0.0021342234686017036,-0.00011159153655171394,0.0014012455940246582
1761412857370029800,1.43502978515625,-0.00033298422931693494,-0.0010365971829742193,-0.00015839538536965847
1761412857380043000,1.44504296875,-0.0006656130426563323,-0.00037027429789304733,0.0002541281282901764
1761412857390056000,1.455055908203125,0.0020036716014146805,0.0019147368147969246,-0.000216285465285182
1761412857400069000,1.465069091796875,0.0001495787873864174,0.0007570609450340271,0.0009400590788573027
1761412857410081800,1.475081787109375,0.000651272595860064,0.0004182257689535618,-0.0012117823353037238
1761412857420095000,1.485094970703125,0.0017199991270899773,-0.00016154441982507706,0.001468156697228551
1761412857430108200,1.495108154296875,0.0015126313082873821,-0.00016140704974532127,-0.0014943956630304456
1761412857440120800,1.505120849609375,0.0017986546736210585,0.00036723073571920395,0.00037141493521630764
1761412857450134000,1.515134033203125,-0.0008837675559334457,0.0016244151629507542,-0.0023850242141634226
1761412857460147000,1.52514697265625,-0.00009706977289170027,-0.0011194399558007717,0.0011404685210436583
1761412857470160100,1.53516015625,0.00035304331686347723,-0.0028403436299413443,0.002489727456122637
1761412857480172800,1.5451728515625,-0.0006885189795866609,0.00006942590698599815,0.0025650947354733944
1761412857490186000,1.55518603515625,0.0015690353466197848,0.0016670404002070427,0.0013897765893489122
1761412857500199200,1.56519921875,0.0013128394493833184,-0.0008874638006091118,0.0020068311132490635
1761412857510211800,1.5752119140625,-0.0017613369273021817,-0.0014320507179945707,0.00004026736132800579
1761412857520225000,1.58522509765625,-0.001666794647462666,-0.000193148385733366,0.0011936824303120375
1761412857530237000,1.59523681640625,0.001969649689272046,0.0017625880427658558,0.0009830722119659185
1761412857540250000,1.60525,-0.00014250335516408086,0.00144300889223814,0.0008187550120055676
1761412857550263000,1.615262939453125,0.0008748386753723025,0.0007908958941698074,-0.001551737543195486
1761412857560276000,1.62527587890625,-0.001117472187615931,0.00034721335396170616,-0.0026204639580100775
1761412857570289000,1.635288818359375,-0.00029675578116439283,-0.0024474048987030983,-0.0016886802623048425
1761412857580302000,1.645302001953125,-0.000676522555295378,0.0006336062215268612,0.0016956645995378494
1761412857590314800,1.655314697265625,-0.0005335605819709599,-0.00046985363587737083,-0.0022453221026808023
1761412857600328000,1.665327880859375,0.0013610122259706259,-0.00016145966947078705,0.002428525360301137
1761412857610341000,1.675341064453125,0.0007551240269094706,0.0004350123926997185,-0.0014171788934618235
1761412857620354000,1.68535400390625,0.0002983918529935181,0.0006174389272928238,-0.0022001483011990786
1761412857630367000,1.695366943359375,-0.0014097196981310844,0.0008962089195847511,0.00007727392949163914
1761412857640380000,1.7053798828125,-0.0007561799138784409,-0.0007616085931658745,-0.00041860679630190134
1761412857650393600,1.7153935546875,-0.0005401232047006488,-0.0008905529975891113,-0.0017836436163634062
1761412857660406300,1.72540625,0.0007310035871341825,-0.0027361237443983555,-0.0009455468971282244
1761412857670419500,1.73541943359375,0.0003857736592181027,-0.0008391528390347958,0.0013225446455180645
1761412857680432400,1.745432373046875,-0.00013807014329358935,-0.00027589406818151474,-0.0008820201037451625
1761412857690445300,1.7554453125,-0.000002966495230793953,-0.001218169229105115,-0.0004174504429101944
1761412857700457200,1.765457275390625,0.0009477819548919797,0.002141408622264862,0.0008195878472179174
1761412857710470400,1.775470458984375,-0.001223202096298337,0.0018598604947328568,-0.0009024501778185368
1761412857720483300,1.7854833984375,0.0008652487304061651,0.000995664857327938,-0.00029365159571170807
1761412857730496500,1.79549658203125,0.0004395209834910929,0.0014481698162853718,-0.0024805846624076366
1761412857740509200,1.80550927734375,-0.001419631764292717,-0.001601416151970625,0.00011653010733425617
1761412857750522400,1.8155224609375,0.0010275670792907476,-0.00224983599036932,0.0010089820716530085
1761412857760535600,1.82553564453125,-0.0009066868806257844,0.0005757776089012623,-0.0016720220446586609
1761412857770548200,1.83554833984375,0.0004042955697514117,-0.0009392630308866501,-0.0017930258763954043
1761412857780561400,1.8455615234375,-0.002355538308620453,0.0011196266859769821,-0.0019373692339286208
1761412857790574300,1.85557421875,-0.0025459546595811844,0.0008893213234841824,-0.003851628862321377
1761412857800587500,1.86558740234375,0.0025553302839398384,-0.0010848802048712969,0.0003969122190028429
1761412857810600200,1.87560009765625,0.0023921835236251354,0.0011107353493571281,-0.0013284343294799328
1761412857820613400,1.88561328125,0.0005836308700963855,0.00006118370220065117,-0.0016070009442046285
1761412857830626600,1.89562646484375,-0.0021056963596493006,0.0009250505827367306,-0.002176231937482953
1761412857840639200,1.90563916015625,0.0008805061806924641,0.0014140070416033268,-0.0013706255704164505
1761412857850652400,1.91565234375,0.0007469225092791021,-0.00006787898018956184,-0.0031746304593980312
1761412857860664300,1.925664306640625,0.0009373385109938681,0.0010788780637085438,0.002346634864807129
1761412857870677500,1.935677490234375,0.00014819204807281494,-0.0010569405276328325,-0.000487444456666708
1761412857880690400,1.9456904296875,-0.00029016428743489087,-0.0022327261976897717,-0.000588378170505166
1761412857890703400,1.955703369140625,-0.00011421926319599152,0.0010183239355683327,-0.0011993047082796693
1761412857900716300,1.96571630859375,-0.000603708263952285,-0.0002288343384861946,0.0006590490229427814
1761412857910729500,1.9757294921875,0.001461714506149292,-0.0007368521764874458,-0.0017144805751740932
1761412857920742400,1.985742431640625,-0.0009322010446339846,0.003634993452578783,-0.0006617329781875014
1761412857930755300,1.99575537109375,0.00036471476778388023,-0.0018818480893969536,0.0003418801352381706
1761412857940768500,2.0057685546875,-0.0008566108299419284,0.0010372428223490715,-0.0025058379396796227
1761412857950781400,2.015781494140625,0.00033027102472260594,-0.0011878355871886015,-0.00011911173351109028
1761412857960794400,2.02579443359375,-0.0016226250445470214,0.0016580182127654552,-0.0019321918953210115
1761412857970807300,2.035807373046875,-0.0005660856841132045,-0.0010994013864547014,0.0007468254771083593
1761412857980820500,2.045820556640625,0.000280266918707639,0.0007094177417457104,-0.002961093559861183
1761412857990833400,2.05583349609375,0.0007595970528200269,-0.0016552091110497713,0.0014267335645854473
1761412858000846300,2.065846435546875,-0.0005059370305389166,-0.0014323024079203606,-0.0015128636732697487
1761412858010859500,2.075859619140625,-0.0008984674932435155,-0.0011868500150740147,-0.0005791625007987022
1761412858020871400,2.085871337890625,0.0005321826320141554,0.0017825746908783913,-0.0007208426250144839
1761412858030884400,2.09588427734375,0.001959680113941431,0.0007525747641921043,-0.0008901793044060469
1761412858040897300,2.105897216796875,-0.0011008246801793575,0.0016367440111935139,-0.0005258588353171945
1761412858050910500,2.115910400390625,0.0006055525736883283,0.002485028002411127,-0.0016260677948594093
1761412858060923400,2.12592333984375,0.000946703483350575,0.0007792734540998936,0.001210465095937252
1761412858070936300,2.135936279296875,0.0013336042175069451,-0.0007897331379354,0.00037961103953421116
1761412858080949200,2.14594921875,0.0006584929069504142,-0.00017587421461939812,0.00255514751188457
1761412858090962400,2.15596240234375,-0.001541785546578467,-0.0008031772449612617,0.0036017862148582935
1761412858100975400,2.165975341796875,-0.002395594958215952,0.0018091173842549324,0.0006893533281981945
1761412858110988300,2.17598828125,-0.00021308788564056158,-0.00024033896625041962,0.0007694470696151257
1761412858121001500,2.18600146484375,0.00022367056226357818,0.001944784540683031,0.001097282161936164
1761412858131014400,2.196014404296875,-0.0007222465937957168,0.0008306722156703472,0.0019018654711544514
1761412858141027300,2.20602734375,0.0010463586077094078,0.0015611774288117886,0.002203601412475109
1761412858151040300,2.216040283203125,-0.0017732989508658648,0.00044939760118722916,-0.0009555217111483216
1761412858161053400,2.226053466796875,-0.0001463739317841828,-0.00010933354496955872,0.000971541740000248
1761412858171066400,2.23606640625,-0.00018237417680211365,0.0013333801180124283,-0.0013020701007917523
1761412858181078500,2.24607861328125,-0.0011975711677223444,0.00005106814205646515,0.0001775822602212429
1761412858191091200,2.25609130859375,-0.001004646997898817,0.0014441865496337414,0.0002733066212385893
1761412858201104400,2.2661044921875,-0.00015616393648087978,-0.0011196385603398085,-0.00039807637222111225
1761412858211117300,2.276117431640625,0.0007193454075604677,0.000022944528609514236,0.000006047077476978302
1761412858221130500,2.286130615234375,-0.0014026614371687174,-0.0022489982657134533,-0.0007076802430674434
1761412858231143400,2.296143310546875,0.0015794767532497644,-0.0014228110667318106,0.00011632917448878288
1761412858241156400,2.30615625,0.00036827102303504944,0.0015415535308420658,0.00230411603115499
1761412858251169500,2.31616943359375,0.0005335096502676606,-0.001553376205265522,-0.0011836267076432705
1761412858261182200,2.32618212890625,-0.0011038018856197596,-0.0004508276470005512,0.0030601206235587597
1761412858271195400,2.3361953125,0.0015038582496345043,-0.0007858672179281712,0.0020545730367302895
1761412858281208300,2.346208251953125,0.0009962597396224737,-0.0004969141446053982,-0.001564396545290947
1761412858291221500,2.356221435546875,0.0012540076859295368,0.002093412447720766,0.002149346051737666
1761412858301234400,2.366234375,0.0007887535612098873,0.00013385852798819542,-0.0017726912628859282
1761412858311247400,2.376247314453125,-0.0016902352217584848,0.0005603525787591934,-0.00035406649112701416
1761412858321260500,2.386260498046875,0.0007588076987303793,0.0010503740049898624,-0.0012057455023750663
1761412858331273200,2.396273193359375,0.0006392307695932686,-0.0016322981100529432,-0.002575575839728117
1761412858341285400,2.406285400390625,0.0004874305450357497,0.0006638793274760246,-0.0018946054624393582
1761412858351298300,2.41629833984375,-0.0007572658360004425,0.00048359809443354607,0.0012696932535618544
1761412858361311500,2.4263115234375,-0.0003444759058766067,-0.0013012522831559181,0.000697379931807518
1761412858371324400,2.436324462890625,-0.0010946691036224365,0.001508035697042942,-0.0010426526423543692
1761412858381337300,2.44633740234375,-0.0013897474855184555,0.00006912974640727043,-0.0008857924258336425
1761412858391350300,2.456350341796875,-0.0007426704978570342,-0.00007358100265264511,-0.0027624676004052162
1761412858401363500,2.466363525390625,-0.0004702291334979236,-0.00114070950075984,0.0015779524110257626
1761412858411376400,2.47637646484375,0.0022498308680951595,-0.0006334688514471054,-0.000015126774087548256
1761412858421389300,2.486389404296875,-0.00031639114604331553,0.0007481789216399193,-0.0008486962178722024
1761412858431402500,2.496402587890625,-0.0004153598565608263,0.0007694833911955357,0.0009417077526450157
1761412858441415400,2.50641552734375,0.0010304702445864677,-0.0022707812022417784,-0.00005724397487938404
1761412858451428400,2.516428466796875,0.0019768241327255964,-0.0004159165546298027,0.0012763459235429764
1761412858461441300,2.526441162109375,0.0017158342525362968,0.00011698203161358833,-0.00019691488705575466
1761412858471454500,2.536454345703125,0.00015818944666534662,-0.0012040319852530956,-0.0009684754768386483
1761412858481467400,2.54646728515625,0.0008490133914165199,0.0014775050804018974,0.0011101216077804565
1761412858491480300,2.556480224609375,0.0006297913496382535,0.0016908692196011543,0.0022957571782171726
1761412858501492500,2.566492431640625,0.0014069017488509417,0.0015430636703968048,0.0013700423296540976
1761412858511505400,2.57650537109375,-0.0009661010699346662,-0.0003417343832552433,0.00013900361955165863
1761412858521518600,2.5865185546875,-0.000507238379213959,0.000586376991122961,0.0009267667774111032
1761412858531531300,2.59653125,-0.00028254874632693827,0.0016958019696176052,0.0006306655704975128
1761412858541544400,2.60654443359375,-0.00006843055598437786,0.0000065588392317295074,0.0006168170366436243
1761412858551557400,2.616557373046875,0.0005817678174935281,0.0010366039350628853,-0.0012764986604452133
1761412858561570300,2.6265703125,-0.0008997486438602209,-0.00017540063709020615,-0.001227762782946229
1761412858571583200,2.636583251953125,-0.0025788170751184225,0.0003766920417547226,-0.0006984083447605371
1761412858581596400,2.646596435546875,-0.00024588810629211366,-0.00028750067576766014,0.0024955205153673887
1761412858591609600,2.656609619140625,0.0005212911637499928,0.0007657711394131184,-0.00005848170258104801
1761412858601622300,2.666622314453125,-0.002082215156406164,0.00012634601444005966,0.00035803671926259995
1761412858611635500,2.676635498046875,-0.00016546164988540113,-0.0008682305924594402,-0.0001941306982189417
1761412858621648400,2.6866484375,0.0005517276003956795,-0.0014274944551289082,0.0003033475950360298
1761412858631661300,2.696661376953125,-0.0010009569814428687,0.0007884581573307514,0.003576163901016116
1761412858641674200,2.70667431640625,-0.0009226600523106754,0.003241229336708784,-0.0026990424375981092
1761412858651687700,2.716687744140625,-0.0018041564617305994,0.002227822318673134,0.0019219359382987022
1761412858661699600,2.726699462890625,0.0008486182778142393,0.00013724062591791153,0.0037762951105833054
1761412858671712500,2.73671240234375,0.002007657429203391,0.0001982431858778,-0.0007887533865869045
1761412858681725400,2.746725341796875,0.0005557020776905119,-0.00007286667823791504,-0.000272899167612195
1761412858691738600,2.756738525390625,0.0015324275009334087,0.0029088156297802925,-0.0000442753080278635
1761412858701751600,2.76675146484375,0.001188347116112709,-0.001292320666834712,0.0005240433383733034
1761412858711764500,2.776764404296875,-0.0009336166549474001,-0.00026739342138171196,-0.0003411265788599849
1761412858721777400,2.78677734375,0.00034576590405777097,0.0017190580256283283,-0.0020106621086597443
1761412858731790600,2.79679052734375,-0.0005307112587615848,0.0009627500548958778,-0.0020801734644919634
1761412858741803500,2.806803466796875,0.0014149942435324192,0.00007431954145431519,0.0004791244864463806
1761412858751816400,2.81681640625,-0.0003361501730978489,0.0011285892687737942,0.0019952161237597466
1761412858761829600,2.82682958984375,-0.000892750802449882,-0.00009992672130465508,0.00236219959333539
1761412858771842600,2.836842529296875,-0.0024462074507027864,-0.0003489060327410698,0.0022632908076047897
1761412858781855500,2.84685546875,-0.0010656248778104782,0.0016505951061844826,0.002441722434014082
1761412858791868400,2.856868408203125,-0.0003683322574943304,0.00029144855216145515,0.0024772947654128075
1761412858801881600,2.866881591796875,0.0011952095665037632,0.0006504426710307598,0.00211723567917943
1761412858811894500,2.87689453125,-0.00017075100913643837,0.0009544654749333858,-0.0014512080233544111
1761412858821906700,2.88690673828125,-0.0006711590103805065,0.0006207716651260853,-0.001510330126620829
1761412858831919400,2.89691943359375,-0.0001927490229718387,-0.002858203835785389,0.0026163579896092415
1761412858841932500,2.9069326171875,0.0007209815084934235,-0.0019162436947226524,0.0014200657606124878
1761412858851945500,2.916945556640625,0.0019703363068401814,-0.0012905492912977934,-0.002435090020298958
1761412858861958400,2.92695849609375,-0.0006829712656326592,-0.00004605390131473541,-0.00016394630074501038
1761412858871971600,2.9369716796875,-0.0007593412883579731,-0.0008695353753864765,-0.0014336552703753114
1761412858881984500,2.946984619140625,0.0002529261982999742,0.0007179751992225647,0.0021469646599143744
1761412858891997700,2.956997802734375,-0.0005194279947318137,0.0006136251613497734,0.004034917801618576
1761412858902010400,2.96701025390625,-0.0006890713702887297,-0.0021656500175595284,0.0023701759055256844
1761412858912023600,2.9770234375,0.0009347571758553386,-0.0019901259802281857,0.0023347672540694475
1761412858922036500,2.987036376953125,-0.000774193205870688,-0.0008241939358413219,0.003016802715137601
1761412858932049400,2.99704931640625,0.0012417337857186794,-0.00013716937974095345,-0.0018568022642284632
1761412858942062600,3.0070625,-0.0011122343130409718,0.002471130806952715,0.0015254123136401176
1761412858952075500,3.017075439453125,0.0004665721789933741,0.0006439671851694584,0.001684520160779357
1761412858962088700,3.027088623046875,0.00016137398779392242,-0.0031624888069927692,0.0020850596483796835
1761412858972101400,3.037101318359375,0.0019091472495347261,-0.001581236021593213,0.003076135413721204
1761412858982113500,3.047113525390625,0.0008761069620959461,0.002468632999807596,0.0031030334066599607
1761412858992126500,3.05712646484375,-0.000715967791620642,0.0012658508494496346,0.0015543366316705942
1761412859002139600,3.0671396484375,-0.0006216918700374663,-0.0007743970490992069,0.003585263155400753
1761412859012152300,3.07715234375,-0.0002980115241371095,-0.0010726205073297024,0.001730168703943491
1761412859022165500,3.08716552734375,-0.0009193270234391093,-0.002830306999385357,0.0024553476832807064
1761412859032178400,3.097178466796875,0.0004560684901662171,0.0015121428295969963,-0.0004240883281454444
1761412859042191600,3.107191650390625,0.0008198562427423894,-0.00003328965976834297,-0.00020837225019931793
1761412859052204500,3.11720458984375,0.0009626422543078661,-0.0003123288042843342,-0.0007235929369926453
1761412859062217500,3.127217529296875,-0.0012243455275893211,-0.0002492121420800686,-0.003771847113966942
1761412859072230700,3.137230712890625,-0.0005526680033653975,-0.0009590447880327702,-0.0037785908207297325
1761412859082243300,3.147243408203125,0.0018335243221372366,-0.0022259103134274483,-0.00033592269755899906
1761412859092256500,3.157256591796875,0.0009460219298489392,-0.001730507705360651,-0.0013083978556096554
1761412859102269400,3.16726953125,0.0010882345959544182,0.00018004421144723892,0.0009009605273604393
1761412859112282600,3.17728271484375,-0.0006698368233628571,-0.0023277404252439737,-0.0012193451402708888
1761412859122295600,3.187295654296875,-0.0012253723107278347,-0.0005154595710337162,-0.00043238105718046427
1761412859132308500,3.19730859375,-0.00001711660297587514,0.0005111224018037319,0.002266700379550457
1761412859142320400,3.2073203125,-0.0006972879637032747,0.0012592044658958912,0.0018379315733909607
1761412859152333600,3.21733349609375,0.00038684572791680694,-0.0014017100911587477,0.0010579025838524103
1761412859162346500,3.227346435546875,-0.0009913401445373893,0.0005471911281347275,-0.0006806089077144861
1761412859172359400,3.237359375,0.0003886335762217641,-0.0028371044900268316,0.0002640157472342253
1761412859182372600,3.24737255859375,0.00011938792886212468,0.0002010297030210495,0.000854971120133996
1761412859192385500,3.257385498046875,0.00044071133015677333,0.0001464751549065113,-0.0007408141391351819
1761412859202398500,3.2673984375,0.0008809317951090634,0.00036458810791373253,0.0010192689951509237
1761412859212411400,3.277411376953125,-0.0011213698890060186,0.00014518527314066887,0.00018875859677791595
1761412859222424600,3.287424560546875,-0.0005985914031043649,0.00029751798138022423,-0.00020538922399282455
1761412859232437500,3.2974375,-0.0009786535520106554,0.0019826358184218407,-0.0024245972745120525
1761412859242450400,3.307450439453125,0.0020376427564769983,0.0012236349284648895,0.00030913762748241425
1761412859252463600,3.317463623046875,-0.000801628571934998,-0.00045218318700790405,-0.0008233353728428483
1761412859262476500,3.3274765625,-0.0006026904447935522,-0.00018213829025626183,-0.001893659820780158
1761412859272489500,3.337489501953125,0.0004799136077053845,-0.0009399433620274067,0.00038893171586096287
1761412859282502400,3.34750244140625,0.0006010874058119953,0.004534184467047453,-0.0019463940989226103
1761412859292515600,3.357515625,0.0018947410862892866,0.0026271073147654533,-0.0011537872487679124
1761412859302527500,3.367527587890625,-0.00155192194506526,-0.0012589769903570414,-0.0018448776099830866
1761412859312540400,3.37754052734375,-0.0005206248024478555,0.0004442976787686348,-0.0026992892380803823
1761412859322553300,3.38755322265625,-0.0008125072345137596,0.0020965225994586945,-0.0005503845168277621
1761412859332566500,3.39756640625,0.0037159596104174852,0.002670919056981802,0.001593287568539381
1761412859342579700,3.407579833984375,0.0012701123487204313,-0.0006652227602899075,0.003443385474383831
1761412859352592400,3.41759228515625,-0.0009013914968818426,-0.0000675511546432972,-0.0003031704109162092
1761412859362605600,3.42760546875,0.0011084962170571089,-0.0000859270803630352,0.0013213579077273607
1761412859372618500,3.437618408203125,0.0014668776420876384,-0.0009869127534329891,0.002114752074703574
1761412859382631400,3.44763134765625,-0.0006793637876398861,0.000861054752022028,0.0020622878801077604
1761412859392644400,3.457644287109375,0.0004365348140709102,0.000789029523730278,0.000722518190741539
1761412859402657500,3.467657470703125,-0.0009088941151276231,0.00042391009628772736,-0.00009347428567707539
1761412859412670700,3.477670654296875,0.00214298814535141,-0.0009825467132031918,0.0012201613280922174
1761412859422683400,3.487683349609375,0.0016034315340220928,-0.00042434781789779663,-0.0003407173790037632
1761412859432696600,3.497696533203125,0.0007490686839446425,0.0026708021759986877,-0.0006253136089071631
1761412859442709500,3.50770947265625,-0.0010088839335367084,-0.00020727608352899551,0.0008990797214210033
1761412859452722400,3.517722412109375,0.00139699038118124,-0.0018235358875244856,-0.0036943135783076286
1761412859462734300,3.527734375,-0.0005886625149287283,0.0004995395429432392,-0.0003488503862172365
1761412859472747500,3.53774755859375,0.0010718635749071836,-0.0009515606798231602,-0.0008944011060521007
1761412859482760400,3.547760498046875,-0.0011992802610620856,0.0011850930750370026,-0.003801774000748992
1761412859492773600,3.557773681640625,-0.00014546365127898753,0.000573059543967247,-0.00010566925629973412
1761412859502786300,3.567786376953125,-0.00011030992027372122,-0.0032006395049393177,0.0022237978409975767
1761412859512799500,3.577799560546875,-0.0016097079496830702,0.00013747252523899078,-0.000940825673751533
1761412859522812700,3.587812744140625,0.0020526712760329247,-0.000023648608475923538,-0.0007821011822670698
1761412859532825300,3.597825439453125,0.0005586576880887151,0.0015665511600673199,0.0011793607845902443
1761412859542838500,3.607838623046875,0.0017224590992555022,-0.0017208550125360489,0.001952742924913764
1761412859552851500,3.6178515625,-0.0007411823025904596,0.000011452939361333847,0.00033446704037487507
1761412859562864600,3.62786474609375,0.0018348934827372432,-0.0013219916727393866,0.0005789452698081732
1761412859572877300,3.637877197265625,-0.0007370631210505962,0.0012332862243056297,0.0011715875007212162
1761412859582890500,3.647890380859375,-0.0003796669188886881,0.0026466259732842445,0.0030315392650663853
1761412859592903700,3.657903564453125,0.0009085661149583757,0.001078801229596138,-0.0006988930981606245
1761412859602916400,3.667916259765625,-0.0008246190845966339,0.0012431181967258453,-0.00238733715377748
1761412859612928500,3.677928466796875,-0.0007763209287077188,0.00152933644130826,0.0014146724715828896
1761412859622941400,3.68794140625,-0.0005467564333230257,-0.0010097213089466095,0.0010311773512512445
1761412859632954600,3.69795458984375,-0.0007946958066895604,0.00048705004155635834,0.0015321522951126099
1761412859642967600,3.707967529296875,0.0004964047111570835,-0.0006898008286952972,0.0012836791574954987
1761412859652980700,3.717980712890625,0.0001117283827625215,-0.0011246472131460905,0.001961380708962679
1761412859662993700,3.72799365234375,-0.0009812329662963748,0.001019730232656002,0.003515335265547037
1761412859673006800,3.7380068359375,-0.0009697118657641113,0.0010934248566627502,0.003003714606165886
1761412859683019500,3.74801953125,-0.0016376327257603407,0.00042337365448474884,0.004355801269412041
1761412859693032700,3.75803271484375,0.0008157871779985726,0.00011359946802258492,0.00002344418317079544
1761412859703045600,3.768045654296875,0.00017396541079506278,0.0021959254518151283,-0.0009691159939393401
1761412859713058800,3.778058837890625,0.0006103068590164185,0.0009623016230762005,-0.0007173735648393631
1761412859723071700,3.78807177734375,-0.0011210141237825155,-0.0009192219004034996,0.002707185223698616
1761412859733084700,3.798084716796875,-0.0005350839928723872,0.0010018120519816875,-0.00006930693052709103
1761412859743097900,3.808097900390625,-0.001531106187030673,0.0005181822925806046,0.0007086023688316345
1761412859753110500,3.818110595703125,0.0016300312709063292,-0.0019301576539874077,-0.0001304128672927618
1761412859763123700,3.828123779296875,-0.00012845397577621043,0.002141815610229969,-0.00287986034527421
1761412859773135600,3.838135498046875,-0.0005348101258277893,0.0028713447973132133,0.00033726030960679054
1761412859783148800,3.848148681640625,0.00031154247699305415,0.0007370873354375362,0.002480305964127183
1761412859793161700,3.85816162109375,-0.0002615079574752599,-0.0006430628709495068,0.002255162689834833
1761412859803174700,3.868174560546875,0.0001736525446176529,-0.0009021884761750698,0.000945153646171093
1761412859813187600,3.8781875,0.0008440881501883268,-0.0022005385253578424,0.0038037735503166914
1761412859823200800,3.88820068359375,-0.0005029386375099421,-0.0010247528553009033,-0.00048071995843201876
1761412859833213700,3.898213623046875,0.00021668506087735295,-0.0012589627876877785,0.000629333546385169
1761412859843226600,3.9082265625,-0.0007662876741960645,0.0005714278668165207,0.003318060887977481
1761412859853239800,3.91823974609375,-0.0018022652948275208,-0.00028086360543966293,0.001408721087500453
1761412859863252700,3.928252685546875,0.0005687469383701682,-0.0009101685136556625,0.00357227330096066
1761412859873265700,3.938265625,-0.0016536307521164417,0.0011019492521882057,0.00044332980178296566
1761412859883278600,3.948278564453125,0.0018231261055916548,-0.0012251208536326885,0.0007927366532385349
1761412859893291800,3.958291748046875,-0.0032056705094873905,0.0017203418537974358,0.0009687512647360563
1761412859903304700,3.9683046875,-0.00040136196184903383,0.001137642189860344,0.0027312312740832567
1761412859913317600,3.978317626953125,-0.0004958422505296767,0.0015544979833066463,0.00014104647561907768
1761412859923330800,3.988330810546875,0.0005497148376889527,-0.0009169154800474644,0.0007325345650315285
1761412859933342700,3.9983427734375,0.00016270170453935862,-0.0022038447204977274,0.0009926669299602509
1761412859943356000,4.00835595703125,-0.0003507557266857475,-0.00026825908571481705,-0.0012896620901301503
1761412859953368600,4.01836865234375,0.00019742234144359827,-0.00003698980435729027,0.0004059916827827692
1761412859963381800,4.0283818359375,-0.0005900743999518454,0.0011457200162112713,0.00042996020056307316
1761412859973394700,4.038394775390625,-0.0006262935930863023,0.00010721711441874504,-0.0022329953499138355
1761412859983407600,4.04840771484375,0.0004448298132047057,-0.000026206951588392258,-0.0022148857824504375
1761412859993420500,4.058420654296875,0.002600510371848941,0.0012052576057612896,-0.00394093245267868
1761412860003433700,4.068433837890625,0.0014132731594145298,-0.0006453730165958405,-0.0012878915295004845
1761412860013447000,4.078447021484375,0.00038562563713639975,-0.0003524012863636017,-0.00042673852294683456
1761412860023459600,4.08845947265625,-0.0007227819878607988,-0.0009478838182985783,0.000020672334358096123
1761412860033472800,4.09847265625,-0.00001466722460463643,0.00019374536350369453,-0.00003757490776479244
1761412860043485700,4.108485595703125,0.000177080393768847,0.00040679844096302986,-0.0020400057546794415
1761412860053498600,4.11849853515625,0.0009033000678755343,0.0002945149317383766,-0.0021989447996020317
1761412860063511600,4.128511474609375,-0.001503931125625968,-0.0009981831535696983,0.002104457002133131
1761412860073524700,4.138524658203125,0.000925291795283556,-0.0006250119768083096,-0.0006204803939908743
1761412860083536600,4.14853662109375,-0.0015104352496564388,0.0009792763739824295,0.003162007313221693
1761412860093549800,4.1585498046875,0.00042117154225707054,0.000519242137670517,0.00222220690920949
1761412860103562800,4.168562744140625,0.0007410171674564481,-0.0007012845017015934,-0.001739245024509728
1761412860113575700,4.17857568359375,-0.000935944146476686,0.0019218223169445992,0.00021078321151435375
1761412860123588900,4.1885888671875,0.00016420771135017276,0.0006730658933520317,0.0009119936730712652
1761412860133601800,4.198601806640625,-0.00030110403895378113,-0.001251771580427885,0.001798912649974227
1761412860143614700,4.20861474609375,0.0009756153449416161,-0.0018842723220586777,0.004580051638185978
1761412860153627600,4.218627685546875,-0.00031586718978360295,0.0018617776222527027,-0.0016411654651165009
1761412860163640800,4.228640869140625,-0.0007342498283833265,0.002577369101345539,0.002773290267214179
1761412860173653500,4.238653564453125,-0.0017923521809279919,0.0015596612356603146,0.0008715034928172827
1761412860183666700,4.248666748046875,0.0014364643720909953,0.001369244884699583,0.0008110497146844864
1761412860193680000,4.258679931640625,0.001920625800266862,-0.000592679250985384,0.0047364793717861176
1761412860203692800,4.26869287109375,-0.0010522608645260334,0.0032300218008458614,0.0013310955837368965
1761412860213705700,4.278705810546875,0.0020334224682301283,-0.0012757356744259596,0.0014145660679787397
1761412860223718700,4.28871875,0.0031226554419845343,0.0007751644589006901,-0.0034587522968649864
1761412860233731800,4.29873193359375,0.0016760092694312334,-0.0007395008578896523,-0.0015911704394966364
1761412860243743700,4.30874365234375,0.00029249710496515036,0.00042749615386128426,-0.003768304595723748
1761412860253756700,4.318756591796875,-0.002023485954850912,0.00039251474663615227,0.0017003996763378382
1761412860263769600,4.32876953125,-0.00014036474749445915,0.00017839623615145683,-0.0015585103537887335
1761412860273782800,4.33878271484375,-0.0001094698382075876,-0.0003818678669631481,-0.0016285046003758907
1761412860283795700,4.348795654296875,-0.00017578256665728986,-0.002566192764788866,-0.0023795159067958593
1761412860293808600,4.35880859375,0.0007556583732366562,-0.0002773525193333626,-0.0020564980804920197
1761412860303821800,4.36882177734375,-0.0010369152296334505,-0.0010640504769980907,0.0009874950628727674
1761412860313834800,4.378834716796875,-0.0012995386496186256,-0.0005862172693014145,-0.0011490390170365572
1761412860323847700,4.38884765625,-0.00047848618123680353,0.0010393764823675156,0.0015277042984962463
1761412860333860600,4.398860595703125,0.001717809122055769,0.0002656932920217514,0.002134028123691678
1761412860343873800,4.408873779296875,-0.0002966058673337102,-0.00020435499027371407,-0.0007384574273601174
1761412860353886700,4.41888671875,0.00042372854659333825,0.0026117106899619102,0.0010302022565156221
1761412860363899600,4.428899658203125,0.0004341148887760937,-0.0012789014726877213,-0.0008212273241952062
1761412860373912800,4.438912841796875,0.0014977292157709599,0.0006067655049264431,0.0025985112879425287
1761412860383925800,4.44892578125,-0.0003481077146716416,-0.0021149851381778717,-0.0003157861065119505
1761412860393938700,4.458938720703125,0.0004667095490731299,0.0006866743788123131,-0.0003349105827510357
1761412860403950600,4.46895068359375,0.000547136936802417,0.0018555354326963425,0.000279746949672699
1761412860413963800,4.4789638671875,0.0010579366935417056,0.00016332650557160378,-0.0003196077886968851
1761412860423976700,4.488976806640625,0.001991108525544405,-0.0004968713037669659,0.0009491222444921732
1761412860433990000,4.498989990234375,0.002366794040426612,-0.0011741998605430126,-0.0016342208255082369
1761412860444002600,4.50900244140625,-0.0007158148800954223,-0.0012746010906994343,-0.0008885356364771724
1761412860454015700,4.519015625,-0.0011052503250539303,-0.00014820648357272148,-0.002422470599412918
1761412860464029000,4.52902880859375,0.0008849299629218876,0.0005902880802750587,-0.003956983797252178
1761412860474041600,4.53904150390625,0.0002815095358528197,-0.0006576776504516602,0.0002182775642722845
1761412860484054800,4.5490546875,-0.0009107876685447991,0.00005311984568834305,0.0015061821322888136
1761412860494067700,4.559067626953125,-0.0010369864758104086,0.0003967643715441227,-0.00018453854136168957
1761412860504081000,4.569080810546875,-0.00006519892485812306,0.00038717733696103096,0.0010442438069730997
1761412860514093600,4.579093505859375,0.0004460982163436711,0.001672551967203617,-0.0007169021992012858
1761412860524106800,4.589106689453125,-0.003520946716889739,0.0006536263972520828,-0.0017392896115779877
1761412860534119700,4.59911962890625,-0.0006763191777281463,0.0003244844265282154,-0.0006835184758529067
1761412860544132600,4.609132568359375,0.0003612483269535005,-0.0033951527439057827,-0.0004736613482236862
1761412860554145800,4.619145751953125,-0.002085653366521001,-0.0023486027494072914,-0.002930715214461088
1761412860564157700,4.62915771484375,-0.0007652580970898271,-0.0010412568226456642,-0.0007748863426968455
1761412860574171000,4.6391708984375,0.00057415064657107,0.003012097906321287,0.00009819259867072105
1761412860584183800,4.649183837890625,0.0015603192150592804,-0.0003884928300976753,-0.0012078214203938842
1761412860594196700,4.65919677734375,-0.0016735977260395885,-0.001596563495695591,0.0009879779536277056
1761412860604209700,4.669209716796875,-0.0008120651473291218,0.0005909567698836327,0.0022945248056203127
1761412860614222800,4.679222900390625,-0.0008707157103344798,0.001306604128330946,-0.0007293218513950706
1761412860624235500,4.689235595703125,0.00244971364736557,-0.0007642698474228382,-0.0016973810270428658
1761412860634248700,4.699248779296875,0.0007650618790648878,0.0003453679382801056,-0.0010547133861109614
1761412860644261600,4.70926171875,0.0011898360680788755,-0.0002399948425590992,-0.0011508534662425518
1761412860654274000,4.719274169921875,0.0013583183754235506,-0.0003049666993319988,0.0017904848791658878
1761412860664287000,4.729286865234375,-0.0008931179763749242,0.00033099623396992683,0.0007193617057055235
1761412860674300000,4.7392998046875,0.000983201083727181,0.0008271858096122742,0.0013679927214980125
1761412860684312800,4.749312744140625,0.002937162294983864,0.000016786158084869385,0.002148831496015191
1761412860694326000,4.759325927734375,-0.000913607538677752,0.000533511396497488,0.003068614285439253
1761412860704338700,4.769338623046875,-0.0018174843862652779,0.0023231557570397854,0.0027964389882981777
1761412860714350800,4.779350830078125,-0.0004979351651854813,0.0017818431369960308,0.0038504686672240496
1761412860724363800,4.78936376953125,-0.00318053737282753,-0.0019521750509738922,0.00022324314340949059
1761412860734377000,4.799376953125,0.00040719308890402317,-0.000738904345780611,-0.00009071757085621357
1761412860744390000,4.809389892578125,-0.0006474187248386443,0.0008022668771445751,-0.00008725537918508053
1761412860754402800,4.81940283203125,-0.000520638539455831,-0.0005375915206968784,-0.0006002699956297874
1761412860764416000,4.829416015625,-0.002318538725376129,-0.0016023232601583004,0.0012911069206893444
1761412860774429000,4.839428955078125,0.000139787036459893,-0.00036316365003585815,-0.0002701221965253353
1761412860784441900,4.84944189453125,0.0006244823453016579,0.0004783952608704567,0.002176257548853755
1761412860794454800,4.859454833984375,-0.0021389208268374205,0.0017083496786653996,-0.002230881480500102
1761412860804468000,4.869468017578125,0.00033382425317540765,0.00018901657313108444,0.0010008644312620163
1761412860814481000,4.87948095703125,-0.0007133245235309005,-0.001086607575416565,0.002088644076138735
1761412860824493800,4.889493896484375,-0.0007282381993718445,-0.00022960221394896507,-0.0008450940949842334
1761412860834507000,4.899507080078125,-0.0008806724799796939,-0.000894094817340374,-0.004255823791027069
1761412860844520000,4.90952001953125,-0.0007552376482635736,0.0007197810336947441,0.0007605063728988171
1761412860854532900,4.919532958984375,0.0005849041044712067,-0.00010552583262324333,-0.001246263855136931
1761412860864544800,4.929544677734375,0.00038010708522051573,-0.0007918220944702625,-0.0012635743478313088
1761412860874558000,4.939557861328125,-0.002018486615270376,0.0008646990172564983,-0.00027834693901240826
1761412860884571000,4.94957080078125,0.00015731592429801822,0.0005903937853872776,-0.0014687798684462905
1761412860894584000,4.959583984375,-0.00044621736742556095,0.00031129131093621254,-0.0020406320691108704
1761412860904596700,4.9695966796875,0.001844633836299181,-0.0020037945359945297,-0.0006371460622176528
1761412860914610000,4.97960986328125,0.00036961922887712717,-0.0014735369477421045,-0.0011795111931860447
1761412860924622800,4.989622802734375,0.0008220903109759092,0.000013572163879871368,-0.0011097363894805312
1761412860934635800,4.9996357421875,-0.00007271248614415526,0.000740421935915947,0.00024331454187631607
1761412860944649000,5.00964892578125,-0.0011321180500090122,0.004612124990671873,-0.003362339222803712
1761412860954662000,5.019661865234375,-0.00009973128908313811,0.0007128696888685226,-0.000469073886051774
1761412860964675000,5.029675048828125,-0.00018921351875178516,-0.0009297681972384453,-0.0013439222238957882
1761412860974687700,5.039687744140625,-0.001106930896639824,0.0004010112024843693,-0.004989404231309891
1761412860984701000,5.049700927734375,-0.0013295712415128946,0.0004031420685350895,-0.0006503161275759339
1761412860994713900,5.0597138671875,-0.0002541552239563316,0.000012834090739488602,-0.00026522809639573097
1761412861004726800,5.069726806640625,-0.0006461724988184869,0.000634149182587862,-0.0017659193836152554
1761412861014738700,5.07973876953125,-0.0013402332551777363,-0.0022003138437867165,0.0014379739295691252
1761412861024751900,5.089751953125,-0.001035833964124322,-0.00004235468804836273,0.002239318797364831
1761412861034764800,5.099764892578125,0.00006359245162457228,-0.00011163344606757164,0.0003696929197758436
1761412861044778000,5.109778076171875,0.00006598926847800612,-0.0014298981986939907,0.00015903683379292488
1761412861054791000,5.119791015625,-0.0006203238153830171,-0.0012482330203056335,-0.0003326181322336197
1761412861064803800,5.129803955078125,0.0009309674496762455,0.0007637850940227509,0.0023579734843224287
1761412861074817000,5.139817138671875,0.0009856726974248886,0.00018359534442424774,0.0012472686357796192
1761412861084829700,5.14982958984375,0.0018277640920132399,-0.0016539858188480139,0.0007425996009260416
1761412861094843000,5.1598427734375,-0.00010838266462087631,-0.00037763360887765884,0.0017154673114418983
1761412861104855800,5.169855712890625,0.0014921771362423897,-0.0004942798987030983,-0.00041745835915207863
1761412861114869000,5.179868896484375,-0.00005176797276362777,-0.00029430678114295006,0.0006762384437024593
1761412861124882000,5.1898818359375,0.0009194868034683168,-0.0028962153010070324,0.0007809007074683905
1761412861134894800,5.199894775390625,-0.001307123340666294,0.0010179360397160053,0.000773449195548892
1761412861144908000,5.209907958984375,0.0004353829426690936,-0.0008212430402636528,0.001582517521455884
1761412861154920700,5.219920654296875,-0.0010650847107172012,-0.0028862482868134975,-0.000245892908424139
1761412861164934000,5.229933837890625,0.000017490237951278687,0.00030262069776654243,0.0010103201493620872
1761412861174945800,5.23994580078125,-0.0009176534367725253,-0.0010502925142645836,-0.00247381255030632
1761412861184959000,5.249958984375,-0.001455079298466444,-0.0010843807831406593,0.001301218057051301
1761412861194972000,5.259971923828125,-0.0021656693425029516,0.0011183791793882847,-0.000308802118524909
1761412861204984800,5.26998486328125,-0.0003733618650585413,-0.0009192051365971565,0.0006605884991586208
1761412861214997800,5.279997802734375,-0.0024571644607931376,0.001069772057235241,0.0005194384139031172
1761412861225011000,5.290010986328125,-0.00010559329530224204,0.0008697686716914177,-0.0014819272328168154
1761412861235024000,5.30002392578125,-0.0016048524994403124,-0.0004727928899228573,0.00006244471296668053
1761412861245036800,5.310036865234375,0.001351256389170885,0.0008960715495049953,0.0017599435523152351
1761412861255050000,5.320050048828125,-0.0010879032779484987,-0.0010689515620470047,0.0016478218603879213
1761412861265063000,5.33006298828125,-0.001980594824999571,-0.0002913083881139755,-0.0013668766478076577
1761412861275075800,5.340075927734375,0.0005085237207822502,0.00026042526587843895,0.0011392505839467049
1761412861285088800,5.3500888671875,0.00027922552544623613,0.0011579105630517006,0.001189584145322442
1761412861295102000,5.36010205078125,-0.00014358875341713428,-0.00022259866818785667,-0.00040394440293312073
1761412861305115000,5.370114990234375,-0.002734578214585781,0.0019281702116131783,0.0006333568599075079
1761412861315127800,5.3801279296875,0.0007136450731195509,-0.0010145320557057858,-0.0015904190950095654
1761412861325141000,5.39014111328125,0.0012486742343753576,0.0010214545764029026,-0.0014133189106360078
1761412861335153000,5.40015283203125,0.00020966626470908523,-0.00008154846727848053,0.0012443235609680414
1761412861345166000,5.410166015625,-0.0010755752446129918,-0.001052803359925747,-0.0013117785565555096
1761412861355178800,5.4201787109375,0.0009478742722421885,-0.0007383679039776325,-0.0015904816100373864
1761412861365192000,5.43019189453125,0.0008224394405260682,0.00027443235740065575,-0.000036793528124690056
1761412861375204900,5.440204833984375,0.000046714849304407835,0.000520145520567894,0.0011063094716519117
1761412861385217800,5.4502177734375,-0.0011386581463739276,-0.0009379354305565357,-0.0012591100530698895
1761412861395230700,5.460230712890625,-0.0004924244130961597,-0.0006470829248428345,0.0008757885079830885
1761412861405244000,5.470243896484375,-0.0010626071598380804,0.0018538916483521461,-0.0001346147619187832
1761412861415257000,5.480257080078125,-0.003012425499036908,-0.0010701380670070648,-0.001591172651387751
1761412861425269800,5.490269775390625,0.0030582500621676445,-0.002144723664969206,0.0023535017389804125
1761412861435283000,5.500282958984375,-0.0005788437556475401,-0.0007104268297553062,0.002193428110331297
1761412861445295900,5.5102958984375,0.001616666209883988,0.00008399412035942078,0.0008658424485474825
1761412861455308800,5.520308837890625,-0.0007838621968403459,-0.0008228207007050514,-0.0011455982457846403
1761412861465321700,5.53032177734375,-0.001893867738544941,-0.0019898179452866316,0.0002690728288143873
1761412861475335000,5.5403349609375,-0.002868396695703268,0.0011636498384177685,-0.0019667153246700764
1761412861485346800,5.550346923828125,0.00024350709281861782,0.000215830747038126,-0.0006713536567986012
1761412861495360000,5.560360107421875,-0.0028422465547919273,-0.00051073357462883,-0.00033961073495447636
1761412861505373000,5.570373046875,-0.0010760382283478975,-0.001575198955833912,0.0005512165371328592
1761412861515385900,5.5803857421875,-0.00034608819987624884,0.0003000013530254364,-0.0017279328312724829
1761412861525399000,5.59039892578125,-0.0014632842503488064,-0.00004434539005160332,0.0019855787977576256
1761412861535411700,5.60041162109375,0.001585507532581687,0.0022769980132579803,0.0018139879684895277
1761412861545425000,5.6104248046875,-0.00001318810973316431,0.00201947009190917,0.0008728269021958113
1761412861555437800,5.620437744140625,-0.000978530035354197,0.002752631437033415,-0.0006894059479236603
1761412861565451000,5.630450927734375,-0.00011886164429597557,-0.0006711282767355442,-0.00039113196544349194
1761412861575463700,5.640463623046875,0.0009078240254893899,-0.0008189622312784195,0.0011704606004059315
1761412861585476900,5.650476806640625,0.00026440428337082267,0.00032593077048659325,-0.0001661800779402256
1761412861595490000,5.660489990234375,0.0005636636051349342,-0.0020140830893069506,0.0032911014277487993
1761412861605502700,5.670502685546875,0.0014033582992851734,-0.00005958927795290947,-0.0003089597448706627
1761412861615516000,5.680515869140625,-0.0013022858183830976,0.0012722495011985302,0.0011219312436878681
1761412861625528800,5.69052880859375,0.00006817694520577788,-0.0012047567870467901,-0.0003177735488861799
1761412861635541000,5.700541015625,0.00021137628937140107,-0.000423298217356205,-0.0013958212221041322
1761412861645554000,5.710553955078125,-0.0017931850161403418,-0.0007444755174219608,0.0023160926066339016
1761412861655566800,5.72056689453125,0.00010298937559127808,0.0025078710168600082,-0.0019479722250252962
1761412861665579800,5.730579833984375,-0.0018347265431657434,0.0014639119617640972,-0.00018149730749428272
1761412861675593000,5.740593017578125,-0.002062809420749545,0.00006887875497341156,-0.00036738556809723377
1761412861685606000,5.75060595703125,0.0003574712900444865,-0.0011929268948733807,-0.0005388930439949036
1761412861695618800,5.760618896484375,0.000287971633952111,0.0015094922855496407,0.00004758499562740326
1761412861705631700,5.7706318359375,0.00198493804782629,0.0012237350456416607,0.0005650371313095093
1761412861715645000,5.78064501953125,-0.0011379041243344545,0.00013856776058673859,0.0020449829753488302
1761412861725657900,5.790657958984375,0.0011907638981938362,-0.0002827444113790989,0.0024806761648505926
1761412861735670800,5.8006708984375,-0.000595396850258112,0.0015473002567887306,-0.0007677186513319612
1761412861745684000,5.81068408203125,-0.000696596980560571,0.00030839769169688225,-0.00027929479256272316
1761412861755697000,5.82069677734375,0.00157601956743747,0.0023140828125178814,-0.0026632901281118393
1761412861765709800,5.830709716796875,0.001695329206995666,-0.002571485936641693,-0.0010757797863334417
1761412861775722800,5.84072265625,0.003159880405291915,-0.0014363192021846771,-0.0014053654158487916
1761412861785735000,5.85073486328125,0.0006735531496815383,-0.00006159534677863121,-0.0006903067696839571
1761412861795747800,5.860747802734375,-0.00257278373464942,0.0018084603361785412,-0.00048683304339647293
1761412861805760800,5.8707607421875,0.0009077013237401843,0.0008790167048573494,-0.000799221801571548
1761412861815773700,5.880773681640625,0.0010598821099847555,0.0015996540896594524,-0.0009139933390542865
1761412861825787000,5.890786865234375,0.0016833280678838491,-0.0011388745624572039,-0.0018215986201539636
1761412861835799800,5.9007998046875,-0.0006831623031757772,-0.0012399470433592796,0.0021543039474636316
1761412861845812700,5.910812744140625,-0.0011950219050049782,-0.0010615154169499874,0.0021068996284157038
1761412861855826000,5.920825927734375,0.00003422278678044677,-0.000106004998087883,0.0010715234093368053
1761412861865838800,5.9308388671875,-0.0009998827008530498,0.0007579242810606956,0.0010986875277012587
1761412861875851800,5.940851806640625,-0.0007020559278316796,0.0027496106922626495,-0.0003202776424586773
1761412861885864700,5.95086474609375,0.001497981371358037,0.00007925927639007568,-0.00007659825496375561
1761412861895878000,5.9608779296875,0.0006184286903589964,0.0017204205505549908,0.00010444340296089649
1761412861905890800,5.970890869140625,-0.0005176758859306574,-0.0011725714430212975,-0.0018868022598326206
1761412861915903700,5.98090380859375,0.0007846973603591323,0.0003863144665956497,-0.0005321819335222244
1761412861925917000,5.9909169921875,0.0006512730615213513,0.00042546307668089867,-0.0012187449028715491
1761412861935928800,6.0009287109375,0.002211082261055708,0.00005413871258497238,0.0028062902856618166
1761412861945942000,6.01094189453125,0.00041371473344042897,0.0035021333023905754,-0.004122988320887089
1761412861955954700,6.02095458984375,0.0011576792458072305,0.000009103678166866302,-0.00021102302707731724
1761412861965968000,6.0309677734375,0.0017694073030725121,0.0009550582617521286,-0.0014342128997668624
1761412861975980800,6.040980712890625,0.0004735643742606044,0.0011188527569174767,0.0006313063204288483
1761412861985994000,6.050993896484375,0.00002349016722291708,-0.0006721233949065208,0.00034341844730079174
1761412861996006700,6.061006591796875,-0.001142093213275075,-0.0019389986991882324,-0.00038436963222920895
1761412862006019800,6.071019775390625,0.0008166616316884756,0.0006400062702596188,0.0004947397392243147
1761412862016033000,6.081032958984375,-0.001708397176116705,0.000931949820369482,-0.0018667930271476507
1761412862026045700,6.091045654296875,-0.0013944105012342334,0.0011367471888661385,-0.00024599325843155384
1761412862036059000,6.101058837890625,0.0008392046438530087,0.001554995309561491,0.00023083249107003212
1761412862046071800,6.11107177734375,0.00041443045483902097,0.002581111155450344,-0.001039761584252119
1761412862056085000,6.1210849609375,-0.0004380819445941597,-0.00011171121150255203,0.0003680810332298279
1761412862066097700,6.13109765625,0.0006956257275305688,-0.0002853493206202984,-0.0008638972649350762
1761412862076110800,6.14111083984375,-0.0005874554626643658,0.001905136276036501,-0.00020939437672495842
1761412862086122800,6.151122802734375,0.00014251703396439552,0.0001871311105787754,-0.000913001480512321
1761412862096136000,6.161135986328125,-0.0006285998388193548,-0.00018574437126517296,-0.0002608045469969511
1761412862106148900,6.17114892578125,-0.0019884100183844566,-0.001327707665041089,0.0021725259721279144
1761412862116161800,6.181161865234375,-0.0016563741955906153,0.00009318580850958824,0.0013019733596593142
1761412862126175000,6.191175048828125,-0.0012129577808082104,0.0016974741593003273,-0.0007230942137539387
1761412862136188000,6.20118798828125,0.00041979143861681223,-0.0009429585188627243,-0.002916173543781042
1761412862146200800,6.211200927734375,0.0004067419213242829,0.0005830330774188042,-0.0014152160147204995
1761412862156213800,6.2212138671875,-0.000009723124094307423,0.0003009350039064884,-0.00012612389400601387
1761412862166227000,6.23122705078125,0.0005817649071104825,-0.00008042948320508003,-0.0006632835138589144
1761412862176239600,6.241239501953125,0.0006371675408445299,0.0005512824282050133,0.0012031712103635073
1761412862186252800,6.251252685546875,0.0020872587338089943,-0.001463398803025484,0.004003218375146389
1761412862196266000,6.261265869140625,0.0008708470268175006,0.0011850600130856037,-0.001687939977273345
1761412862206279000,6.27127880859375,-0.0010729943169280887,0.0023390077985823154,-0.00005222647450864315
1761412862216291800,6.281291748046875,-0.0013620973331853747,-0.00017320364713668823,-0.00047357124276459217
1761412862226304800,6.2913046875,0.0006200934294611216,0.00004970282316207886,0.0001685169991105795
1761412862236317000,6.30131689453125,0.001645588898099959,-0.0000401628203690052,-0.00018313992768526077
1761412862246329900,6.311329833984375,0.0005172075470909476,-0.0002670641988515854,0.0013135564513504505
1761412862256342800,6.3213427734375,0.0013742637820541859,0.0012209853157401085,-0.000400627963244915
1761412862266355700,6.331355712890625,-0.0024950429797172546,-0.0005801105871796608,0.0019019413739442825
1761412862276369000,6.341368896484375,-0.0006453985115513206,-0.003285542130470276,-0.0010115974582731724
1761412862286382000,6.351382080078125,-0.0018888284685090184,0.0010024136863648891,0.0033314856700599194
1761412862296394800,6.361394775390625,-0.00073573412373662,0.0019223918206989765,-0.001188503229059279
1761412862306408000,6.371407958984375,-0.0005075012450106442,0.001013454981148243,-0.000971455592662096
1761412862316420900,6.3814208984375,0.0005534057854674757,0.00041856616735458374,0.000330495648086071
1761412862326433800,6.391433837890625,0.00004980206722393632,0.0003256220370531082,0.00032357126474380493
1761412862336446700,6.40144677734375,0.0014678817242383957,-0.0009263246320188046,0.0011565207969397306
1761412862346460000,6.4114599609375,0.0008100809063762426,0.0033882628194987774,0.0014025969430804253
1761412862356472800,6.421472900390625,0.00012036215048283339,-0.0010121720843017101,-0.0012875905958935618
1761412862366485800,6.43148583984375,0.003818427911028266,-0.0005336017347872257,0.0007294875103980303
1761412862376497700,6.44149755859375,0.00042537436820566654,-0.00048614852130413055,0.0009555069264024496
1761412862386510800,6.4515107421875,0.0005470807664096355,-0.00048002321273088455,0.0011366019025444984
1761412862396524000,6.46152392578125,-0.00021605382789857686,0.000989456195384264,-0.00051629648078233
1761412862406536700,6.47153662109375,0.0003152468125335872,0.0004120827652513981,-0.001647074706852436
1761412862416550000,6.4815498046875,0.0006345065194182098,-0.0007721888832747936,-0.0006885696202516556
1761412862426562800,6.491562744140625,-0.0004968043649569154,-0.0006861686706542969,0.0013024096842855215
1761412862436576000,6.501575927734375,0.0007643069257028401,-0.0022986424155533314,-0.00037939567118883133
1761412862446588700,6.511588623046875,0.00038533908082172275,0.0012731892056763172,-0.001276880968362093
1761412862456601900,6.521601806640625,0.0003434044774621725,-0.0012417940888553858,0.0008247196674346924
1761412862466614800,6.53161474609375,0.0011633917456492782,0.00008738972246646881,-0.0033399316016584635
1761412862476627700,6.541627685546875,-0.0009909450309351087,0.00030637718737125397,-0.0037026575300842524
1761412862486641000,6.551640869140625,-0.0021385010331869125,0.001924780197441578,0.001002881908789277
1761412862496653800,6.56165380859375,0.0004325414774939418,0.0010205390863120556,-0.0016312587540596724
1761412862506667000,6.5716669921875,0.0012386803282424808,-0.00023034773766994476,-0.0010845117503777146
1761412862516679700,6.5816796875,0.0004819766036234796,0.0006307405419647694,-0.0006421594880521297
1761412862526692900,6.59169287109375,-0.00210794759914279,0.0010986579582095146,-0.0005324372323229909
1761412862536704800,6.601704833984375,0.002043731277808547,0.0007153130136430264,-0.0005480090621858835
1761412862546718000,6.611718017578125,-0.0008287540986202657,-0.0021691566798835993,0.0006698544602841139
1761412862556730600,6.621730712890625,-0.0001367988297715783,-0.0009429561905562878,-0.0018562856130301952
1761412862566743800,6.631743896484375,0.00022592372260987759,0.0011875727213919163,-0.0006019367137923837
1761412862576757000,6.641757080078125,0.0018495952244848013,-0.002440580166876316,0.0010069019626826048
1761412862586770000,6.65177001953125,0.0006711464957334101,-0.0006956770084798336,0.00022659567184746265
1761412862596782800,6.661782958984375,0.00021816435037180781,0.0012788483873009682,-0.0017315451987087727
1761412862606795800,6.671795654296875,0.0005212320829741657,-0.0005858968943357468,-0.0023113153874874115
1761412862616809000,6.68180908203125,0.0022144317626953125,-0.0001622573472559452,-0.0012234956957399845
1761412862626821600,6.691821533203125,0.0015060306759551167,0.002737659029662609,-0.0015244329115375876
1761412862636834800,6.701834716796875,0.0015215212479233742,-0.0030780809465795755,-0.001462483429349959
1761412862646847700,6.71184765625,-0.0010348472278565168,0.0005161212757229805,-0.0015833908692002296
1761412862656861200,6.721861083984375,0.00041510153096169233,0.0007117129862308502,-0.0006805004086345434
1761412862666874000,6.7318740234375,0.0006467965431511402,-0.0001988220028579235,0.0008889003656804562
1761412862676887000,6.741886962890625,0.0012056055711582303,0.0015236982144415379,0.001471549505367875
1761412862686899200,6.751899169921875,-0.0007661988493055105,-0.00009497115388512611,0.001981278182938695
1761412862696912100,6.761912109375,-0.0009321128018200397,0.0007881294004619122,-0.0006758441450074315
1761412862706925000,6.771925048828125,-0.0016154799377545714,0.00037187710404396057,-0.0020244689658284187
1761412862716938000,6.78193798828125,-0.00008631456876173615,-0.00031773047521710396,0.00008894619531929493
1761412862726951200,6.791951171875,0.0009661667281761765,0.001579771749675274,-0.0001496730837970972
1761412862736964000,6.801964111328125,-0.0018059468129649758,0.0002942867577075958,-0.00286098662763834
1761412862746977000,6.81197705078125,-0.0008048645686358213,0.0011960328556597233,-0.00009582657366991043
1761412862756990200,6.821990234375,-0.0016418383456766605,-0.0003423728048801422,0.0009895670227706432
1761412862767003100,6.832003173828125,-0.0017893773037940264,-0.0018198946490883827,-0.0020528282038867474
1761412862777016000,6.84201611328125,-0.0010368642397224903,0.001663840375840664,0.003223748877644539
1761412862787029000,6.852029052734375,0.0014111134223639965,0.00039457809180021286,-0.0029292183462530375
1761412862797042200,6.862042236328125,-0.0002255285799037665,-0.0020900096278637648,-0.0014134851517155766
1761412862807055000,6.87205517578125,-0.0005483037093654275,0.0011928691528737545,0.0021042844746261835
1761412862817068000,6.882068115234375,-0.0031613893806934357,0.0006898143328726292,-0.0009042113088071346
1761412862827081200,6.892081298828125,-0.0026439372450113297,-0.0012545597273856401,-0.0004666538443416357
1761412862837093000,6.902093017578125,-0.0010443379869684577,-0.0004523652605712414,-0.0005487451562657952
1761412862847106000,6.91210595703125,0.001542922924272716,0.000512231606990099,-0.0003660523798316717
1761412862857119000,6.922118896484375,0.0008926394511945546,0.0005168369971215725,-0.0003043308388441801
1761412862867132200,6.932132080078125,-0.0005891434266231954,0.0006406740285456181,0.000624313484877348
1761412862877145000,6.94214501953125,0.00027289235731586814,-0.00018046610057353973,-0.002250033663585782
1761412862887158300,6.952158203125,0.001277969335205853,-0.0008973889052867889,0.0008669300004839897
1761412862897171000,6.9621708984375,0.0007986862328834832,-0.00040603242814540863,-0.0020347090903669596
1761412862907184000,6.97218408203125,-0.0006636555772274733,0.002185489982366562,0.0009083501063287258
1761412862917197000,6.982197021484375,0.0009078483562916517,-0.0010336795821785927,-0.002838301006704569
1761412862927210000,6.9922099609375,-0.00011081073898822069,-0.001273897010833025,-0.0012121748877689242
1761412862937223200,7.00222314453125,0.000524367147590965,0.0003259950317442417,-0.0009849402122199535
1761412862947236000,7.012236083984375,-0.000454344495665282,0.0003718012012541294,0.00015462632291018963
1761412862957249300,7.022249267578125,-0.0007463071960955858,0.002269880846142769,0.002844923408702016
1761412862967262000,7.032261962890625,0.0006435965187847614,0.0005619958974421024,-0.0008310379926115274
1761412862977275100,7.042275146484375,0.0015037882840260863,-0.0015497319400310516,-0.0017332215793430805
1761412862987287000,7.052287109375,0.0003847280750051141,0.0019155731424689293,-0.0006762129487469792
1761412862997300200,7.06230029296875,0.0005930734914727509,-0.0014872050378471613,0.0016943104565143585
1761412863007313000,7.07231298828125,-0.0009664735989645123,0.0035355165600776672,-0.0016442281194031239
1761412863017326000,7.082326171875,0.0015732033643871546,-0.0023288161028176546,0.00035310513339936733
1761412863027339000,7.092339111328125,-0.0013256475795060396,-0.0010888483375310898,0.0009318101219832897
1761412863037352200,7.102352294921875,0.0007155825151130557,0.000230464618653059,0.0022763609886169434
1761412863047365000,7.112365234375,-0.0017909847665578127,0.0008432576432824135,-0.0031208014115691185
1761412863057378000,7.1223779296875,0.000026161433197557926,-0.00007669534534215927,-0.0016879234462976456
1761412863067391200,7.13239111328125,-0.0009126028744503856,0.00026791729032993317,0.002387245651334524
1761412863077404000,7.14240380859375,-0.0006151820416562259,-0.0003915117122232914,0.001640111906453967
1761412863087417000,7.1524169921875,-0.0008434149203822017,0.00136084808036685,-0.0032348043750971556
1761412863097430000,7.162429931640625,-0.0009919365402311087,-0.0004699109122157097,0.001291600987315178
1761412863107443200,7.172443115234375,0.0014994507655501366,-0.0008944189175963402,-0.0022655832581222057
1761412863117456100,7.1824560546875,-0.0017274296842515469,-0.0007517491467297077,-0.00006068381480872631
1761412863127469000,7.192468994140625,-0.0008310097036883235,0.0004986049607396126,-0.002002927241846919
1761412863137481000,7.20248095703125,-0.0011554560624063015,-0.001002578530460596,0.000176179688423872
1761412863147494100,7.212494140625,0.000289308896753937,-0.0005634231492877007,0.002282740082591772
1761412863157507000,7.222507080078125,-0.0009463272290304303,0.0005533252842724323,-0.0012478061253204942
1761412863167520000,7.23252001953125,-0.0006374005461111665,-0.0003918306902050972,-0.00023713638074696064
1761412863177533200,7.242533203125,0.000053005816880613565,-0.0001801629550755024,-0.0006414311937987804
1761412863187546000,7.252546142578125,0.00020107754971832037,-0.002597514307126403,0.0020957658998668194
1761412863197559000,7.26255908203125,-0.00019322920707054436,-0.0021795565262436867,-0.0005710686091333628
1761412863207572000,7.272572021484375,0.0002728239633142948,-0.004719146993011236,-0.0006365823792293668
1761412863217585200,7.282585205078125,-0.0013729827478528023,0.00010150671005249023,-0.00040267128497362137
1761412863227598000,7.29259814453125,-0.000014770543202757835,-0.0014431269373744726,-0.0014996274840086699
1761412863237611000,7.302611083984375,-0.00017038299120031297,0.0001582615077495575,0.00012147193774580956
1761412863247624200,7.312624267578125,0.0010568015277385712,0.00022404175251722336,-0.0023147878237068653
1761412863257637000,7.32263720703125,-0.0017873863689601421,0.00031000981107354164,0.00010904902592301369
1761412863267650000,7.332650146484375,0.0014685941860079765,-0.0004468606784939766,-0.000026505906134843826
1761412863277663000,7.3426630859375,0.0008422655519098043,-0.0019597301725298166,0.004422662779688835
1761412863287675100,7.352675048828125,0.0018595930887386203,0.0007838583551347256,-0.0007390755927190185
1761412863297688000,7.36268798828125,-0.0005495550576597452,-0.0013146265409886837,0.0005730004049837589
1761412863307701000,7.372700927734375,-0.0007700647693127394,-0.0012368620373308659,-0.0014810957945883274
1761412863317714000,7.3827138671875,0.0008252707193605602,-0.0013898266479372978,-0.0007244021398946643
1761412863327727000,7.39272705078125,0.0005328556871972978,0.0004157964140176773,0.0008908051531761885
1761412863337740300,7.402740234375,0.0003991203266195953,-0.0023819096386432648,0.0012237071059644222
1761412863347753000,7.4127529296875,-0.0001894382294267416,-0.00011209724470973015,0.0005917390808463097
1761412863357766100,7.42276611328125,-0.0015317692887037992,-0.0003189854323863983,-0.0003597347531467676
1761412863367779000,7.432779052734375,-0.0019232539925724268,0.001964941155165434,-0.003666315460577607
1761412863377792000,7.4427919921875,-0.0025930230040103197,-0.001243061851710081,0.00020123831927776337
1761412863387805000,7.452804931640625,-0.0001264032325707376,-0.0006180177442729473,-0.0008602975867688656
1761412863397818000,7.462818115234375,0.0004994359915144742,-0.0017778926994651556,-0.0024798503145575523
1761412863407831300,7.472831298828125,0.0003058241563849151,0.0004543690010905266,-0.0019597348291426897
1761412863417844000,7.482843994140625,-0.0002316494646947831,-0.0007428145036101341,-0.0024630411062389612
1761412863427856100,7.492856201171875,0.000888742390088737,0.0005102027207612991,-0.0013367903884500265
1761412863437869000,7.502869140625,0.0004066145629622042,0.0021104072220623493,-0.0007496316684409976
1761412863447882200,7.51288232421875,-0.00018913456005975604,-0.0021660968195647,0.0012243033852428198
1761412863457895200,7.522895263671875,0.000839302665553987,-0.0014332905411720276,0.001825712388381362
1761412863467908000,7.532908203125,-0.0012275766348466277,-0.00249269581399858,-0.0006531580584123731
1761412863477921000,7.542921142578125,-0.001707669347524643,-0.00021452317014336586,-0.00288137374445796
1761412863487934200,7.552934326171875,-0.0006610470009036362,0.0016049481928348541,-0.001633948995731771
1761412863497947000,7.56294677734375,0.0018792360788211226,0.0004399041645228863,0.0005973849911242723
1761412863507960000,7.5729599609375,0.00004698132397606969,0.0024862773716449738,0.0013712996151298285
1761412863517973200,7.58297314453125,0.0017982970457524061,0.0014064405113458633,0.0021094083786010742
1761412863527986200,7.592986083984375,0.000388419721275568,0.0016021830961108208,-0.00047971669118851423
1761412863537999000,7.6029990234375,-0.0006018284475430846,0.0018309964798390865,0.0027414727956056595
1761412863548012000,7.613011962890625,0.0007087131380103528,-0.0023102187551558018,-0.0005448678275570273
1761412863558025200,7.623025146484375,-0.0016078301705420017,-0.0003971257247030735,0.00013334606774151325
1761412863568038000,7.633037841796875,0.00047209864715114236,-0.0019393623806536198,0.0005163087043911219
1761412863578051000,7.643051025390625,0.0006918648723512888,0.002194738481193781,-0.0007998638320714235
1761412863588063000,7.65306298828125,0.0006050458177924156,-0.002123843180015683,0.0006808536127209663
1761412863598076200,7.663076171875,0.00023935467470437288,0.00041153281927108765,-0.002662734594196081
1761412863608089000,7.673089111328125,-0.0009777098894119263,0.0011620116420090199,-0.0003825360909104347
1761412863618102000,7.68310205078125,0.00001972733298316598,0.00019564013928174973,-0.0005500513361766934
1761412863628115200,7.693115234375,0.003214721567928791,0.00022333674132823944,0.00017219805158674717
1761412863638128000,7.703128173828125,0.001105596893467009,-0.0013954187743365765,-0.0004827195079997182
1761412863648141000,7.71314111328125,0.0008488681633025408,0.001433124765753746,-0.0006797934183850884
1761412863658155000,7.723155029296875,0.0002618288272060454,0.0014310567639768124,-0.0004428939428180456
1761412863668168000,7.73316796875,-0.0018987937364727259,0.00002357596531510353,-0.0004692592192441225
1761412863678180900,7.743180908203125,-0.0009998584864661098,-0.00012354832142591476,0.0008998007979243994
1761412863688193800,7.75319384765625,0.000831863668281585,0.0006809928454458714,-0.002480549504980445
1761412863698207000,7.76320703125,-0.0013545722467824817,0.0016599055379629135,-0.00019932258874177933
1761412863708219600,7.7732197265625,0.0018715811893343925,-0.0006695613265037537,0.0011698086746037006
1761412863718232800,7.78323291015625,-0.0004363710177130997,-0.00007263058796525002,0.00042102974839508533
1761412863728246000,7.79324609375,-0.0007183997659012675,0.0035647149197757244,0.0028210703749209642
1761412863738258000,7.8032578125,-0.0029393110889941454,0.19831673800945282,0.21074225008487701
1761412863748271000,7.81327099609375,-0.005950280465185642,0.15424275398254395,0.21429836750030518
1761412863758283800,7.82328369140625,-0.0034516253508627415,0.02855025976896286,0.02808932587504387
1761412863768297000,7.833296875,0.011853828094899654,-0.07517347484827042,-0.10762935876846313
1761412863778310000,7.843309814453125,0.0025659375824034214,-0.1985853761434555,-0.21193000674247742
1761412863788322800,7.85332275390625,0.005537759512662888,-0.1478540301322937,-0.20933209359645844
1761412863798335700,7.863335693359375,-0.0002019608800765127,-0.007837682962417603,-0.06657583266496658
