time,seconds_elapsed,z,y,x
1761412914523805400,0.062805419921875,-0.0019387092906981707,0.03689524903893471,0.01828290894627571
1761412914533818400,0.072818359375,-0.001997299026697874,0.025131266564130783,-0.0002513616345822811
1761412914543831600,0.08283154296875,0.0013579241931438446,-0.01719861663877964,-0.011280125007033348
1761412914553844500,0.092844482421875,0.0012990683317184448,-0.03482634574174881,-0.010952822864055634
1761412914563857700,0.102857666015625,0.001556814182549715,-0.015143721364438534,0.0031909598037600517
1761412914573870300,0.112870361328125,-0.0012245913967490196,0.02137860283255577,0.012742653489112854
1761412914583883500,0.122883544921875,0.000059813930420205,0.02756188064813614,0.008638032712042332
1761412914593895400,0.1328955078125,-0.0005710889236070216,0.005502915009856224,0.0018003666773438454
1761412914603908600,0.14290869140625,0.0027181836776435375,-0.016927292570471764,-0.004156246781349182
1761412914613921300,0.15292138671875,-0.0007833405397832394,-0.018913477659225464,-0.005472114309668541
1761412914623934500,0.1629345703125,-0.0005244463100098073,0.00002266187220811844,0.0007145563140511513
1761412914633947600,0.17294775390625,-0.00176148465834558,0.01859181746840477,0.003501820843666792
1761412914643960600,0.182960693359375,-0.0002784812240861356,0.012851215898990631,0.006604571361094713
1761412914653973500,0.192973388671875,-0.0007634428329765797,-0.00537306210026145,-0.0007143282564356923
1761412914663986400,0.202986328125,0.0008661160827614367,-0.0150842797011137,-0.0010115370387211442
1761412914673998600,0.21299853515625,0.00424886355176568,-0.0067634982988238335,-0.004093080759048462
1761412914684011500,0.223011474609375,-0.0005233666743151844,0.006267615128308535,0.001165715279057622
1761412914694024400,0.2330244140625,-0.0013713170774281025,0.010991264134645462,0.0029580225236713886
1761412914704037400,0.243037353515625,-0.00029658310813829303,0.004363452550023794,0.005470823030918837
1761412914714051600,0.253051513671875,0.0019849471282213926,-0.003221496008336544,0.0017788829281926155
1761412914724064300,0.263064208984375,0.0008209937950596213,-0.005776531063020229,0.0012273825705051422
1761412914734077400,0.273077392578125,0.0007458926411345601,-0.0005375603213906288,-0.0037436739075928926
1761412914744090400,0.28309033203125,-0.0014798990450799465,0.00423205504193902,-0.0015160279581323266
1761412914754102500,0.2931025390625,-0.0002284796501044184,0.0030709165148437023,-0.0007828597445040941
1761412914764115500,0.303115478515625,0.0021468785125762224,0.0017824270762503147,0.000959715573117137
1761412914774128400,0.31312841796875,0.00031675409991294146,-0.0029998114332556725,-0.0009644182864576578
1761412914784141300,0.323141357421875,0.002776880981400609,-0.00036424119025468826,-0.0018489528447389603
1761412914794154500,0.333154541015625,0.0004961498198099434,-0.00020844629034399986,-0.0007994009647518396
1761412914804167400,0.34316748046875,0.0007007956737652421,-0.00003811251372098923,0.00431331479921937
1761412914814180400,0.353180419921875,-0.0006116101867519319,0.002054599579423666,0.0013124647084623575
1761412914824193500,0.363193603515625,0.0004689206543844193,-0.00026730215176939964,-0.000010040123015642166
1761412914834206500,0.37320654296875,0.0006012797821313143,-0.0000611734576523304,-0.0008145810570567846
1761412914844218400,0.38321826171875,-0.00011054630158469081,-0.0013009810354560614,-0.0010437804739922285
1761412914854231300,0.393231201171875,-0.0016711587086319923,0.002769128419458866,-0.0004719998687505722
1761412914864244500,0.403244384765625,0.0001558092189952731,-0.001294430112466216,-0.0006876172265037894
1761412914874257400,0.41325732421875,0.0007994952611625195,0.0009040092118084431,0.0014764675870537758
1761412914884270300,0.423270263671875,0.0008967434987425804,0.0007696794345974922,-0.0008499713148921728
1761412914894283300,0.433283203125,-0.0020612296648323536,-0.0015616519376635551,-0.0010550348088145256
1761412914904296400,0.44329638671875,-0.0007594682392664254,0.00020008301362395287,-0.0006838198751211166
1761412914914309400,0.453309326171875,-0.00007503584492951632,0.0005084769800305367,-0.0030961111187934875
1761412914924321500,0.463321533203125,0.0008910194737836719,-0.0012363202404230833,0.0018033948726952076
1761412914934334500,0.47333447265625,0.0011669229716062546,-0.0009162081405520439,-0.00243129744194448
1761412914944347400,0.483347412109375,0.00029475486371666193,-0.0027529369108378887,0.0007972235325723886
1761412914954360600,0.493360595703125,0.0007578785880468786,0.00047348253428936005,-0.0009221133077517152
1761412914964373200,0.503373291015625,0.00046585348900407553,-0.0008710948750376701,-0.0027802702970802784
1761412914974386400,0.513386474609375,0.00020273315021768212,-0.00020610354840755463,-0.00045666215009987354
1761412914984399400,0.5233994140625,0.001671966747380793,0.0013015121221542358,0.000037354184314608574
1761412914994412500,0.53341259765625,-0.0026234458200633526,0.0032144607976078987,-0.0013549464056268334
1761412915004424400,0.543424560546875,0.000010739313438534737,-0.0010770633816719055,0.003081978764384985
1761412915014437400,0.553437255859375,-0.0007815511198714375,0.0017291097901761532,-0.002365783555433154
1761412915024450300,0.5634501953125,0.00029898795764893293,-0.0009630811400711536,0.001133569749072194
1761412915034463500,0.57346337890625,0.0004025849630124867,0.000013766344636678696,-0.0017184093594551086
1761412915044476400,0.583476318359375,0.0005208219517953694,-0.0032768878154456615,0.0003216811455786228
1761412915054489300,0.5934892578125,0.0018689141143113375,0.00141134113073349,0.00017467467114329338
1761412915064502500,0.60350244140625,-0.0006386480526998639,0.000478329136967659,-0.00038262619636952877
1761412915074515500,0.613515380859375,-0.0004247962206136435,-0.0023757806047797203,-0.00038821902126073837
1761412915084527600,0.623527587890625,0.0007823798223398626,0.00009318254888057709,0.002840360626578331
1761412915094540300,0.633540283203125,-0.0012320352252572775,0.0030895047821104527,0.0005564335733652115
1761412915104553500,0.643553466796875,0.0007931360742077231,0.0012742392718791962,0.004301359411329031
1761412915114566400,0.65356640625,0.00014172683586366475,0.0001708916388452053,0.003499747719615698
1761412915124579300,0.663579345703125,0.0032293652184307575,-0.0035378234460949898,0.0029288865625858307
1761412915134592300,0.67359228515625,-0.00040158876799978316,0.0025464342907071114,0.000018584076315164566
1761412915144605400,0.68360546875,0.00031794735696166754,0.0005018692463636398,0.0009093608241528273
1761412915154618600,0.69361865234375,-0.0011720913462340832,0.0014550145715475082,0.0006467732600867748
1761412915164631300,0.70363134765625,0.0020449478179216385,0.0014533642679452896,0.0010705511085689068
1761412915174643500,0.7136435546875,0.0014635797124356031,-0.00021137762814760208,-0.0003787411842495203
1761412915184656400,0.723656494140625,0.0018377681262791157,-0.0008885124698281288,0.0002399771474301815
1761412915194669600,0.733669677734375,0.0006358837126754224,0.0008689076639711857,-0.0005917279049754143
1761412915204682200,0.74368212890625,-0.000032304407795891166,-0.0009979140013456345,0.000629747286438942
1761412915214695400,0.7536953125,0.00039859506068751216,0.00037388037890195847,0.0008896717336028814
1761412915224708400,0.763708251953125,0.001716700615361333,-0.0013726765755563974,0.0016014378052204847
1761412915234721500,0.773721435546875,0.0011358651099726558,0.0003328118473291397,0.00011779065243899822
1761412915244734500,0.783734375,0.000472209881991148,-0.0015610652044415474,-0.0002308643888682127
1761412915254746400,0.793746337890625,-0.00032434158492833376,0.004937047604471445,0.0024679831694811583
1761412915264759300,0.80375927734375,0.0013137275818735361,0.00009115738794207573,0.00023644021712243557
1761412915274772500,0.8137724609375,-0.0002673910930752754,0.003722909837961197,0.0016657589003443718
1761412915284785400,0.823785400390625,-0.0012388904578983784,-0.0009316555224359035,-0.00041358545422554016
1761412915294798300,0.83379833984375,-0.00012489024084061384,-0.0016499101184308529,0.0012189322151243687
1761412915304811500,0.8438115234375,0.0015382514102384448,-0.001708183204755187,0.000981001416221261
1761412915314824400,0.853824462890625,0.0008287853561341763,-0.00032120896503329277,-0.0005156950792297721
1761412915324837400,0.86383740234375,-0.0012573031708598137,0.0011761304922401905,-0.0002920064143836498
1761412915334849300,0.873849365234375,0.000973094254732132,0.0027239597402513027,-0.0013492814032360911
1761412915344862500,0.883862548828125,0.0019737586844712496,-0.0004532448947429657,0.0027003902941942215
1761412915354875400,0.89387548828125,0.0007580257370136678,-0.000635405071079731,-0.0002815511543303728
1761412915364888300,0.903888427734375,0.0002325490931980312,-0.0009612692520022392,0.0014497495722025633
1761412915374901200,0.9139013671875,0.001294085057452321,0.0016142739914357662,0.0009951479732990265
1761412915384914400,0.92391455078125,0.0021148091182112694,-0.0024026466999202967,-0.0015838316176086664
1761412915394927600,0.933927734375,0.0006607231334783137,-0.0034937437158077955,0.0005349793937057257
1761412915404940300,0.943940185546875,0.000008788105333223939,0.00021478720009326935,-0.0018536691786721349
1761412915414952400,0.953952392578125,0.0006109288078732789,-0.002656899392604828,0.0007927138358354568
1761412915424965400,0.96396533203125,0.0013329405337572098,-0.000025408808141946793,-0.0016039584297686815
1761412915434978600,0.973978515625,0.0001707371266093105,-0.0025540804490447044,-0.0015227319672703743
1761412915444991200,0.9839912109375,0.0015816499944776297,-0.00017234543338418007,0.003053477732464671
1761412915455004400,0.99400439453125,0.000693485839292407,0.0035885702818632126,0.0010017785243690014
1761412915465017300,1.004017333984375,0.000973838847130537,0.0010110558941960335,0.000878799706697464
1761412915475030500,1.014030517578125,0.0010441462509334087,0.0013071997091174126,0.0011211473029106855
1761412915485043500,1.02404345703125,-0.0004532499297056347,0.0004218621179461479,-0.0010161598911508918
1761412915495055400,1.034055419921875,-0.0006319480016827583,-0.0008367476984858513,-0.0016428016824647784
1761412915505068300,1.044068359375,-0.00046533445129171014,0.001148747280240059,-0.0010585124837234616
1761412915515081500,1.05408154296875,0.0009485377231612802,0.0021426393650472164,0.0022880155593156815
1761412915525094400,1.064094482421875,0.00008154514944180846,0.0003596334718167782,0.001840097364038229
1761412915535107300,1.074107421875,0.0009806284215301275,-0.0014901983086019754,0.0007841542828828096
1761412915545120500,1.08412060546875,0.000566864968277514,-0.0026496683713048697,-0.0032447497360408306
1761412915555133400,1.094133544921875,-0.002804430667310953,-0.0006259321235120296,-0.000378655968233943
1761412915565146400,1.104146484375,0.0001453775621484965,0.0009581334888935089,-0.0013608491281047463
1761412915575158300,1.114158203125,0.0011794829042628407,-0.00039981212466955185,0.0009172188583761454
1761412915585171500,1.12417138671875,-0.0011560556013137102,0.0006904904730618,0.0020440530497580767
1761412915595184400,1.134184326171875,0.0000399700365960598,0.0016236621886491776,-0.0006537293083965778
1761412915605197300,1.144197265625,-0.0009345856960862875,-0.003460310399532318,-0.002661575796082616
1761412915615210200,1.154210205078125,0.001226835884153843,-0.00008022598922252655,-0.0012032288359478116
1761412915625223400,1.164223388671875,0.0012750369496643543,0.00041487114503979683,0.0025057147722691298
1761412915635236600,1.174236572265625,0.0012129852548241615,0.00025641312822699547,0.001865490572527051
1761412915645249300,1.184249267578125,-0.000056352000683546066,0.00046657538041472435,0.0024851588532328606
1761412915655262500,1.194262451171875,-0.0004214713699184358,-0.0016639535315334797,0.0014372048899531364
1761412915665274400,1.2042744140625,0.00006381736602634192,-0.002569115487858653,-0.00044135842472314835
1761412915675287600,1.21428759765625,-0.0022872211411595345,-0.000028193462640047073,-0.001136709819547832
1761412915685300200,1.22430029296875,-0.00022822892060503364,-0.0015214106533676386,-0.0009747685398906469
1761412915695313400,1.2343134765625,-0.00022876154980622232,0.0005201688036322594,-0.0008136472897604108
1761412915705326300,1.244326416015625,0.0013278931146487594,0.00024594925343990326,-0.0016898701433092356
1761412915715339000,1.254339111328125,-0.00022499612532556057,-0.0004488695412874222,-0.0017609766218811274
1761412915725352000,1.26435205078125,-0.0022930209524929523,-0.002859885571524501,-0.0001761801540851593
1761412915735364900,1.27436474609375,-0.00025011011166498065,-0.0021504194010049105,-0.0009295883355662227
1761412915745377000,1.284376953125,-0.001151815289631486,-0.00037142587825655937,-0.00494741927832365
1761412915755390000,1.294389892578125,0.0008522134739905596,-0.0045933350920677185,-0.0022464413195848465
1761412915765403100,1.304403076171875,-0.00047392590204253793,0.0014589126221835613,-0.0015656682662665844
1761412915775415800,1.314415771484375,-0.0017224157927557826,0.0013939314521849155,0.0020932487677782774
1761412915785429000,1.324428955078125,0.002205116907134652,0.0006677396595478058,0.003416613442823291
1761412915795442200,1.334442138671875,0.0020570452325046062,0.0004855794832110405,-0.0011064995778724551
1761412915805454800,1.344454833984375,0.0012299896916374564,0.0005576992407441139,0.0006796056404709816
1761412915815468000,1.354468017578125,0.001219869707711041,-0.0013656357768923044,0.0004782706964761019
1761412915825480000,1.36447998046875,0.002209764439612627,0.0011415164917707443,0.0012816379312425852
1761412915835493000,1.3744931640625,-0.0005359544302336872,0.0006690719164907932,0.0003599179908633232
1761412915845506000,1.384506103515625,-0.0009349776664748788,-0.0015292600728571415,-0.0004113104660063982
1761412915855519000,1.39451904296875,0.0012719838414341211,-0.0005867672152817249,-0.002093895571306348
1761412915865532000,1.404531982421875,0.0021746368147432804,-0.0028630991000682116,0.000239246292039752
1761412915875545000,1.414545166015625,0.00014264471246860921,-0.002929411828517914,0.0014070423785597086
1761412915885558000,1.42455810546875,0.00198901048861444,0.0003340081311762333,-0.002354619326069951
1761412915895571000,1.434571044921875,0.00003025552723556757,0.0005832803435623646,-0.0005274245049804449
1761412915905582800,1.444582763671875,-0.0012663528323173523,-0.0024189818650484085,-0.0011468033771961927
1761412915915596000,1.454595947265625,0.00011449627345427871,-0.00031961221247911453,-0.0023785154335200787
1761412915925609200,1.464609130859375,0.0015543224290013313,0.00023864489048719406,0.0017284764908254147
1761412915935622000,1.474621826171875,-0.0006462475867010653,0.000831198412925005,0.002112770453095436
1761412915945635000,1.484635009765625,-0.0006915213307365775,0.0014652973040938377,0.0020190272480249405
1761412915955648000,1.49464794921875,-0.00010802270844578743,0.0017960616387426853,0.002636347897350788
1761412915965661000,1.504660888671875,-0.0007510578725486994,-0.00047132140025496483,0.00013495422899723053
1761412915975673900,1.514673828125,0.0005440374370664358,-0.0009648050181567669,0.00029101548716425896
1761412915985686000,1.52468603515625,0.0010201891418546438,0.00025564758107066154,0.0006427152547985315
1761412915995699000,1.534698974609375,0.0007951520965434611,-0.000704954843968153,0.00025016535073518753
1761412916005712100,1.544712158203125,0.0014830486616119742,-0.001133776269853115,0.0016742660664021969
1761412916015724800,1.554724853515625,-0.0006440181168727577,0.003588540479540825,-0.0002623847685754299
1761412916025738000,1.564738037109375,0.0016611730679869652,-0.001404087757691741,0.0023213352542370558
1761412916035751200,1.574751220703125,0.0012238820781931281,-0.004645154811441898,-0.001681928290054202
1761412916045764000,1.58476416015625,0.0006119286408647895,-0.0018078223802149296,-0.0003870206419378519
1761412916055777000,1.594777099609375,-0.0008735825540497899,-0.0010235211811959743,-0.0012861039722338319
1761412916065789000,1.604788818359375,0.0021524117328226566,-0.0011638174764811993,-0.00017944234423339367
1761412916075802000,1.614802001953125,0.0014698435552418232,0.0003195633180439472,0.00098515790887177
1761412916085815000,1.62481494140625,0.00028031785041093826,0.0017682388424873352,0.0007872513961046934
1761412916095828000,1.634827880859375,-0.0005138367996551096,0.0035869115963578224,0.0014128279872238636
1761412916105841000,1.6448408203125,-0.0019815554842352867,0.0012001283466815948,0.0014461495447903872
1761412916115854000,1.65485400390625,-0.0016212298069149256,0.0013111825101077557,-0.0006007560295984149
1761412916125867000,1.664866943359375,-0.002069324254989624,0.00210731104016304,0.0008359476923942566
1761412916135880000,1.6748798828125,0.0007925087120383978,0.0009030294604599476,0.0021259828936308622
1761412916145891800,1.684891845703125,-0.001955602550879121,0.00032324623316526413,0.0004600370302796364
1761412916155905000,1.694905029296875,-0.0015992715489119291,-0.001489301212131977,0.001497071934863925
1761412916165918200,1.704918212890625,-0.000699796830303967,0.00028456421568989754,-0.0006886360934004188
1761412916175931000,1.714930908203125,-0.0019698585383594036,0.002504308708012104,-0.0009525553323328495
1761412916185944000,1.724944091796875,0.0022361166775226593,-0.00037553394213318825,-0.0000938961748033762
1761412916195957000,1.73495703125,-0.0012052198871970177,-0.0013648984022438526,-0.0011421164963394403
1761412916205970200,1.74497021484375,0.001542053185403347,-0.00014053750783205032,0.001520759891718626
1761412916215982800,1.75498291015625,0.0019870675168931484,0.0011180723085999489,0.0004834586288779974
1761412916225995000,1.7649951171875,0.0002150917425751686,-0.000756388995796442,-0.0030507708434015512
1761412916236008000,1.775008056640625,-0.0015354040078818798,-0.0019790465012192726,0.0007021557539701462
1761412916246021000,1.785021240234375,0.0010868865065276623,0.0014854664914309978,-0.0014473467599600554
1761412916256033800,1.79503369140625,-0.0013581616804003716,0.002531023696064949,0.0013897186145186424
1761412916266047000,1.805046875,-0.0005654846900142729,0.001571781001985073,0.001978514017537236
1761412916276060200,1.81506005859375,0.0018342897528782487,-0.0010266653262078762,0.0006842177826911211
1761412916286073000,1.825072998046875,0.0005913130007684231,0.0012572826817631721,-0.0015216501196846366
1761412916296086000,1.8350859375,0.0013577707577496767,0.0005968189798295498,0.0006624083034694195
1761412916306098000,1.845097900390625,0.0010722957085818052,0.000967441126704216,0.002248711884021759
1761412916316111000,1.855111083984375,0.0000163522781804204,-0.0009034294635057449,0.001274527283385396
1761412916326124000,1.8651240234375,-0.0010073722805827856,0.0001230575144290924,-0.0004956412594765425
1761412916336137000,1.875136962890625,-0.001248920918442309,-0.0004188958555459976,-0.002335352823138237
1761412916346150000,1.88514990234375,-0.0013387766666710377,-0.0005020610988140106,-0.00014499970711767673
1761412916356163000,1.8951630859375,-0.0001363593910355121,-0.0020903702825307846,-0.0016534141032025218
1761412916366176000,1.905176025390625,0.0001897113397717476,0.0015355562791228294,-0.0015891026705503464
1761412916376189000,1.91518896484375,-0.0016020634211599827,-0.0003707343712449074,0.0018615552689880133
1761412916386200800,1.925200927734375,-0.0012720371596515179,-0.0005791215226054192,-0.00034483917988836765
1761412916396214000,1.935214111328125,-0.0005103730945847929,0.0002858731895685196,-0.004212281666696072
1761412916406227200,1.945227294921875,-0.0003878042916767299,-0.0007456820458173752,-0.0007645540172234178
1761412916416239900,1.955239990234375,0.0008412445313297212,-0.0034208272118121386,-0.0011256786528974771
1761412916426253000,1.965253173828125,0.0019956803880631924,-0.0005916040390729904,0.00207668193615973
1761412916436266000,1.975265869140625,-0.00048478791723027825,0.0018949895165860653,0.0019581711385399103
1761412916446279200,1.985279052734375,-0.0003950859245378524,0.005409433506429195,0.00903041660785675
1761412916456291800,1.995291748046875,-0.0008664653869345784,0.0040437644347548485,0.002588230650871992
1761412916466304000,2.005303955078125,-0.00023390070418827236,-0.000739560928195715,-0.000807387987151742
1761412916476317000,2.01531689453125,0.000007115362677723169,-0.0059082238003611565,-0.0025818522553890944
1761412916486330000,2.025330078125,-0.0005960231646895409,-0.0013949067797511816,-0.00589632336050272
1761412916496342800,2.0353427734375,0.001078838831745088,0.004738086834549904,0.001925913617014885
1761412916506356000,2.04535595703125,-0.000010945572284981608,0.0006644888781011105,0.0011480909306555986
1761412916516369200,2.055369140625,-0.00017765947268344462,-0.003382716793566942,-0.003928959369659424
1761412916526382000,2.065382080078125,0.0018786689033731818,-0.0021035366225987673,-0.004542175680398941
1761412916536395000,2.07539501953125,0.0006970243994146585,-0.004403708968311548,-0.003914468921720982
1761412916546407000,2.085406982421875,0.0001491985167376697,-0.0000014514662325382233,0.0022401008754968643
1761412916556420000,2.095420166015625,0.000029356277082115412,0.004348289221525192,0.003073936328291893
1761412916566433000,2.10543310546875,-0.0014703719643875957,0.0030684820376336575,0.0014763392973691225
1761412916576446000,2.115446044921875,0.00009290361776947975,-0.0010173390619456768,-0.003346911631524563
1761412916586459000,2.125458984375,-0.002239912748336792,-0.002851618453860283,-0.0045339446514844894
1761412916596472000,2.13547216796875,-0.0012497494462877512,-0.0025392298121005297,-0.0019184539560228586
1761412916606485000,2.145485107421875,0.0006965058855712414,-0.00223983614705503,-0.0026938843075186014
1761412916616498000,2.155497802734375,-0.0008329474367201328,0.0037871631793677807,0.00002360530197620392
1761412916626509800,2.165509765625,-0.002047100570052862,0.001573063898831606,-0.00046643964014947414
1761412916636523000,2.17552294921875,0.00042058448889292777,-0.0020632161758840084,-0.002498964313417673
1761412916646536200,2.1855361328125,0.0005328361876308918,-0.002292620949447155,0.0007268835324794054
1761412916656548900,2.195548828125,0.0012156707234680653,0.0005116877146065235,0.001267505344003439
1761412916666562000,2.20556201171875,0.00011904595885425806,0.002882806584239006,-0.0003816625103354454
1761412916676575000,2.215574951171875,0.0006088012014515698,0.0022321962751448154,0.00004550861194729805
1761412916686588200,2.225588134765625,0.00034617737401276827,-0.0000033155083656311035,0.0012377824168652296
1761412916696600800,2.235600830078125,0.00022606877610087395,0.00037991302087903023,-0.00014386558905243874
1761412916706613200,2.24561328125,-0.00045391442836262286,-0.0008318223990499973,-0.0011753548169508576
1761412916716626400,2.25562646484375,0.0002110768691636622,0.00061054527759552,0.00014104554429650307
1761412916726639400,2.265639404296875,-0.0008812782471068203,0.0020291567780077457,0.000010540243238210678
1761412916736652300,2.27565234375,0.0007983773830346763,-0.002458802191540599,-0.003308291081339121
1761412916746665200,2.285665283203125,-0.0018149067182093859,-0.0031867511570453644,-0.002307110233232379
1761412916756678400,2.295678466796875,-0.0003592228749766946,-0.0017837979830801487,0.00027961796149611473
1761412916766691300,2.30569140625,0.002234661253169179,0.002810528501868248,-0.0026770425029098988
1761412916776704300,2.315704345703125,0.001973138889297843,0.000057353172451257706,0.0010750852525234222
1761412916786716200,2.325716064453125,-0.0010754573158919811,-0.0014038169756531715,-0.0013729908969253302
1761412916796729300,2.335729248046875,0.002062811516225338,-0.0016208644956350327,-0.00004993239417672157
1761412916806742300,2.3457421875,-0.00023789523402228951,-0.0010812552645802498,-0.000003435881808400154
1761412916816755200,2.355755126953125,-0.0006192598957568407,-0.00030094897374510765,-0.0000023704487830400467
1761412916826768400,2.365768310546875,-0.001121376408264041,0.00015013711526989937,-0.001709575648419559
1761412916836781300,2.37578125,0.0003556126612238586,-0.0014203288592398167,0.0014723690692335367
1761412916846794200,2.385794189453125,-0.0008616651757620275,-0.0005914997309446335,-0.0020076248329132795
1761412916856807200,2.39580712890625,0.000582567066885531,-0.0010301223956048489,0.0010811095125973225
1761412916866819300,2.4058193359375,-0.00020731112454086542,0.00007034977898001671,-0.0003654048778116703
1761412916876832300,2.415832275390625,0.0007317194831557572,-0.0011645578779280186,0.0008916070219129324
1761412916886845400,2.425845458984375,0.0011024861596524715,-0.0022680130787193775,-0.00022431788966059685
1761412916896858000,2.435858154296875,-0.0009366963058710098,-0.0009031430818140507,-0.0010829209350049496
1761412916906871300,2.445871337890625,0.0010508664418011904,-0.0016686415765434504,0.0013576007913798094
1761412916916884200,2.45588427734375,-0.0010841897455975413,-0.0004150918684899807,0.0012404215522110462
1761412916926897400,2.4658974609375,0.00008577184053137898,-0.0019848656374961138,-0.0004749004729092121
1761412916936910300,2.475910400390625,-0.0019169251900166273,0.002433318644762039,0.002492127474397421
1761412916946922200,2.485922119140625,-0.001032790751196444,0.0003524310886859894,-0.0019087663386017084
1761412916956935400,2.495935302734375,0.00010810745880007744,-0.00009364821016788483,-0.0006885059410706162
1761412916966948400,2.5059482421875,0.0006476620328612626,-0.002125586150214076,-0.0034407246857881546
1761412916976961300,2.515961181640625,0.00010783923789858818,-0.0017426235135644674,0.0032464724499732256
1761412916986974200,2.52597412109375,0.0004726554034277797,-0.0019137051422148943,0.0013304662425071
1761412916996987400,2.5359873046875,-0.00045918463729321957,0.00034758495166897774,-0.0026669385842978954
1761412917007000300,2.546000244140625,-0.0007415926083922386,0.002946562599390745,0.0003552553243935108
1761412917017013200,2.55601318359375,-0.0005671555991284549,0.0008423994295299053,-0.00005007768049836159
1761412917027025200,2.566025146484375,0.0011000940576195717,0.0021098507568240166,-0.001648654229938984
1761412917037038300,2.576038330078125,0.001026324462145567,-0.00005982676520943642,-0.0022603822872042656
1761412917047051300,2.58605126953125,0.000016302219592034817,-0.000005550682544708252,0.0005892694462090731
1761412917057064200,2.596064208984375,0.000641612452454865,-0.0010314006358385086,0.001761060208082199
1761412917067077400,2.606077392578125,0.0017006408888846636,-0.0011302577331662178,0.0011822355445474386
1761412917077090300,2.61609033203125,-0.0009356223163194954,-0.0012975046411156654,0.0011747786775231361
1761412917087103500,2.626103515625,0.0006593138095922768,-0.00022258469834923744,0.0004615148063749075
1761412917097115400,2.636115478515625,0.0010910122655332088,0.00014519784599542618,0.0002724302466958761
1761412917107128300,2.64612841796875,0.0007112683379091322,0.001350991427898407,0.00036089238710701466
1761412917117141200,2.656141357421875,0.0011618752032518387,-0.001365432981401682,0.0021513355895876884
1761412917127154400,2.666154541015625,-0.0009529758826829493,0.0015990599058568478,-0.002134013222530484
1761412917137167000,2.6761669921875,0.0001642201968934387,-0.0036787926219403744,0.00073447753675282
1761412917147180300,2.68618017578125,0.0000928973313421011,0.00013115815818309784,-0.0009145669173449278
1761412917157193200,2.696193115234375,0.0005530915223062038,0.00007496541365981102,0.001913443673402071
1761412917167206400,2.706206298828125,0.0010002017952501774,0.0005143187008798122,-0.00045858463272452354
1761412917177219300,2.71621923828125,1.8475111573934555e-7,0.0021790610626339912,0.0006847104523330927
1761412917187231200,2.726231201171875,0.0008866045973263681,-0.0013583218678832054,0.0000754005741328001
1761412917197244400,2.736244384765625,-0.0013563097454607487,-0.002138894284144044,-0.000636196113191545
1761412917207257300,2.74625732421875,0.0007569781155325472,-0.0017701853066682816,0.0008502367418259382
1761412917217270300,2.756270263671875,0.0005210220697335899,-0.0003754878416657448,-0.0010326181072741747
1761412917227283200,2.766283203125,0.00044019543565809727,-0.0008722208440303802,0.002379730110988021
1761412917237296400,2.77629638671875,0.000038590747863054276,0.000041243620216846466,0.0025549663696438074
1761412917247309300,2.786309326171875,-0.0018187591340392828,0.0012539606541395187,0.0002939845435321331
1761412917257321500,2.796321533203125,0.000003908353392034769,0.0004502185620367527,0.00007587159052491188
1761412917267334100,2.806334228515625,-0.00038259965367615223,-0.0008037951774895191,0.0008763247169554234
1761412917277347300,2.816347412109375,-0.00029897637432441115,-0.0016426912043243647,-0.00005418388172984123
1761412917287360300,2.8263603515625,-0.0020092783961445093,0.0009562908671796322,-0.0004562789108604193
1761412917297373200,2.836373291015625,-0.00022735740640200675,0.0002966257743537426,-0.0012467051856219769
1761412917307386400,2.846386474609375,-0.002146325772628188,0.0016724113374948502,-0.0028019817546010017
1761412917317399300,2.8563994140625,-0.00019263089052401483,-0.00044560059905052185,-0.0007058075862005353
1761412917327412500,2.86641259765625,-0.0009196910541504622,-0.0004526074044406414,-0.0004153235349804163
1761412917337424400,2.87642431640625,-0.0002376555057708174,-0.0004107956774532795,-0.0007841713959351182
1761412917347437300,2.886437255859375,0.002022744622081518,0.00038753729313611984,0.0027866957243531942
1761412917357450200,2.8964501953125,0.0018927821656689048,0.0012868866324424744,-0.0006336021469905972
1761412917367463400,2.90646337890625,-0.0002769900020211935,0.0007594632916152477,-0.003634996712207794
1761412917377476000,2.91647607421875,-0.0008085569716058671,-0.001282648416236043,0.0026892118621617556
1761412917387489300,2.9264892578125,0.002141650067642331,0.0021684193052351475,-0.0015494421822950244
1761412917397502200,2.936502197265625,0.0020441783126443624,0.000017916783690452576,0.0024128088261932135
1761412917407515400,2.946515380859375,0.00007567991269752383,0.0006915912963449955,0.0007504238747060299
1761412917417527300,2.95652734375,-0.00007638658280484378,-0.000008021015673875809,0.0008223291952162981
1761412917427540200,2.966540283203125,-0.00037742877611890435,0.0007709520868957043,-0.0003064174670726061
1761412917437553400,2.976553466796875,-0.0008429493755102158,-0.00016834493726491928,0.0009410071652382612
1761412917447566300,2.98656640625,-0.0007408627425320446,-0.0005254577845335007,-0.0012982020853087306
1761412917457579300,2.996579345703125,-0.0005408593569882214,0.0025456994771957397,-0.0017232425743713975
1761412917467592200,3.00659228515625,0.0018606451340019703,0.0015921173617243767,-0.00030982051976025105
1761412917477605400,3.01660546875,0.000044635613448917866,-0.00040285661816596985,0.003483053296804428
1761412917487618300,3.026618408203125,-0.001332752057351172,0.0014166445471346378,-0.0006641683867201209
1761412917497630500,3.03663037109375,-0.00017028223373927176,0.0023186574690043926,-0.0017347591929137707
1761412917507643100,3.04664306640625,-0.0010696540120989084,0.0011885841377079487,-0.0039016217924654484
1761412917517656300,3.05665625,-0.0005841597449034452,0.00003144098445773125,-0.0008211433887481689
1761412917527669200,3.066669189453125,0.0008117149700410664,0.0011384226381778717,0.002350596245378256
1761412917537682200,3.07668212890625,-0.0004402371123433113,0.0018436280079185963,0.0014834708999842405
1761412917547695400,3.0866953125,-0.000031429692171514034,-0.0011870143935084343,-0.00005206884816288948
1761412917557708300,3.096708251953125,0.00008681463077664375,0.001693726982921362,-0.0005080018891021609
1761412917567721500,3.106721435546875,0.0019135603215545416,0.0012110639363527298,0.0007669681217521429
1761412917577733400,3.1167333984375,0.001093040220439434,0.0000041192397475242615,-0.0002964320592582226
1761412917587746300,3.126746337890625,0.0011150857899338007,0.00046109268441796303,-0.000320682767778635
1761412917597759200,3.13675927734375,-0.001992823090404272,0.001818239688873291,-0.00015237112529575825
1761412917607772400,3.1467724609375,0.0011991095962002873,0.00006051966920495033,-0.0020972625352442265
1761412917617785000,3.15678515625,-0.00010823618504218757,0.0008309721015393734,-0.00012252852320671082
1761412917627798300,3.16679833984375,0.00042410584865137935,0.00037147244438529015,0.0010535132605582476
1761412917637811200,3.176811279296875,-0.00047870574053376913,0.0013097040355205536,0.0015890749637037516
1761412917647824400,3.186824462890625,0.0009071100503206253,0.004434583708643913,0.002348455134779215
1761412917657836300,3.196836181640625,-0.0010750808287411928,0.002935756929218769,-0.0013549365103244781
1761412917667849200,3.20684912109375,0.000903214851859957,-0.0029677259735763073,0.0008802220690995455
1761412917677862100,3.216862060546875,-0.00033968244679272175,0.00011967681348323822,-0.0012561657931655645
1761412917687875300,3.226875244140625,-0.0008398075588047504,0.0012961244210600853,0.00036957813426852226
1761412917697888300,3.23688818359375,-0.0009149087127298117,0.002161385491490364,0.0015783868730068207
1761412917707901000,3.24690087890625,-0.0025259859394282103,0.0025964314118027687,0.0024649505503475666
1761412917717914000,3.2569140625,0.000025854911655187607,-0.00032425718382000923,0.0009639931377023458
1761412917727927300,3.26692724609375,-0.001986867282539606,-0.0004126857966184616,-0.0012074824189767241
1761412917737939200,3.276939208984375,-0.00010720829595811665,-0.00224600569345057,-0.0018021662253886461
1761412917747952000,3.2869521484375,0.0032042008824646473,0.0011597657576203346,-0.0024382290430366993
1761412917757965000,3.296965087890625,-0.000658447970636189,0.001291858498007059,0.0018073825631290674
1761412917767978200,3.306978271484375,-0.0009747028816491365,0.0008183149620890617,0.0005950785707682371
1761412917777991200,3.3169912109375,0.00004289095522835851,-0.0013811900280416012,0.0020249297376722097
1761412917788004000,3.327004150390625,0.00030335690826177597,-0.00005285162478685379,0.002149078529328108
1761412917798017000,3.33701708984375,-0.000639668432995677,0.0009969663806259632,0.00141697539947927
1761412917808030200,3.3470302734375,0.000943245948292315,-0.0005792351439595222,0.0038960042875260115
1761412917818042000,3.3570419921875,-0.0009952690452337265,0.0006639282219111919,0.0024919856805354357
1761412917828055000,3.367054931640625,-0.0015714038163423538,0.00246644439175725,-0.00013629463501274586
1761412917838068000,3.37706787109375,-0.0010893716244027019,-0.00016662292182445526,-0.0015680099604651332
1761412917848081200,3.3870810546875,-0.0006932576652616262,-0.0006728032603859901,-0.0002200906164944172
1761412917858094300,3.39709423828125,0.002384025137871504,-0.00013218168169260025,-0.00007015466690063477
1761412917868107000,3.40710693359375,0.0005173110985197127,0.0001175212673842907,0.0017570890486240387
1761412917878120200,3.4171201171875,-0.0019945823587477207,0.001356690190732479,0.0023190160281956196
1761412917888132000,3.427132080078125,0.0003486968344077468,0.0008311765268445015,-0.0013908747350797057
1761412917898145300,3.437145263671875,-0.001912060659378767,0.00037657469511032104,-0.001840948942117393
1761412917908158000,3.447157958984375,-0.0013646562583744526,-0.00045336782932281494,-0.00016547692939639091
1761412917918171100,3.457171142578125,0.0015211452264338732,-0.0013151667080819607,-0.001701055676676333
1761412917928184000,3.46718408203125,-0.000387346837669611,0.0017077689990401268,-0.00236696214415133
1761412917938197200,3.477197265625,0.0004198573005851358,0.002179681323468685,0.00042988965287804604
1761412917948210000,3.4872099609375,-0.0000717646034900099,0.002340912353247404,-0.002736409194767475
1761412917958223000,3.49722314453125,0.0011455663479864597,-0.0021947172936052084,-0.0002354346215724945
1761412917968235000,3.507235107421875,0.0007645552977919579,-0.0009212815202772617,-0.0009079709416255355
1761412917978248200,3.517248291015625,-0.0003955176507588476,0.0013924725353717804,0.0008712869603186846
1761412917988261000,3.52726123046875,0.00014569706399925053,0.0015516886487603188,0.001543134916573763
1761412917998274000,3.537274169921875,-0.0005725575028918684,0.0004747062921524048,-0.0010012490674853325
1761412918008287200,3.547287353515625,-0.0014845167752355337,0.00033079925924539566,0.0007540807127952576
1761412918018300200,3.557300048828125,0.0008143237791955471,0.00046528875827789307,0.0007444932125508785
1761412918028313000,3.56731298828125,0.0008973336080089211,0.0008683218620717525,0.0018629662226885557
1761412918038326000,3.577325927734375,0.0001623011485207826,0.0006848298944532871,-0.0021357699297368526
1761412918048338200,3.587338134765625,0.0020711207762360573,-0.002816043561324477,0.0006626814138144255
1761412918058351000,3.59735107421875,0.0007134411716833711,0.0006178361363708973,-0.0006934002740308642
1761412918068364000,3.607364013671875,0.0021203297656029463,0.00016597891226410866,0.0012511317618191242
1761412918078377000,3.617376953125,0.002217268804088235,-0.00020606489852070808,-0.0005563555750995874
1761412918088390100,3.62739013671875,0.0014379213098436594,-0.000014085788279771805,0.0010762603487819433
1761412918098403300,3.6374033203125,-0.0007986014243215322,0.000060216523706912994,-0.0018905012402683496
1761412918108416000,3.647416015625,-0.0003215800679754466,0.0005240738391876221,0.00042904005385935307
1761412918118429200,3.65742919921875,0.0009673899039626122,0.002580832690000534,-0.0003808271139860153
1761412918128441000,3.667441162109375,0.0010072279255837202,0.00017876503989100456,0.0013795485720038414
1761412918138454300,3.677454345703125,0.0002676679869182408,0.00024214806035161018,0.0011614358518272638
1761412918148467000,3.687467041015625,0.0012529650703072548,0.0009522926993668079,0.0003898779395967722
1761412918158480100,3.697480224609375,-0.0010067271068692207,0.00042578577995300293,0.003460236359387636
1761412918168493000,3.7074931640625,0.0007151877507567406,-0.000767804216593504,0.0000915795098990202
1761412918178506200,3.71750634765625,-0.0008379677310585976,-0.0003193281590938568,0.0010162289254367352
1761412918188519000,3.727518798828125,-0.0010891136480495334,0.0005623162724077702,-0.0012366417795419693
1761412918198532000,3.737531982421875,-0.001924281008541584,-0.0008366419933736324,-0.0003615270834416151
1761412918208544000,3.7475439453125,0.00032005610410124063,-0.0013508647680282593,-0.0016788099892437458
1761412918218557200,3.75755712890625,0.00005587056512013078,0.00020202435553073883,0.0002866028808057308
1761412918228570000,3.767570068359375,-0.000583123997785151,0.0002126125618815422,0.0007879394106566906
1761412918238583000,3.7775830078125,0.0021072011440992355,0.00099611422047019,-0.0001777226570993662
1761412918248596200,3.78759619140625,0.0014510528417304158,-0.002320481464266777,0.0008823089301586151
1761412918258609200,3.797609130859375,0.0013069758424535394,-0.0025111637078225613,-0.00016963970847427845
1761412918268622000,3.8076220703125,0.0019596624188125134,0.000923606101423502,0.0005857038777321577
1761412918278635000,3.817635009765625,0.001228890847414732,-0.0008665709756314754,0.0017026334535330534
1761412918288647200,3.827647216796875,-0.0007654387154616416,0.0014701662585139275,-0.00004347320646047592
1761412918298660000,3.83766015625,0.0005070196348242462,0.0000949101522564888,0.0016598848160356283
1761412918308673000,3.847673095703125,0.0006652659503743052,-0.0024102621246129274,-0.00040464685298502445
1761412918318686000,3.85768603515625,0.0018117568688467145,0.0011463896371424198,0.001482735387980938
1761412918328699100,3.86769921875,0.0011649926891550422,0.0023682699538767338,-0.0013304284075275064
1761412918338712300,3.87771240234375,0.0009418197441846132,0.00030218949541449547,0.0010075606405735016
1761412918348725000,3.88772509765625,-0.0011739711044356227,-0.0012346277944743633,0.00006966292858123779
1761412918358738200,3.89773828125,0.0010886505478993058,-0.0006162417121231556,-0.0007282200967893004
1761412918368750000,3.90775,-0.0019497154280543327,0.00221742270514369,-0.0020766505040228367
1761412918378763300,3.91776318359375,0.0006207676487974823,-0.0013853013515472412,0.0006634758319705725
1761412918388776000,3.92777587890625,-0.0010571891907602549,0.00010545086115598679,-0.000657367636449635
1761412918398789000,3.9377890625,-0.0021783800330013037,-0.000485770870000124,0.0009186910465359688
1761412918408802000,3.947802001953125,0.0025705716107040644,-0.001808980479836464,-0.0016045172233134508
1761412918418815200,3.957815185546875,0.00038624677108600736,-0.00161270541138947,0.00040244078263640404
1761412918428828000,3.967827880859375,0.000838940090034157,-0.0011025480926036835,0.00012179859913885593
1761412918438840000,3.977840087890625,-0.0008998377597890794,0.0006767096929252148,-0.0025568087585270405
1761412918448853000,3.98785302734375,0.0008040926186367869,-0.00008899066597223282,0.0006255360785871744
1761412918458866200,3.9978662109375,0.0018163600470870733,-0.0024890312924981117,0.0012101000174880028
1761412918468879000,4.007879150390625,-0.0006601469940505922,-0.002327271504327655,0.000016851117834448814
1761412918478892000,4.01789208984375,0.0006919398438185453,-0.0009024804458022118,0.00006691855378448963
1761412918488905200,4.0279052734375,0.00010114948963746428,-0.0011473754420876503,0.000005494570359587669
1761412918498918100,4.037918212890625,0.0021326085552573204,-0.0013207471929490566,-0.00040623010136187077
1761412918508931000,4.04793115234375,-0.000203764095203951,-0.0006783353164792061,-0.0037107374519109726
1761412918518943000,4.05794287109375,0.001728359144181013,-0.0020956697408109903,-0.00159618747420609
1761412918528956200,4.0679560546875,-0.0010307444026693702,-0.00062541663646698,-0.003976365551352501
1761412918538969000,4.077968994140625,0.00015622645150870085,-0.002208932302892208,-0.001367266639135778
1761412918548982000,4.08798193359375,0.0002497840323485434,-0.000990013126283884,-0.0019477838650345802
1761412918558995000,4.097994873046875,-0.0012655546888709068,0.0018055071122944355,-0.0017408563289791346
1761412918569008000,4.108008056640625,-0.0010810170788317919,0.00039229216054081917,-0.0002726591192185879
1761412918579021300,4.118021240234375,0.002054056152701378,-0.0018223924562335014,-0.002022355794906616
1761412918589034000,4.128033935546875,-0.0014918986707925797,0.0012825638987123966,-0.0008425859268754721
1761412918599046100,4.138046142578125,-0.0009941540192812681,0.00028813956305384636,-0.0004998371005058289
1761412918609059000,4.14805908203125,-0.0010085278190672398,-0.0014270762912929058,-0.0016890732804313302
1761412918619072300,4.158072265625,-0.0011515396181493998,0.00160147063434124,0.00019697751849889755
1761412918629085200,4.168085205078125,-0.0006180328782647848,-0.0017202969174832106,-0.0019065462984144688
1761412918639098000,4.17809814453125,-0.0007964646792970598,0.0003580339252948761,-0.0012692519230768085
1761412918649111000,4.188111083984375,0.0016122303204610944,-0.0032383331563323736,-0.0010953121818602085
1761412918659124200,4.198124267578125,-0.0005124396993778646,-0.00013335375115275383,-0.002956595504656434
1761412918669137000,4.208136962890625,0.0011725154472514987,0.0020422572270035744,0.0004668664187192917
1761412918679149000,4.218149169921875,0.00010725099127739668,-0.0006523295305669308,0.0002125343307852745
1761412918689162000,4.228161865234375,0.0009729264420457184,-0.0005125594325363636,-0.004023049958050251
1761412918699175200,4.238175048828125,-0.001161330845206976,-0.0015059185680001974,-0.0007452314021065831
1761412918709188000,4.24818798828125,0.0005055232904851437,-0.0010209539905190468,-0.0035700565204024315
1761412918719201000,4.258200927734375,-0.0002164596226066351,0.000608101487159729,-0.0020437987986952066
1761412918729214200,4.268214111328125,0.0002783579984679818,-0.0003614528104662895,-0.00043600541539490223
1761412918739227100,4.27822705078125,0.00031484325882047415,0.00040793465450406075,0.0010835942812263966
1761412918749240000,4.288239990234375,-0.0015491815283894539,-0.001825655810534954,0.0016575262416154146
1761412918759252000,4.298251953125,-0.0006101509206928313,0.00006119394674897194,0.0007187617011368275
1761412918769265200,4.30826513671875,0.0005713462014682591,-0.0009392155334353447,0.0013507818803191185
1761412918779278300,4.3182783203125,-0.0005256098811514676,0.00004295818507671356,0.002908464754000306
1761412918789291300,4.328291259765625,0.000009296578355133533,0.000074741430580616,0.0004971828311681747
1761412918799304200,4.33830419921875,-0.0004492997541092336,-0.0017316807061433792,-0.001885547419078648
1761412918809317000,4.348317138671875,-0.002397495787590742,-0.0005247192457318306,-0.0005161259323358536
1761412918819330300,4.358330322265625,-0.001633168663829565,-0.0008035521022975445,0.0010189199820160866
1761412918829343000,4.368343017578125,-0.0017499641980975866,-0.0009694737382233143,-0.0014680208405479789
1761412918839355100,4.378355224609375,-0.0008636641432531178,-0.003658467438071966,-0.000025120098143815994
1761412918849368000,4.3883681640625,0.0012222102377563715,-0.0014065552968531847,0.0007920670323073864
1761412918859381200,4.39838134765625,-0.000635344535112381,0.0021927068009972572,-0.0005152788944542408
1761412918869394200,4.408394287109375,0.001783039653673768,-0.0010416614823043346,0.00007448135875165462
1761412918879407000,4.418406982421875,-0.001501436810940504,0.0011996547691524029,-0.002046460285782814
1761412918889420300,4.428420166015625,-0.00027986877830699086,-0.00017086602747440338,0.00045654806308448315
1761412918899433200,4.43843310546875,-0.00009531172690913081,-0.0025804939214140177,0.0011447088327258825
1761412918909445000,4.448445068359375,0.0008624889887869358,-0.0009291470050811768,0.001283041900023818
1761412918919458000,4.4584580078125,-0.0010579165536910295,-0.001119829248636961,-0.00033110007643699646
1761412918929471200,4.46847119140625,0.0015121143078431487,-0.0026077344082295895,-0.0000025024637579917908
1761412918939484200,4.478484130859375,0.00023779179900884628,-0.001812248257920146,-0.0005220852326601744
1761412918949497300,4.488497314453125,0.00022496364545077085,0.0015393691137433052,0.0005690890830010176
1761412918959510000,4.498510009765625,-0.0002650580136105418,-0.0009123370982706547,-0.00289834663271904
1761412918969523200,4.508523193359375,-0.0023461012169718742,-0.0013178877998143435,0.0006511653773486614
1761412918979536100,4.5185361328125,-0.0012664558598771691,-0.0015562407206743956,-0.0024753857869654894
1761412918989548300,4.52854833984375,-0.0008108289912343025,-0.0003444249741733074,-0.002259419532492757
1761412918999561000,4.53856103515625,0.0004054366727359593,0.0008998038247227669,0.001380855217576027
1761412919009574100,4.54857421875,-0.0014822594821453094,0.003764376975595951,-0.0014116037636995316
1761412919019587300,4.55858740234375,-0.00042019091779366136,0.0011201240122318268,-0.0004262342117726803
1761412919029600300,4.568600341796875,0.0010724045569077134,-0.004491319879889488,0.0023086077999323606
1761412919039613200,4.57861328125,-0.0014882248360663652,-0.0021043287124484777,-0.0011388540733605623
1761412919049626000,4.588626220703125,-0.0008733756840229034,0.00380532443523407,-0.00024572270922362804
1761412919059639300,4.598639404296875,-0.00015325690037570894,0.001192231196910143,0.0012344622518867254
1761412919069651200,4.608651123046875,-0.0026418068446218967,0.0007658223621547222,-0.002451623324304819
1761412919079664000,4.6186640625,-0.0026346163358539343,-0.004563429392874241,-0.0012691797455772758
1761412919089677000,4.628677001953125,0.0003528468660078943,-0.0031124763190746307,-0.00031976192258298397
1761412919099690200,4.638690185546875,-0.0019153673201799393,-0.0010783537290990353,0.0008373814634978771
1761412919109703200,4.648703125,0.001250819186680019,0.0031416756100952625,0.0019541222136467695
1761412919119716000,4.658716064453125,0.00006624509114772081,0.0012031607329845428,0.005014360882341862
1761412919129729300,4.668729248046875,0.0001383908384013921,0.0018430976197123528,0.003982546739280224
1761412919139742200,4.6787421875,-0.002044868655502796,-0.0019074322190135717,-0.00029102806001901627
1761412919149754000,4.688754150390625,-0.0005088935722596943,-0.0007495526224374771,-0.003086372744292021
1761412919159767000,4.69876708984375,-0.001971767982468009,-0.0006150626577436924,-0.0023814341984689236
1761412919169780200,4.7087802734375,0.001156736514531076,0.0017841975204646587,0.002009109826758504
1761412919179793200,4.718793212890625,0.0012267776764929295,0.0006779204122722149,0.001952650723978877
1761412919189806300,4.728806396484375,0.00029489112785086036,0.0017673545517027378,-0.0009319442324340343
1761412919199819000,4.738819091796875,-0.0011900875251740217,-0.001990898512303829,0.0003317256923764944
1761412919209832200,4.748832275390625,-0.0008280726033262908,0.0004405025392770767,0.002195477019995451
1761412919219845000,4.75884521484375,0.0007354692206718028,0.001898050308227539,0.0028191893361508846
1761412919229857300,4.768857177734375,-0.0006041305023245513,0.0021542543545365334,0.0029814518056809902
1761412919239870000,4.778869873046875,-0.0019045519875362515,0.0014700880274176598,0.00009218836203217506
1761412919249883100,4.788883056640625,0.002075324999168515,-0.0014533046633005142,0.00023956457152962685
1761412919259896300,4.798896240234375,-0.00172500591725111,-0.0018423923756927252,-0.0005202353931963444
1761412919269909200,4.8089091796875,-0.0010645759757608175,-0.0009577767923474312,0.0011786690447479486
1761412919279922200,4.818922119140625,0.0000014874676708132029,-0.00041475845500826836,0.0013022397179156542
1761412919289935000,4.82893505859375,0.0012803578283637762,-0.0004964657127857208,-0.00014668330550193787
1761412919299947300,4.838947265625,0.002297419123351574,-0.0005598487332463264,-0.002357905963435769
1761412919309960200,4.848960205078125,0.0013454039581120014,-0.0008239098824560642,-0.000597320613451302
1761412919319973000,4.85897314453125,-0.00018165254732593894,-0.0013016811572015285,0.0005784649401903152
1761412919329986000,4.868986083984375,0.0018162858905270696,-0.000777779147028923,-0.0006581776542589068
1761412919339999200,4.878999267578125,-0.0002106459141941741,0.0003383518196642399,-0.0006877386476844549
1761412919350012200,4.88901220703125,0.0011594018433243036,0.0017539290711283684,-0.00022919988259673119
1761412919360025000,4.899025146484375,-0.0012984295608475804,-0.0002415771596133709,0.002090679481625557
1761412919370038300,4.909038330078125,-0.0002803198294714093,0.0001227688044309616,-0.0003605235833674669
1761412919380050200,4.91905029296875,0.001294140936806798,-0.00043383194133639336,-0.0002761012874543667
1761412919390063000,4.92906298828125,0.002404985250905156,0.00264888908714056,0.00040759332478046417
1761412919400076000,4.939075927734375,-0.0005726951640099287,-0.00006061093881726265,-0.0012456971453502774
1761412919410089200,4.949089111328125,-0.002723993267863989,0.000017764512449502945,0.00085265445522964
1761412919420102100,4.95910205078125,0.0020782186184078455,-0.0008815852925181389,-0.0010823983466252685
1761412919430115300,4.969115234375,-0.0013818342704325914,-0.001351232873275876,-0.0005431794561445713
1761412919440128000,4.9791279296875,-0.0013104616664350033,0.0011947490274906158,-0.0017615756951272488
1761412919450141200,4.98914111328125,0.0017729171086102724,0.0017428300343453884,0.0009150102268904448
1761412919460153000,4.999153076171875,-0.0012508360669016838,0.00343500217422843,-0.0013524050591513515
1761412919470166300,5.009166259765625,0.0009500890737399459,0.0008444059640169144,0.0011000316590070724
1761412919480179000,5.019178955078125,-0.0012166588567197323,-0.00032152608036994934,-0.0005958691472187638
1761412919490192100,5.029192138671875,-0.00034451507963240147,-0.0014308115933090448,-0.0011898338561877608
1761412919500205300,5.039205322265625,0.0007343314355239272,-0.0024542645551264286,-0.0020684106275439262
1761412919510218200,5.04921826171875,0.00039185912464745343,-0.000978278461843729,0.0017311321571469307
1761412919520231200,5.059231201171875,-0.0005295946029946208,-0.003030243795365095,-0.0013267092872411013
1761412919530244000,5.069244140625,0.0015868267510086298,0.0012835669331252575,0.003262187819927931
1761412919540256300,5.07925634765625,0.0018920248840004206,-0.0009718644432723522,0.0002168633509427309
1761412919550269200,5.089269287109375,-0.00014439612277783453,0.0025715846568346024,-0.0016843643970787525
1761412919560282000,5.0992822265625,0.0002950254420284182,0.0017177751287817955,0.00188027648255229
1761412919570295000,5.109294921875,-0.0007405985379591584,0.0015757549554109573,0.0018399835098534822
1761412919580308200,5.11930810546875,0.0029683858156204224,-0.0011963294818997383,0.0001938838977366686
1761412919590321200,5.129321044921875,0.00009291322203353047,-0.00034191273152828217,-0.0012088275980204344
1761412919600334000,5.139333984375,0.0021363566629588604,-0.0010937228798866272,-0.0006319868844002485
1761412919610346000,5.149345947265625,-0.0005637666909024119,-0.001951061887666583,-0.002966254483908415
1761412919620359200,5.159359130859375,-0.0007086426485329866,-0.0007864614017307758,0.0023946885485202074
1761412919630372000,5.1693720703125,0.0012256898917257786,-0.0006629512645304203,-0.00034730485640466213
1761412919640385000,5.179385009765625,0.0000030326918931677938,0.0010076500475406647,-0.004962296690791845
1761412919650398200,5.189398193359375,0.0005439362721517682,-0.002156671602278948,-0.00039955321699380875
1761412919660411100,5.1994111328125,-0.0008592832600697875,0.0009592268615961075,0.00009552855044603348
1761412919670424300,5.20942431640625,0.0004629167669918388,-0.0014021345414221287,-0.0012931461678817868
1761412919680437000,5.21943701171875,0.00043415461550466716,-0.0013768344651907682,0.0005167380440980196
1761412919690449200,5.22944921875,-0.00025780234136618674,0.0007516704499721527,-0.000006713205948472023
1761412919700462000,5.239462158203125,0.0013813732657581568,-0.0002882936969399452,0.0010598828084766865
1761412919710475000,5.24947509765625,0.0012459252029657364,-0.0032443650998175144,0.002277143532410264
1761412919720488200,5.25948828125,0.000265615526586771,0.0024124551564455032,0.00026246230117976665
1761412919730500900,5.2695009765625,-0.0014081121189519763,-0.00022768555209040642,0.0012487133499234915
1761412919740514000,5.27951416015625,0.00001055377651937306,-0.003028265666216612,-0.0018512060632929206
1761412919750527000,5.28952685546875,-0.0005925657460466027,0.00005295407027006149,-0.00017352821305394173
1761412919760539100,5.2995390625,0.0010253045475110412,0.002020763698965311,-0.003317655995488167
1761412919770551800,5.3095517578125,-0.0011803946690633893,0.00264167133718729,0.0010543137323111296
1761412919780565000,5.31956494140625,0.0010545301483944058,-0.0020079417154192924,-0.00013052672147750854
1761412919790578000,5.329577880859375,0.0024465774185955524,-0.0005867271684110165,-0.0005824696272611618
1761412919800591000,5.339591064453125,-0.0014174028765410185,-0.00019471021369099617,-0.0024349645245820284
1761412919810604000,5.34960400390625,-0.0015577982412651181,-0.000483696348965168,-0.00020266324281692505
1761412919820617000,5.359616943359375,0.002527490956708789,-0.0000027297064661979675,-0.0008964167209342122
1761412919830630100,5.369630126953125,0.001004127669148147,-0.0010061454959213734,-0.00015030382201075554
1761412919840642800,5.379642822265625,-0.0011090906336903572,-0.0012077465653419495,-0.002813198370859027
1761412919850655000,5.389655029296875,-0.00175766134634614,0.0030782269313931465,-0.0005942060379311442
1761412919860668000,5.39966796875,0.00025142740923911333,-0.001259530195966363,-0.00046637433115392923
1761412919870681000,5.40968115234375,0.00016777522978372872,0.0005621714517474174,-0.00016365409828722477
1761412919880694000,5.419694091796875,0.0003254343755543232,-0.0020655698608607054,0.0030896635726094246
1761412919890707000,5.42970703125,-0.0007184197893366218,0.0004158732481300831,-0.001000146265141666
1761412919900719900,5.439719970703125,0.00015083595644682646,-0.00034099724143743515,0.0015093504916876554
1761412919910733000,5.449733154296875,-0.0015944194747135043,-0.003330875188112259,-0.0010308882920071483
1761412919920745000,5.459744873046875,0.0006136074662208557,0.0018114224076271057,-0.0011334200389683247
1761412919930758000,5.4697578125,-0.000036945362808182836,-0.001120938453823328,-0.001747925067320466
1761412919940771000,5.47977099609375,0.003081616247072816,-0.003596613183617592,-0.0030076000839471817
1761412919950784000,5.489783935546875,0.000478440138977021,-0.0024189408868551254,-0.002696045208722353
1761412919960797200,5.499797119140625,0.0002573977690190077,-0.0027132201939821243,-0.0037650379817932844
1761412919970809900,5.509809814453125,-0.00010124477557837963,0.0017958027310669422,-0.0012220622738823295
1761412919980823000,5.519822998046875,-0.0010402754414826632,0.002637894358485937,-0.0002734442241489887
1761412919990836000,5.5298359375,0.001113921171054244,-0.0021070565562695265,-0.001390830148011446
1761412920000848100,5.53984814453125,0.00017861899686977267,-0.0009725498966872692,0.00042278249748051167
1761412920010860800,5.54986083984375,0.002203019568696618,0.0026301280595362186,0.003282028017565608
1761412920020874000,5.5598740234375,-0.0013935796450823545,0.004480225965380669,0.0015688163693994284
1761412920030887000,5.569886962890625,0.0011443913681432605,0.0037030517123639584,0.0017073862254619598
1761412920040900000,5.579900146484375,0.0006208138656802475,-0.003417974803596735,0.0005699500907212496
1761412920050913000,5.5899130859375,0.0006098848534747958,-0.005068775732070208,-0.0015636124880984426
1761412920060926000,5.599926025390625,0.0015110985841602087,0.0011965767480432987,-0.0007838389137759805
1761412920070939100,5.609939208984375,0.00023679467267356813,0.00022128457203507423,-0.00041362736374139786
1761412920080951000,5.619950927734375,-0.0006503042532131076,-0.0012391929049044847,-0.00267411838285625
1761412920090964000,5.6299638671875,0.0011144825257360935,-0.0010236017405986786,-0.0012955875135958195
1761412920100977000,5.639976806640625,-0.0007713018567301333,-0.0034755743108689785,-0.0033880332484841347
1761412920110990000,5.649989990234375,0.002186196157708764,-0.0019102816004306078,-0.0002062374260276556
1761412920121003000,5.6600029296875,-0.0008466116851195693,0.0003994782455265522,0.002275562146678567
1761412920131016000,5.670015869140625,0.0020776595920324326,-0.00006938399747014046,0.00046838331036269665
1761412920141028900,5.68002880859375,0.0007841623155400157,0.0021221311762928963,0.0013589444570243359
1761412920151042000,5.6900419921875,-0.0002965241437777877,0.0008156248368322849,-0.0012761096004396677
1761412920161054000,5.700053955078125,-0.001847549108788371,0.0010028448887169361,-0.0024745319969952106
1761412920171067000,5.71006689453125,-0.0007580014644190669,-0.0002660169266164303,0.0014786135870963335
1761412920181080000,5.720080078125,-0.0014496244257315993,0.002297542057931423,-0.0001688178163021803
1761412920191093000,5.730093017578125,-0.0007255644886754453,0.002029972616583109,0.002185078803449869
1761412920201106200,5.740106201171875,0.0031021968461573124,0.002466997131705284,0.0019957278855144978
1761412920211118800,5.750118896484375,0.0016691642813384533,-0.0001757713034749031,-0.000054336851462721825
1761412920221132000,5.760132080078125,0.0032052756287157536,-0.00005299970507621765,-0.0006902995519340038
1761412920231144000,5.77014404296875,0.0005830524605698884,0.0007745344191789627,-0.0028614008333534002
1761412920241157000,5.7801572265625,-0.0010875484440475702,0.0003833160735666752,-0.0016232972266152501
1761412920251169800,5.790169677734375,-0.000023406653781421483,0.0007601478137075901,-0.0009580955374985933
1761412920261183000,5.800182861328125,0.001259704353287816,0.0006323158740997314,-0.0009674166794866323
1761412920271196000,5.81019580078125,-0.00008783649536781013,-0.0030118185095489025,-0.0037556171882897615
1761412920281209000,5.820208984375,-0.0005493622738867998,-0.0006940695457160473,-0.002592880977317691
1761412920291222000,5.830221923828125,-0.0011411710875108838,0.0009755650535225868,0.0010457825846970081
1761412920301235000,5.84023486328125,-0.00007963507960084826,0.0005886079743504524,-0.0008937977254390717
1761412920311247000,5.8502470703125,-0.0011055746581405401,0.0017353305593132973,-0.001101378700695932
1761412920321260000,5.860260009765625,-0.0017652397509664297,-0.00047669094055891037,0.00012793648056685925
1761412920331273000,5.87027294921875,-0.0008989133639261127,-0.001285759499296546,0.0006866676267236471
1761412920341286000,5.880285888671875,-0.0005702793132513762,0.00013157492503523827,0.0022403558250516653
1761412920351299000,5.890299072265625,-0.0001468330156058073,-0.0011364645324647427,-0.002409841399639845
1761412920361312000,5.90031201171875,0.00033200334291905165,0.0012507927604019642,0.0024970327503979206
1761412920371325000,5.910324951171875,-0.0015494346152991056,-0.0004490744322538376,-0.000006512505933642387
1761412920381336800,5.9203369140625,0.0010082654189318419,-0.001950564794242382,0.00045980699360370636
1761412920391350000,5.93035009765625,-0.0016688546165823936,0.00043283170089125633,-0.0006684791296720505
1761412920401363000,5.940363037109375,0.0002611381933093071,-0.0023072948679327965,-0.00038804812356829643
1761412920411375900,5.9503759765625,0.0003074189298786223,-0.0013720211572945118,-0.0031618820503354073
1761412920421389000,5.96038916015625,-0.0007384044001810253,0.0006903307512402534,-0.0023469547741115093
1761412920431402000,5.970402099609375,0.00013791993842460215,0.0007556644268333912,0.0006960232276469469
1761412920441415200,5.980415283203125,0.0017797588370740414,-0.0007623373530805111,0.0031088469550013542
1761412920451427800,5.990427734375,0.00013265744200907648,0.001333397813141346,0.002550992416217923
1761412920461440000,6.00043994140625,-0.0005682865157723427,0.000009806361049413681,-0.0004634395008906722
1761412920471453000,6.010452880859375,0.001142368302680552,0.000160320196300745,-0.0005676323780789971
1761412920481466000,6.020466064453125,0.0007982879178598523,-0.0015339830424636602,0.0005945712327957153
1761412920491479000,6.03047900390625,0.0008357431506738067,0.0003658873029053211,0.0008971586357802153
1761412920501492000,6.040491943359375,-0.0012409898918122053,0.0012953304685652256,-0.00003761099651455879
1761412920511505000,6.0505048828125,0.0009957825532183051,0.0025545861572027206,-0.00010147620923817158
1761412920521518000,6.06051806640625,0.0009228119160979986,0.001887463964521885,0.00014673033729195595
1761412920531531000,6.070531005859375,-0.00017092819325625896,0.0008173100650310516,0.0006908567156642675
1761412920541543000,6.08054296875,0.0011404122924432158,0.0018370342440903187,0.0011292130220681429
1761412920551556000,6.09055615234375,-0.0006800875416956842,-0.001369935693219304,0.000039889244362711906
1761412920561569000,6.100569091796875,0.002278684638440609,0.000011978670954704285,-0.0011521417181938887
1761412920571582000,6.11058203125,0.00008773180888965726,0.00043439585715532303,-0.0023335316218435764
1761412920581595000,6.120594970703125,-0.0006741986144334078,0.000017877668142318726,0.00009367335587739944
1761412920591608000,6.130608154296875,0.0011379740899428725,-0.0004952382296323776,-0.000006988411769270897
1761412920601621000,6.14062109375,-0.0012311739847064018,0.0012400774285197258,0.0014199332799762487
1761412920611634000,6.150634033203125,-0.00016132372547872365,0.0007486962713301182,0.0013135080225765705
1761412920621645800,6.160645751953125,-0.00015439948765560985,0.0014139539562165737,0.000029864488169550896
1761412920631659000,6.170658935546875,0.0037226530257612467,0.0005348725244402885,0.0020199536811560392
1761412920641672000,6.180671875,0.0018632342107594013,0.0015114541165530682,0.000465732766315341
1761412920651685000,6.19068505859375,0.0022017951123416424,0.0020638471469283104,-0.0026680731680244207
1761412920661698000,6.200697998046875,0.0006627542898058891,0.00011840788647532463,0.000500023365020752
1761412920671711000,6.2107109375,0.0008495255606248975,-0.0009258058853447437,0.001252566697075963
1761412920681724200,6.22072412109375,-0.00040668746805749834,-0.0005231359973549843,0.0009673421736806631
1761412920691736000,6.230736083984375,0.00016714620869606733,-0.002053838688880205,-0.0017990118358284235
1761412920701749000,6.2407490234375,-0.00046615349128842354,-0.0022802073508501053,0.0006686733104288578
1761412920711762000,6.250761962890625,-0.0017086503794416785,-0.0007417276501655579,-0.0006220305804163218
1761412920721774800,6.26077490234375,-0.0005642900359816849,-0.0016429410316050053,0.0004395053256303072
1761412920731788000,6.2707880859375,-0.0004420052282512188,0.0000731353648006916,-0.002584882080554962
1761412920741801000,6.280801025390625,-0.0007677098037675023,0.0026577329263091087,-0.0015925883781164885
1761412920751814000,6.29081396484375,-0.00007779445149935782,-0.002187140751630068,0.002204336691647768
1761412920761827000,6.3008271484375,0.000055896234698593616,0.000224351417273283,0.00021229241974651814
1761412920771839000,6.3108388671875,0.00048615015111863613,-0.00009309779852628708,0.002053373958915472
1761412920781852000,6.320851806640625,-0.00039828562876209617,0.0014997385442256927,0.0008703977800905704
1761412920791864800,6.33086474609375,-0.0004619024693965912,0.0008019562810659409,0.0027376168873161077
1761412920801878000,6.3408779296875,0.0023485315032303333,0.00038117729127407074,-0.0016672518104314804
1761412920811891000,6.350890869140625,0.0008348651463165879,0.0009837835095822811,-0.001565307378768921
1761412920821904000,6.36090380859375,0.002214648760855198,0.0004551461897790432,0.004973285831511021
1761412920831916800,6.370916748046875,-0.0011972850188612938,0.0018524862825870514,-0.0005211668321862817
1761412920841930000,6.380929931640625,-0.00012483008322305977,0.001730780117213726,-0.0006271606544032693
1761412920851942000,6.39094189453125,-0.0015088013606145978,-0.0006665061227977276,-0.0004403823986649513
1761412920861954800,6.400954833984375,0.0007378413574770093,-0.0017682560719549656,-0.0016899376641958952
1761412920871967700,6.4109677734375,0.001627791440114379,0.0002878536470234394,-0.0014460141537711024
1761412920881981000,6.42098095703125,-0.00014427602582145482,-0.0010658311657607555,0.00008077616803348064
1761412920891994000,6.430994140625,0.0017264721682295203,-0.00012211129069328308,-0.000525222159922123
1761412920902006800,6.4410068359375,0.001178127247840166,-0.0014001624658703804,-0.002277315827086568
1761412920912020000,6.45102001953125,0.0009224466048181057,-0.0010000295005738735,-0.0029356516897678375
1761412920922031900,6.461031982421875,-0.0008000859525054693,0.0014705848880112171,0.002531019039452076
1761412920932045000,6.471045166015625,-0.0005086858291178942,0.0030416296795010567,-0.0003246539272367954
1761412920942057700,6.4810576171875,0.0014878860674798489,-0.0004883897490799427,0.00047509348951280117
1761412920952071000,6.49107080078125,0.0009662800002843142,-0.002459652256220579,-0.00018045539036393166
1761412920962083800,6.501083740234375,-0.0004779522423632443,-0.00012299465015530586,0.0034281278494745493
1761412920972097000,6.511096923828125,-0.0005082378047518432,0.0015536756254732609,0.0022727421019226313
1761412920982110000,6.52110986328125,-0.000055234122555702925,-0.00034728879109025,0.0000452741514891386
1761412920992123000,6.531122802734375,-0.0014233614783734083,0.0017188182100653648,-0.0018275376642122865
1761412921002134800,6.541134765625,-0.00035649907658807933,0.0005265208892524242,-0.0006434962851926684
1761412921012148000,6.55114794921875,0.0011160151334479451,0.0005778158083558083,-0.0003329829778522253
1761412921022161000,6.561160888671875,-0.000322624429827556,-0.00010741548612713814,-0.0014014432672411203
1761412921032173800,6.571173828125,-0.0017987297615036368,-0.001906022196635604,0.00045528518967330456
1761412921042187000,6.58118701171875,-0.0002759342605713755,0.00018855417147278786,0.0005218640435487032
1761412921052200000,6.591199951171875,0.0011567071778699756,-0.0022288383916020393,0.0002703485079109669
1761412921062212900,6.601212890625,-0.0019112543668597937,-0.0005529113113880157,-0.0012508492218330503
1761412921072225800,6.611225830078125,-0.00009214880992658436,0.00010837288573384285,-0.001051352359354496
1761412921082238000,6.621238037109375,0.0017148059559985995,0.0012884195894002914,-0.0003272388130426407
1761412921092251000,6.6312509765625,0.0010406298097223043,0.0012014159001410007,0.0014681892935186625
1761412921102263800,6.641263916015625,-0.0004411530098877847,-0.0020556303206831217,-0.0023132332134991884
1761412921112276700,6.65127685546875,0.002012972952798009,-0.0034402390010654926,0.0012942354660481215
1761412921122290000,6.6612900390625,-0.0007399366586469114,-0.001231946051120758,-0.0010373621480539441
1761412921132303000,6.67130322265625,-0.0006882508751004934,0.001794101670384407,-0.001611537765711546
1761412921142315800,6.681315673828125,0.0006936633726581931,-0.0013905060477554798,-0.0011348320404067636
1761412921152328000,6.691327880859375,-0.0010035804007202387,0.0015775547362864017,-0.0004327062051743269
1761412921162340900,6.7013408203125,-0.000332463881932199,0.001157307531684637,0.0006008667405694723
1761412921172354000,6.71135400390625,-0.001920837676152587,0.0005118264816701412,-0.0026588335167616606
1761412921182366700,6.72136669921875,0.0012262198142707348,-0.001203249441459775,0.0003939480520784855
1761412921192380000,6.7313798828125,-0.0013822425389662385,-0.002159970346838236,-0.0013071986613795161
1761412921202392800,6.741392822265625,0.00029475006158463657,-0.0001831059344112873,-0.0027359845116734505
1761412921212406000,6.751406005859375,-0.002577821258455515,0.0006704404950141907,-0.0006054126424714923
1761412921222419000,6.7614189453125,-0.0005519545520655811,0.0005916110239923,0.0016707913018763065
1761412921232430800,6.771430908203125,0.0021444803569465876,-0.0020868077408522367,-0.0006178953917697072
1761412921242443800,6.78144384765625,0.0009668305283412337,-0.0024282250087708235,-0.0018538683652877808
1761412921252457000,6.79145703125,-0.0004891239223070443,0.000593740027397871,0.000848493305966258
1761412921262470000,6.801469970703125,0.0009644293459132314,-0.0012880496215075254,-0.0017872372409328818
1761412921272482800,6.81148291015625,-0.000025287852622568607,0.0017496184445917606,0.0003858588170260191
1761412921282496000,6.82149609375,-0.001671654055826366,-0.0006277854554355145,-0.000736663700081408
1761412921292509000,6.831509033203125,0.0017490081954747438,-0.001624207478016615,-0.00041031441651284695
1761412921302521900,6.84152197265625,-0.0008568948251195252,0.0010970104485750198,-0.002551762154325843
1761412921312533800,6.85153369140625,-0.0012068236246705055,0.0005465378053486347,0.00040456303395330906
1761412921322547000,6.861546875,0.000731424952391535,0.0024911779910326004,0.0005643528420478106
1761412921332560000,6.871559814453125,0.002134587848559022,0.0010306998156011105,-0.0015983569901436567
1761412921342572800,6.88157275390625,0.00048209642409347,-0.0021994481794536114,0.00031618960201740265
1761412921352585700,6.891585693359375,0.0013670704793184996,-0.0021375413052737713,-0.0004515956388786435
1761412921362599000,6.901598876953125,0.00026904919650405645,-0.0011969127226620913,-0.00034933025017380714
1761412921372612000,6.911612060546875,0.0003810445195995271,-0.0018979415763169527,-0.0014377720654010773
1761412921382624000,6.9216240234375,0.002168291714042425,0.0008131563663482666,-0.0015397710958495736
1761412921392637000,6.931636962890625,-0.00122838222887367,-0.00003772275522351265,-0.00039207679219543934
1761412921402649900,6.94164990234375,-0.001314402325078845,-0.002266522264108062,0.0018604248762130737
1761412921412663000,6.9516630859375,-0.0000028396316338330507,0.0007249033078551292,-0.0005024118581786752
1761412921422676000,6.961676025390625,-0.00169101741630584,-0.0011283904314041138,-0.0013692708453163505
1761412921432689000,6.97168896484375,-0.0007830559625290334,0.0024083885364234447,0.00027921656146645546
1761412921442701800,6.981701904296875,0.00041430123383179307,-0.001331488834694028,-0.0016246772138401866
1761412921452715000,6.991715087890625,-0.0012174700386822224,0.0015971665270626545,-0.000982875470072031
1761412921462727000,7.001726806640625,-0.00007390871178358793,-0.000923781655728817,0.00122728175483644
1761412921472739800,7.01173974609375,-0.002057731384411454,0.0009972951374948025,-0.0029124373104423285
1761412921482752800,7.021752685546875,0.0010858639143407345,0.0005655968561768532,0.002101762453094125
1761412921492766000,7.031765869140625,0.0002588120987638831,0.0007570120505988598,0.00020680343732237816
1761412921502779000,7.04177880859375,-0.0007007248350419104,0.000141022726893425,0.002459038747474551
1761412921512791800,7.051791748046875,0.0019424197962507606,0.0020653242245316505,-0.0006118784658610821
1761412921522805000,7.061804931640625,-0.0007859887555241585,-0.0020188994240015745,-0.0011072264751419425
1761412921532817000,7.07181689453125,0.00021368777379393578,-0.0012833653017878532,0.0007904921658337116
1761412921542830000,7.081830078125,0.0021285004913806915,0.002161966171115637,-0.0007924907840788364
1761412921552842800,7.0918427734375,-0.0004532427410595119,0.0002517448738217354,0.0031523399520665407
1761412921562856000,7.10185595703125,0.0020495960488915443,0.0022776112891733646,-0.00009565148502588272
1761412921572868900,7.111868896484375,0.002006609458476305,0.0019336752593517303,-0.0005019934615120292
1761412921582882000,7.121882080078125,0.0006481310119852424,0.002907061018049717,0.0006610089913010597
1761412921592894700,7.131894775390625,0.0016876114532351494,-0.0007139467634260654,-0.003849614877253771
1761412921602908000,7.141907958984375,0.0009611011482775211,-0.00012885034084320068,-0.0017382609657943249
1761412921612919800,7.151919921875,-0.0018682656809687614,0.001126924529671669,0.0003425963222980499
1761412921622933000,7.16193310546875,-0.0018557488219812512,0.0006528818048536777,-0.00021347170695662498
1761412921632946000,7.17194580078125,0.00045147392665967345,0.002344987355172634,0.002412899397313595
1761412921642958800,7.181958740234375,-0.00173285068012774,0.002343921922147274,-0.0016468232497572899
1761412921652972000,7.191971923828125,0.00008113676449283957,0.0014533777721226215,0.000872510951012373
1761412921662985000,7.20198486328125,-0.0012493785470724106,-0.002014590660110116,-0.000659871962852776
1761412921672998000,7.211997802734375,0.00122758315410465,-0.0005172942765057087,-0.0019935998134315014
1761412921683010800,7.2220107421875,-0.0002755050081759691,-0.0023024112451821566,0.0009217627812176943
1761412921693023000,7.23202294921875,-0.00023700264864601195,-0.001274606678634882,0.00013502314686775208
1761412921703036000,7.242035888671875,0.0011734074214473367,0.0009408770129084587,-0.00014247815124690533
1761412921713049300,7.25204931640625,0.0014095271471887827,0.000822615809738636,-0.0003036262933164835
1761412921723062500,7.2620625,0.0019192560575902462,0.0016641747206449509,0.0029177332762628794
1761412921733075500,7.272075439453125,0.0018779729725793004,0.000771697610616684,0.0006912157405167818
1761412921743088400,7.28208837890625,0.0016318970592692494,-0.00020488351583480835,0.0014941589906811714
1761412921753101600,7.2921015625,0.0014452004106715322,0.0014499328099191189,-0.0009921828750520945
1761412921763113500,7.302113525390625,-0.0007031717104837298,-0.00043531879782676697,0.00023207231424748898
1761412921773126700,7.312126708984375,0.0009167887037619948,-0.001905913231894374,-0.0006188837578520179
1761412921783139600,7.3221396484375,-0.00020360319467727095,-0.0009173480793833733,-0.000592784839682281
1761412921793152500,7.332152587890625,0.00016308340127579868,-0.0007025669328868389,-0.0019216224318370223
1761412921803165400,7.34216552734375,0.00017346974345855415,-0.003820595797151327,-0.00007818243466317654
1761412921813178600,7.3521787109375,-0.0002570585929788649,-0.00009139999747276306,-0.0014292923733592033
1761412921823191300,7.36219140625,0.0011498893145471811,-0.003464293200522661,0.00022879173047840595
1761412921833204500,7.37220458984375,-0.0010734712705016136,0.0008888267911970615,0.00015457253903150558
1761412921843216400,7.38221630859375,0.0005768896080553532,-0.0009008175693452358,0.0005234205164015293
1761412921853229600,7.3922294921875,-0.00002821700763888657,0.0009586219675838947,0.0004512243904173374
1761412921863242500,7.402242431640625,0.0007997598149813712,-0.00008986471220850945,-0.0017357635078951716
1761412921873255400,7.41225537109375,0.0006364397704601288,0.001150358933955431,-0.0002450617030262947
1761412921883268600,7.4222685546875,-0.00013907271204516292,-0.0023162777069956064,-0.0017287086229771376
1761412921893281500,7.432281494140625,0.0015309592708945274,0.0010212622582912445,0.003383734729140997
1761412921903294500,7.44229443359375,0.000048377434723079205,0.0015051583759486675,-0.0025678975507616997
1761412921913307400,7.452307373046875,0.00194058776833117,-0.0005820938386023045,-0.0017022561514750123
1761412921923319600,7.462319580078125,0.0007296485127881169,-0.0008404203690588474,-0.0015065137995406985
1761412921933332500,7.47233251953125,0.0006951222894713283,0.0003106202930212021,-0.0002251605037599802
1761412921943345700,7.482345703125,-0.0014362054644152522,0.0017734947614371777,0.0020505106076598167
1761412921953358300,7.4923583984375,0.0012270300649106503,-0.0004757856950163841,0.002369017107412219
1761412921963371500,7.50237158203125,0.003008951200172305,-0.0015778020024299622,0.002696319716051221
1761412921973384400,7.512384521484375,0.0019255459774285555,-0.0011031213216483593,-0.0024884522426873446
1761412921983397400,7.5223974609375,0.00036013987846672535,-0.0009904694743454456,0.0005246482323855162
1761412921993409300,7.5324091796875,0.00023763376520946622,-0.0006445823237299919,0.0013111254666000605
1761412922003422500,7.54242236328125,0.00030208221869543195,0.0025765113532543182,0.0014275056309998035
1761412922013435600,7.552435546875,0.0009803324937820435,0.0008049765601754189,0.0027791394386440516
1761412922023448600,7.562448486328125,0.0002671380643732846,0.0015149754472076893,0.00021265121176838875
1761412922033461500,7.57246142578125,0.000522676738910377,0.0016307365149259567,-0.00032004667446017265
1761412922043474400,7.582474365234375,0.000865159323439002,-0.0019735859241336584,-0.001371995429508388
1761412922053487600,7.592487548828125,0.0003647217818070203,0.0008158553391695023,-0.0004610471660271287
1761412922063500300,7.602500244140625,-0.00027976318961009383,-0.00013436051085591316,0.0006007552146911621
1761412922073512400,7.612512451171875,-0.000343244057148695,0.0036019240505993366,-0.00001089111901819706
1761412922083525400,7.622525390625,0.000052501680329442024,0.0028538419865071774,-0.0017259669257327914
1761412922093538600,7.63253857421875,-0.001036334317177534,-0.0021219290792942047,0.0012299742083996534
1761412922103551500,7.642551513671875,0.001460379222407937,-0.0017994202207773924,-0.00047018786426633596
1761412922113564400,7.652564453125,0.000566662463825196,0.00013489462435245514,-0.0006315424107015133
1761412922123577600,7.66257763671875,0.00035653903614729643,0.004458270967006683,0.00010934914462268353
1761412922133590500,7.672590576171875,0.002514134394004941,0.00220603309571743,0.004434536211192608
1761412922143603500,7.682603515625,0.0005665648495778441,-0.0034012526739388704,0.0008320782799273729
1761412922153615400,7.692615478515625,0.0005946184392087162,0.000843447633087635,0.0008535690139979124
1761412922163628500,7.702628662109375,0.0005932868807576597,0.0020770239643752575,0.0005286633968353271
1761412922173641500,7.712641357421875,0.0018476835684850812,0.002647502813488245,0.000395570183172822
1761412922183654700,7.722654541015625,0.0013496724423021078,0.0003116438165307045,0.0016643002163618803
1761412922193667300,7.732667236328125,-0.00006525282515212893,-0.00020764628425240517,0.00046265125274658203
1761412922203680500,7.742680419921875,-0.0005459534004330635,-0.00047609303146600723,0.00000485382042825222
1761412922213693400,7.752693359375,0.00045646773651242256,-0.0014226576313376427,0.0005492561031132936
1761412922223705600,7.76270556640625,0.0003041349700652063,0.0012202635407447815,0.0035647533368319273
1761412922233718300,7.77271826171875,0.0017428076826035976,0.0010736859403550625,0.000980098033323884
1761412922243731500,7.7827314453125,-0.0005741423810832202,0.001724296249449253,0.0015508134383708239
1761412922253744600,7.79274462890625,0.000905784429050982,-0.0004309271462261677,-0.0023092369083315134
1761412922263757600,7.802757568359375,-0.003039422444999218,-0.0008069653995335102,-0.004225115291774273
1761412922273770500,7.8127705078125,0.0009609359549358487,0.0005460106767714024,-0.0009920700686052442
1761412922283783400,7.822783447265625,-0.00048223102930933237,0.000694881659001112,0.0013816053979098797
1761412922293796600,7.832796630859375,-0.0005722733912989497,-0.003786543384194374,-0.0008648855146020651
1761412922303808500,7.84280859375,-0.00034057837910950184,-0.0007414850406348705,-0.0012473154347389936
1761412922313821400,7.852821533203125,-0.0018485693726688623,0.0008199773728847504,-0.001365389209240675
1761412922323834400,7.86283447265625,-0.0005510773626156151,0.001790700014680624,-0.0024495620746165514
1761412922333847600,7.87284765625,0.0011476768413558602,0.001826391089707613,-0.0021578557789325714
1761412922343860500,7.882860595703125,-0.0012033616658300161,0.0008556689135730267,-0.001519495970569551
1761412922353873400,7.892873291015625,0.000007993890903890133,-0.0019857403822243214,-0.00150201260112226
1761412922363886600,7.902886474609375,0.0020106909796595573,-0.001669623190537095,-0.0014641957823187113
1761412922373898500,7.9128984375,0.0007617094088345766,0.1495211124420166,0.13411734998226166
1761412922383911700,7.92291162109375,0.005066442769020796,0.20748001337051392,0.17938044667243958
1761412922393924400,7.93292431640625,-0.011391596868634224,0.0572914220392704,0.002571024000644684
1761412922403937500,7.9429375,0.006855317857116461,-0.14332450926303864,-0.1772184520959854
1761412922413950500,7.952950439453125,0.0030561352614313364,-0.26780974864959717,-0.1859395056962967
1761412922423963600,7.962963623046875,0.0077038840390741825,-0.18848031759262085,-0.06424875557422638
1761412922433976300,7.972976318359375,0.0022321888245642185,0.07156793028116226,0.08689045161008835
