time,seconds_elapsed,z,y,x
1761412826448633600,0.066633544921875,0.001381809706799686,0.0003535812720656395,-0.007551498711109161
1761412826458646800,0.076646728515625,0.00014769448898732662,-0.0014876856002956629,-0.0006520656170323491
1761412826468659700,0.08665966796875,-0.0033365192357450724,-0.0018530713859945536,0.00492699071764946
1761412826478672600,0.096672607421875,0.00019172095926478505,-0.002375558950006962,0.005951964296400547
1761412826488685800,0.106685791015625,0.0011888084700331092,-0.00031001120805740356,0.0020959738176316023
1761412826498698800,0.11669873046875,0.0007359346491284668,0.0019019939936697483,-0.004229146987199783
1761412826508712000,0.1267119140625,0.0021631228737533092,-0.0012895381078124046,-0.004750593565404415
1761412826518724600,0.136724609375,-0.0019947863183915615,-0.0023208369966596365,-0.001600855146534741
1761412826528737800,0.14673779296875,0.001588230486959219,-0.0017706279177218676,0.001257781870663166
1761412826538750700,0.156750732421875,-0.003101323265582323,0.0016223029233515263,0.002868007868528366
1761412826548763600,0.166763671875,-0.0014901108806952834,-0.00020649004727602005,-0.0011411146260797977
1761412826558776600,0.176776611328125,0.0016356732230633497,-0.0030398168601095676,-0.003995587583631277
1761412826568789800,0.186789794921875,-0.0006972558912821114,0.0002688942477107048,-0.0031569581478834152
1761412826578803000,0.196802978515625,0.0008997587719932199,0.00011127069592475891,0.00010060216300189495
1761412826588815600,0.206815673828125,-0.0021647405810654163,0.0024955989792943,0.0002468095626682043
1761412826598828800,0.216828857421875,0.0012959364103153348,0.0011528711766004562,0.00513011310249567
1761412826608841700,0.226841796875,0.002393424976617098,0.00047696055844426155,0.0015143391210585833
1761412826618854700,0.236854736328125,-0.0016957836924120784,0.0005233986303210258,-0.0006622079527005553
1761412826628867600,0.24686767578125,-0.0020119010005146265,0.00035934802144765854,-0.000747695448808372
1761412826638880800,0.256880859375,0.001209483714774251,0.001114741899073124,0.002915712771937251
1761412826648894000,0.26689404296875,0.001376197556965053,-0.00033694738522171974,0.003162321401759982
1761412826658906600,0.27690673828125,0.0004545731353573501,0.001120245549827814,-0.00035110744647681713
1761412826668919800,0.286919921875,0.001527827000245452,-0.0013687447644770145,-0.000004363711923360825
1761412826678932700,0.2969326171875,0.00186645844951272,-0.0015057465061545372,-0.0025280513800680637
1761412826688945700,0.306945556640625,-0.0008784616366028786,0.0008221226744353771,-0.0026249904185533524
1761412826698958600,0.31695849609375,0.00017769617261365056,-0.0007145097479224205,-0.0004659511614590883
1761412826708971800,0.3269716796875,-0.0004494782187975943,-0.0009083878248929977,-0.0008023083209991455
1761412826718985000,0.33698486328125,0.0000394254457205534,0.0005322056822478771,-0.0005684422794729471
1761412826728997600,0.34699755859375,0.0010548888240009546,-0.0005871211178600788,-0.0001130418386310339
1761412826739010800,0.3570107421875,-0.0033418359234929085,-0.00080074742436409,-0.00015414925292134285
1761412826749023700,0.367023681640625,-0.00007440370973199606,0.0020424434915184975,-0.0015123612247407436
1761412826759036700,0.37703662109375,-0.0014856911730021238,0.0012601716443896294,-0.0006736008217558265
1761412826769049600,0.387049560546875,0.0009103548945859075,0.0005853264592587948,-0.00042113312520086765
1761412826779062800,0.397062744140625,0.0009262593230232596,-0.0007237722165882587,0.0013007719535380602
1761412826789075700,0.40707568359375,0.0009257267229259014,-0.001575983827933669,0.001875215908512473
1761412826799088600,0.417088623046875,0.0007414444116875529,-0.002313171746209264,-0.0025411404203623533
1761412826809101800,0.427101806640625,-0.0005323455552570522,0.0005137738771736622,-7.511116564273834e-7
1761412826819114800,0.43711474609375,-0.00024091993691399693,0.0006726505234837532,-0.003528432920575142
1761412826829127700,0.447127685546875,-0.0012233600718900561,0.00023349514231085777,0.0010631231125444174
1761412826839140600,0.457140625,0.0015203452203422785,0.0024820840917527676,-0.0018212669529020786
1761412826849153800,0.46715380859375,-0.0007460047490894794,0.00023544160649180412,-0.001310738967731595
1761412826859166700,0.477166748046875,-0.000935408053919673,-0.0009012413211166859,0.00004709092900156975
1761412826869179600,0.4871796875,0.0017226929776370525,-0.00041228486225008965,-0.0024384374264627695
1761412826879192800,0.49719287109375,0.0017891202587634325,0.001040696632117033,0.0013114830944687128
1761412826889205800,0.507205810546875,-0.0000015891855582594872,-0.0010176603682339191,0.005421006586402655
1761412826899218700,0.51721875,0.0021134507842361927,-0.00047470955178141594,0.0009455829858779907
1761412826909231600,0.527231689453125,0.0016583164688199759,-0.002593520563095808,-0.0014816218754276633
1761412826919244800,0.537244873046875,-0.00033269470441155136,0.003505563363432884,-0.0015054370742291212
1761412826929257700,0.5472578125,0.0019869187381118536,0.0008751591667532921,0.0003944619093090296
1761412826939270700,0.557270751953125,-0.000002485292498022318,-0.0002930331975221634,0.000046255066990852356
1761412826949283800,0.567283935546875,0.0018015399109572172,-0.0019029141403734684,0.000049184542149305344
1761412826959296800,0.577296875,0.0005314414156600833,-0.0018183188512921333,0.0005233590491116047
1761412826969309700,0.587309814453125,0.00018869258929044008,-0.0014124531298875809,0.00028314185328781605
1761412826979322600,0.597322509765625,-0.0011851843446493149,0.0010761157609522343,-7.69738107919693e-7
1761412826989335800,0.607335693359375,-0.0004932950250804424,-0.0017124800942838192,-0.0017720380565151572
1761412826999348700,0.6173486328125,-0.0019116844050586224,0.0012057898566126823,0.00002413196489214897
1761412827009361700,0.627361572265625,0.001858552685007453,-0.0005508312024176121,-0.0006166244857013226
1761412827019374800,0.637374755859375,-0.0004380081663839519,0.0009046313352882862,-0.0005583774764090776
1761412827029387800,0.6473876953125,-0.00013547303387895226,-0.00030870502814650536,-0.0023658648133277893
1761412827039400700,0.657400634765625,0.0006563594215549529,-0.002186078578233719,-0.001150569529272616
1761412827049413600,0.66741357421875,0.0024974027182906866,-0.00043158791959285736,-0.0025748279877007008
1761412827059426800,0.6774267578125,-0.0008798266062512994,-0.0023801117204129696,0.0030030678026378155
1761412827069439700,0.687439697265625,-0.0000798130058683455,0.0014122296124696732,0.0022621764801442623
1761412827079452700,0.69745263671875,-0.00004912237636744976,0.000017708633095026016,0.003509295405820012
1761412827089465600,0.707465576171875,0.0003000181168317795,-0.0014723299536854029,-0.000695836148224771
1761412827099478800,0.717478759765625,-0.0007612703484483063,-0.00026635127142071724,-0.0012357732048258185
1761412827109491700,0.72749169921875,0.003011363558471203,-0.0009656972251832485,-0.0020986374001950026
1761412827119504600,0.737504638671875,0.0018368803430348635,0.0015165884979069233,0.0011290193069726229
1761412827129517800,0.747517822265625,0.0011223541805520654,0.0017922255210578442,-0.0004465067759156227
1761412827139530800,0.75753076171875,-0.0004566024290397763,0.0026116198860108852,0.00011384557001292706
1761412827149543700,0.767543701171875,-0.0020656841807067394,0.0017514191567897797,-0.0015548912342637777
1761412827159556600,0.777556640625,-0.002075871918350458,-0.0002037612721323967,-0.0038832933641970158
1761412827169569800,0.78756982421875,-0.00008515914669260383,-0.00029670586809515953,0.000043537700548768044
1761412827179582700,0.797582763671875,0.00009707064600661397,-0.0002788272686302662,-0.0023959556128829718
1761412827189595600,0.807595703125,0.001129311858676374,-0.0004649823531508446,0.0003329855389893055
1761412827199608800,0.81760888671875,-0.0006323597044683993,0.000009112060070037842,0.00015790225006639957
1761412827209621800,0.827621826171875,-0.0012161246268078685,0.00017689121887087822,-0.0007606219733133912
1761412827219634700,0.837634765625,0.0009739726083353162,0.0002559395506978035,-0.0004033418372273445
1761412827229647600,0.847647705078125,-0.0011086193844676018,0.0014879177324473858,0.0020968338940292597
1761412827239660800,0.857660888671875,0.0007093165186233819,0.0002400074154138565,-0.00034948508255183697
1761412827249673700,0.867673828125,0.00092370092170313,0.0006322911940515041,-0.00023283855989575386
1761412827259686700,0.877686767578125,0.0008332094294019043,-0.0003800676204264164,0.0022316572722047567
1761412827269699800,0.887699951171875,0.0010246906895190477,0.0001363190822303295,0.0020963686984032393
1761412827279712800,0.897712646484375,0.00046459288569167256,-0.0023620997089892626,-0.0011892005568370223
1761412827289725700,0.9077255859375,0.00023369683185592294,-0.0006824438460171223,-0.0034073474816977978
1761412827299738600,0.917738525390625,0.0006059008883312345,0.0018911422230303288,0.00028063124045729637
1761412827309751800,0.927751708984375,-0.00046895089326426387,0.0012051118537783623,-0.001085836673155427
1761412827319764700,0.9377646484375,0.00010336207924410701,0.001311704982072115,-0.0003231898881494999
1761412827329777700,0.947777587890625,0.001882087322883308,-0.00005130050703883171,-0.0016744777094572783
1761412827339790800,0.957790771484375,-0.0010259945411235094,0.0010835696011781693,-0.0019517996115610003
1761412827349803800,0.9678037109375,-0.0000965512590482831,-0.0036770969163626432,0.0013241549022495747
1761412827359816700,0.977816650390625,-0.0003964447241742164,-0.00044069811701774597,0.000620557926595211
1761412827369829600,0.98782958984375,-0.0009493169491179287,0.0009084590710699558,-0.001639933092519641
1761412827379842800,0.9978427734375,-0.0008635416743345559,-0.0014150405768305063,-0.0017824340611696243
1761412827389855700,1.007855712890625,0.0022281219717115164,-0.0026161260902881622,0.0007632817141711712
1761412827399868700,1.01786865234375,-0.0009068676736205816,0.0005711610428988934,0.0013710693456232548
1761412827409881900,1.0278818359375,0.0000028681824915111065,-0.0005913088098168373,0.00007597403600811958
1761412827419894800,1.037894775390625,-0.00012995698489248753,-0.0005110865458846092,0.0023445303086191416
1761412827429907700,1.04790771484375,-0.0011225170455873013,0.00006974861025810242,0.0006060185842216015
1761412827439920600,1.057920654296875,0.001510145142674446,0.0020223124884068966,-0.001462247222661972
1761412827449933800,1.067933837890625,-0.0006976153235882521,0.0025882339105010033,-0.000616959878243506
1761412827459946800,1.07794677734375,-0.001964384224265814,-0.001555148744955659,0.00019278633408248425
1761412827469959700,1.087959716796875,-0.0017894143238663673,-0.0017737941816449165,-0.00035103107802569866
1761412827479972900,1.097972900390625,0.0003073152620345354,-0.000529914628714323,0.004300807137042284
1761412827489985800,1.10798583984375,-0.0000881641753949225,-0.001052160281687975,-0.00023402366787195206
1761412827499998700,1.117998779296875,0.0002095252857543528,-0.0014770643319934607,-0.0002550981007516384
1761412827510011600,1.12801171875,0.000251603196375072,-0.0008552162908017635,0.002047204412519932
1761412827520024800,1.13802490234375,0.0012346780858933926,0.0013558878563344479,-0.0017261260654777288
1761412827530037800,1.148037841796875,-0.00009530456736683846,0.00216628797352314,-0.001456347992643714
1761412827540050700,1.15805078125,0.00005527702160179615,-0.0010005049407482147,-0.002607929054647684
1761412827550063900,1.16806396484375,0.000019058003090322018,-0.0018684291280806065,-0.0013943264493718743
1761412827560076800,1.178076904296875,0.0016469510737806559,-0.0027475026436150074,0.001171726267784834
1761412827570089700,1.18808984375,-0.0008287234813906252,-0.00003880169242620468,0.0009948923252522945
1761412827580102700,1.1981025390625,-0.0007169912569224834,0.002456079237163067,0.0012028166092932224
1761412827590115800,1.20811572265625,-0.0007241817656904459,0.0008938689716160297,0.0020683438051491976
1761412827600128800,1.218128662109375,-0.0016338126733899117,0.000981044489890337,-0.0006702198879793286
1761412827610141700,1.2281416015625,-0.0024434137158095837,-0.00019367597997188568,-0.000401240773499012
1761412827620155100,1.238155029296875,-0.0014681839384138584,0.00001516006886959076,-0.0017882164102047682
1761412827630168000,1.24816796875,0.0009286609711125493,-0.0018911303486675024,-0.00009551132097840309
1761412827640181000,1.258180908203125,-0.00012432073708623648,0.0005308357067406178,-0.00038728024810552597
1761412827650194000,1.26819384765625,0.0009103174088522792,-0.0014686656650155783,0.00016452674753963947
1761412827660207000,1.27820703125,0.0011001582024618983,0.0011329096741974354,-0.0006309414748102427
1761412827670219800,1.2882197265625,-0.00026817398611456156,0.00104076461866498,-0.00021495576947927475
1761412827680233000,1.29823291015625,-0.00020438869250938296,-0.000023710541427135468,0.0012308270670473576
1761412827690246000,1.308245849609375,-0.00001051055733114481,0.001432239543646574,0.00034479331225156784
1761412827700259000,1.318259033203125,0.00048047536984086037,-0.001106242649257183,-0.0014161814469844103
1761412827710272000,1.32827197265625,0.00023200246505439281,-0.001088133081793785,0.0009324601851403713
1761412827720285000,1.338284912109375,0.0017087640007957816,-0.0011207223869860172,0.0021958970464766026
1761412827730298000,1.348298095703125,0.0018240789650008082,0.00002257293090224266,0.0005961363203823566
1761412827740310800,1.358310791015625,0.0013835246209055185,0.0002890685573220253,0.0012279334478080273
1761412827750324000,1.368323974609375,0.0011859179940074682,0.0009580547921359539,0.0021051785442978144
1761412827760337000,1.3783369140625,-0.00019184919074177742,-0.001016039401292801,-0.003962177317589521
1761412827770350000,1.38835009765625,0.0014888716395944357,0.0020796190947294235,0.0014096847735345364
1761412827780363000,1.398363037109375,0.00000947160879150033,0.000070247333496809,0.0023061956744641066
1761412827790376000,1.4083759765625,-0.000306911941152066,-0.00017130142077803612,-0.00013991747982800007
1761412827800389000,1.41838916015625,-0.000310751871438697,0.00007535656914114952,-0.003525549778714776
1761412827810401800,1.42840185546875,0.0001382571063004434,0.0013637938536703587,-0.001660271780565381
1761412827820415000,1.4384150390625,0.0008350909920409322,-0.00046291667968034744,0.0011684955097734928
1761412827830428000,1.448427978515625,-0.0015500360168516636,0.0012127440422773361,0.000018542632460594177
1761412827840441000,1.458441162109375,0.0008490358013659716,0.0007338309660553932,-0.0017548506148159504
1761412827850454000,1.4684541015625,-0.0006953313131816685,0.0001266305334866047,-0.0006730746245011687
1761412827860467000,1.478467041015625,-0.0004979993682354689,-0.0028079936746507883,-0.0013952499721199274
1761412827870480100,1.488480224609375,0.0003502174513414502,0.0011776932515203953,-0.002434415277093649
1761412827880492800,1.498492919921875,-0.0012659587664529681,-0.00020784186199307442,-0.0021245162934064865
1761412827890506000,1.508506103515625,0.0014115833910182118,0.0004459642805159092,-0.00030158250592648983
1761412827900519000,1.518518798828125,-0.0007963637472130358,-0.0004381239414215088,0.001907089026644826
1761412827910532000,1.528531982421875,0.001776249846443534,-0.0008589033968746662,-0.0006069350056350231
1761412827920544800,1.538544677734375,-0.0010293551022186875,0.0007429998368024826,-0.0006994383875280619
1761412827930558000,1.548557861328125,-0.0011244299821555614,0.001096400897949934,-0.0029119926039129496
1761412827940571100,1.558571044921875,0.0005931622581556439,-0.0033662659116089344,-0.0012618815526366234
1761412827950583800,1.568583740234375,0.0008136720862239599,0.001587746199220419,-0.0026155663654208183
1761412827960597000,1.578596923828125,-0.00010322988964617252,0.0024848957546055317,0.001712775556370616
1761412827970610000,1.58860986328125,-0.002023369073867798,-0.00013405689969658852,-0.0004646250745281577
1761412827980623000,1.598623046875,0.0008483033743686974,0.0012397472746670246,0.0004256244283169508
1761412827990635800,1.6086357421875,-0.0004278833803255111,-0.0006066225469112396,-0.001736329635605216
1761412828000649000,1.61864892578125,-0.0002607680216897279,-0.00023143133148550987,-0.0011790345888584852
1761412828010662100,1.628662109375,-0.00010310887591913342,0.00247487286105752,0.000253213569521904
1761412828020674800,1.6386748046875,0.0016953654121607542,-0.002427102532237768,0.0010721487924456596
1761412828030688000,1.64868798828125,-0.001556886825710535,0.000413691159337759,0.0006300641689449549
1761412828040701000,1.658700927734375,-0.002569040982052684,0.0015849517658352852,-0.0005495656514540315
1761412828050714000,1.668714111328125,-0.0003184035012964159,-0.0000654091127216816,0.0014627189375460148
1761412828060726800,1.678726806640625,-0.0018731016898527741,0.0005411719903349876,0.00039784167893230915
1761412828070740000,1.688739990234375,-0.0008267457014881074,-0.0024250566493719816,0.000962698133662343
1761412828080753200,1.698753173828125,-0.0009180393535643816,-0.0004214085638523102,-0.00038576917722821236
1761412828090766000,1.70876611328125,-0.00024399327230639756,0.0009972574189305305,-0.000029172049835324287
1761412828100779000,1.718779052734375,-0.0012621767818927765,-0.0003196811303496361,0.0009278012439608574
1761412828110792000,1.7287919921875,-0.000888268870767206,0.002030824776738882,0.001051371917128563
1761412828120805000,1.73880517578125,0.0019002705812454224,-0.0009411396458745003,0.0023563303984701633
1761412828130817800,1.74881787109375,0.0004858656320720911,0.0008410480804741383,-0.00006794510409235954
1761412828140831000,1.7588310546875,0.001460234634578228,-0.0022084126248955727,-0.002017869846895337
1761412828150844200,1.76884423828125,-0.0006338089588098228,-0.0011458112858235836,-0.0015685944817960262
1761412828160857000,1.778857177734375,0.0010845477227121592,0.00015076156705617905,-0.0012674202444031835
1761412828170870000,1.7888701171875,0.0017522021662443876,-0.00019438425078988075,-0.0000554155558347702
1761412828180883000,1.798883056640625,-0.00212920643389225,-0.0011460473760962486,-0.0008230491075664759
1761412828190896000,1.808896240234375,0.0013755136169493198,-0.002902135718613863,-0.00012210500426590443
1761412828200908800,1.81890869140625,-0.0012312671169638634,0.0017476691864430904,-0.0017306999070569873
1761412828210922000,1.828921875,-0.001206499757245183,0.0010328767821192741,-0.00016822339966893196
1761412828220935000,1.838934814453125,0.00034094671718776226,0.0023597143590450287,0.00020405161194503307
1761412828230948000,1.848947998046875,-0.0005152595695108175,-0.0023897672072052956,0.001962004229426384
1761412828240961000,1.8589609375,-0.00022297358373180032,0.0006602429784834385,0.0024389668833464384
1761412828250974000,1.868973876953125,-0.0016791900852695107,0.0011582537554204464,0.0012980687897652388
1761412828260987100,1.878987060546875,-0.0004137665091548115,0.001490726601332426,0.00043369829654693604
1761412828270999800,1.888999755859375,0.0001431004493497312,-0.00015563936904072762,0.0053578829392790794
1761412828281013000,1.899012939453125,-0.00028787885094061494,-0.0014637806452810764,-0.0026721288450062275
1761412828291026000,1.90902587890625,-0.0011398240458220243,0.0001535569317638874,-0.0015477422857657075
1761412828301039000,1.9190390625,-0.0009843031875789165,-0.00018083397299051285,-0.0007107832934707403
1761412828311052000,1.929052001953125,0.0010498191695660353,-0.0015294584445655346,-0.002827730029821396
1761412828321065000,1.93906494140625,0.001240666606463492,-0.0007076398469507694,-0.0008962826104834676
1761412828331078100,1.949078125,0.0018984673079103231,0.00080876424908638,-0.0014590085484087467
1761412828341090800,1.9590908203125,-0.001732339384034276,-0.002014303347095847,-0.0003968824166804552
1761412828351104000,1.96910400390625,0.0019377630669623613,0.0005298145115375519,-0.0025756144896149635
1761412828361117000,1.979116943359375,0.00037086906377226114,-0.0017469176091253757,-0.0009639241034165025
1761412828371130000,1.989130126953125,0.0019586458802223206,-0.0012166821397840977,-0.0020435696933418512
1761412828381143000,1.99914306640625,0.0017075414070859551,0.000376715324819088,-0.000983626232482493
1761412828391156000,2.009156005859375,0.00036743865348398685,0.0023149638436734676,-0.002073391806334257
1761412828401169200,2.019169189453125,0.0006800744449719787,0.0014161188155412674,-0.002509843558073044
1761412828411181800,2.029181884765625,-0.0008858642540872097,-0.0006827185861766338,-0.0006027539493516088
1761412828421195000,2.039195068359375,-0.00026964631979353726,0.0010330523364245892,0.00038762670010328293
1761412828431208000,2.0492080078125,0.0019421088509261608,-0.0006343526765704155,-0.0022065583616495132
1761412828441221000,2.05922119140625,-0.0005572157097049057,-0.000016721896827220917,-0.00009015784598886967
1761412828451233800,2.06923388671875,-0.0006640084902755916,0.0009470758959650993,0.0003529922105371952
1761412828461247000,2.0792470703125,-0.00018390966579318047,-0.0023658969439566135,0.0001848048996180296
1761412828471260200,2.08926025390625,-0.00035541722900234163,0.0010277694091200829,0.0005568484775722027
1761412828481272800,2.09927294921875,0.0004966058768332005,0.0013322792947292328,0.003053070278838277
1761412828491286000,2.1092861328125,-0.0013830531388521194,-0.0012912009842693806,0.00125863216817379
1761412828501299000,2.119298828125,-0.0007296436233446002,0.000517518725246191,-0.0016184230335056782
1761412828511312100,2.12931201171875,-0.0010873060673475266,0.0024685505777597427,-0.002840813947841525
1761412828521324800,2.13932470703125,-0.001992478035390377,-0.0003071143291890621,0.0002452393528074026
1761412828531338000,2.149337890625,-0.0005114939995110035,-0.0007886136882007122,0.00008065602742135525
1761412828541351200,2.15935107421875,-0.0008518395479768515,0.0005772514268755913,0.0000011529773473739624
1761412828551363800,2.16936376953125,-0.0001500966027379036,-0.0011130566708743572,-0.001602069940418005
1761412828561377000,2.179376953125,0.0016261439304798841,0.0011637224815785885,-0.002809414640069008
1761412828571390000,2.189389892578125,0.0022208276204764843,-0.0008767913095653057,-0.002119922311976552
1761412828581403100,2.199403076171875,0.0008306120289489627,0.0004803072661161423,0.00023176055401563644
1761412828591415800,2.209415771484375,0.0001688165357336402,-0.0010717827826738358,-0.002890263218432665
1761412828601429000,2.219428955078125,-0.0011669924715533853,-0.0015939399600028992,-0.0009239374194294214
1761412828611442200,2.229442138671875,-0.0008439510711468756,-0.0007515819743275642,-0.0033135919366031885
1761412828621454600,2.23945458984375,-0.0022909536492079496,-0.00018430687487125397,-0.0004618216771632433
1761412828631467800,2.2494677734375,0.000712559383828193,-0.000017593149095773697,-0.0010889960685744882
1761412828641480700,2.259480712890625,0.0008249348611570895,-0.0025252026971429586,-0.0018715662881731987
1761412828651494000,2.269493896484375,-0.0003844065358862281,-0.0009155883453786373,0.0008845389820635319
1761412828661506600,2.279506591796875,-0.00005192693788558245,-0.0006114998832345009,-0.0007313909009099007
1761412828671519700,2.289519775390625,-0.0029646262992173433,-0.0021247081458568573,-0.0017553763464093208
1761412828681532700,2.29953271484375,0.00044699013233184814,-0.0005577271804213524,0.00217619095928967
1761412828691545600,2.309545654296875,-0.002067300258204341,-0.00154283014126122,0.00083741988055408
1761412828701558800,2.319558837890625,-0.0010593585902824998,-0.000554441474378109,-0.0009812142234295607
1761412828711571700,2.32957177734375,0.0009686386329121888,-0.0016034608706831932,0.0014537139795720577
1761412828721585000,2.3395849609375,-0.0010793276596814394,0.00009611481800675392,0.0005789215210825205
1761412828731597600,2.34959765625,-0.0014521701959893107,0.0003046402707695961,-0.0015739778755232692
1761412828741610800,2.35961083984375,-0.00013964727986603975,-0.0013052844442427158,-0.0015608519315719604
1761412828751623700,2.369623779296875,0.0006244136020541191,0.0004947464913129807,-0.002749953418970108
1761412828761636600,2.37963671875,-0.0007697733235545456,-0.0010055224411189556,-0.0018665622919797897
1761412828771649800,2.38964990234375,0.001728271716274321,-0.0014683797489851713,0.00044346367940306664
1761412828781662700,2.399662841796875,-0.0011115316301584244,-0.0026299399323761463,-0.0014165830798447132
1761412828791676000,2.409676025390625,-0.0005472077755257487,-0.00020273495465517044,-0.0019968857523053885
1761412828801688600,2.4196884765625,-0.00008176191477105021,-0.0004779938608407974,-0.0016539659118279815
1761412828811701800,2.42970166015625,0.000006654998287558556,-0.00016880081966519356,-0.0036169819068163633
1761412828821714700,2.439714599609375,0.0005752606666646898,0.001247552689164877,0.0015722974203526974
1761412828831727600,2.4497275390625,-0.0014657860156148672,0.0028995112515985966,-0.0015683684032410383
1761412828841740800,2.45974072265625,-0.0018919298890978098,0.0007476364262402058,0.0029267610516399145
1761412828851753700,2.469753662109375,-0.0007781960302963853,0.00024350034072995186,0.001786129316315055
1761412828861767000,2.479766845703125,0.0027255662716925144,-0.0015855773817747831,0.0028192272875458
1761412828871779600,2.489779541015625,0.000511414255015552,0.002310094889253378,0.0004122625105082989
1761412828881792800,2.499792724609375,-0.0016499529592692852,-0.0011662174947559834,0.0005029807798564434
1761412828891805700,2.5098056640625,-0.0009199805790558457,0.0020796433091163635,-0.0029860264621675014
1761412828901819000,2.51981884765625,0.0004926274996250868,-0.0004949946887791157,0.0011325124651193619
1761412828911831600,2.52983154296875,-0.001420054817572236,0.00034203706309199333,-0.0005045325960963964
1761412828921844700,2.5398447265625,-0.0005561065045185387,-0.0015236244071274996,0.0003102754708379507
1761412828931858000,2.54985791015625,-0.00013133231550455093,0.0025163907557725906,0.002382747596129775
1761412828941870600,2.55987060546875,-0.0013562635285779834,-0.001314480323344469,-0.0004403097555041313
1761412828951883800,2.5698837890625,-0.0008739650365896523,-0.0016668166499584913,0.00042415247298777103
1761412828961896700,2.579896728515625,-0.0009160074405372143,-0.00206554913893342,-0.00014089792966842651
1761412828971910000,2.589909912109375,-0.0006606102688238025,-0.0015829845797270536,0.00017868145368993282
1761412828981922600,2.599922607421875,0.0019140944350510836,-0.0006192950531840324,-0.0006774950306862593
1761412828991935700,2.609935791015625,0.000612341333180666,-0.000728218350559473,-0.0016591362655162811
1761412829001949000,2.619948974609375,-0.001199045218527317,0.003377225250005722,-0.005035656038671732
1761412829011961600,2.629961669921875,0.0005778158665634692,-0.0004233713261783123,-0.002200454706326127
1761412829021974800,2.639974853515625,-0.0008847243152558804,0.0010900082997977734,-0.00021951831877231598
1761412829031987700,2.64998779296875,-0.0007656810339540243,0.0010013249702751637,0.0008840956725180149
1761412829042001000,2.6600009765625,0.0008799659553915262,0.00033540045842528343,0.00018094945698976517
1761412829052013600,2.670013671875,-0.001839920412749052,-0.003646291559562087,-0.001761826453730464
1761412829062026800,2.68002685546875,-0.00005880696699023247,-0.001697351923212409,0.0009724125266075134
1761412829072040000,2.6900400390625,0.001772649004124105,-0.0005489969626069069,0.0017670998349785805
1761412829082052600,2.700052490234375,-0.002220469992607832,-0.0023397679906338453,0.00046814815141260624
1761412829092065800,2.710065673828125,-0.000006051734089851379,0.000008340924978256226,-0.0011712937848642468
1761412829102078700,2.72007861328125,-0.0011206093477085233,-0.00011936994269490242,-0.000785141484811902
1761412829112092000,2.730091796875,-0.00028304519946686924,-0.0003526625223457813,-0.0027737237978726625
1761412829122104600,2.7401044921875,-0.00042548103374429047,-0.0002108318731188774,0.001486968481913209
1761412829132117800,2.75011767578125,-0.0003165577363688499,-0.0025253852363675833,-0.0009274535113945603
1761412829142130700,2.760130615234375,-0.0020053416956216097,-0.0011068368330597878,-0.0028442256152629852
1761412829152143600,2.7701435546875,0.000558217114303261,-0.0012309402227401733,-0.0007230178453028202
1761412829162156800,2.78015673828125,-0.0031503038480877876,0.0030526351183652878,0.0007158552762120962
1761412829172169700,2.790169677734375,-0.00022482150234282017,0.00011969543993473053,-0.0017861844971776009
1761412829182183000,2.800182861328125,-0.0016576261259615421,-0.001033618114888668,-0.0033222991041839123
1761412829192195600,2.810195556640625,0.0020393740851432085,0.0017384663224220276,-0.0007733876118436456
1761412829202208800,2.820208740234375,0.0016245018923655152,0.0008180327713489532,-0.0029031552840024233
1761412829212221700,2.8302216796875,-0.00010202551493421197,-0.00024110637605190277,-0.0009963320335373282
1761412829222234600,2.840234619140625,0.00046764803119003773,0.0003551999107003212,-0.0048915669322013855
1761412829232247800,2.850247802734375,-0.000537162646651268,-0.003035270608961582,-0.0036465388257056475
1761412829242260700,2.8602607421875,0.000372416281607002,-0.002658987184986472,-0.003346457611769438
1761412829252274000,2.87027392578125,0.0018850916530936956,0.0021078046411275864,-0.0024324608966708183
1761412829262286600,2.88028662109375,0.002003039699047804,0.0012979074381291866,-0.0018757078796625137
1761412829272299800,2.8902998046875,0.0011271260445937514,-0.000965779647231102,-0.002825923729687929
1761412829282312700,2.900312744140625,0.0007365127676166594,-0.000609065406024456,-0.002243832917883992
1761412829292325600,2.91032568359375,-0.0020536810625344515,0.000483896117657423,-0.00029093679040670395
1761412829302338800,2.9203388671875,0.00166261603590101,-0.00035560084506869316,0.0023590608034282923
1761412829312351700,2.930351806640625,-0.0017438334180042148,0.00022363662719726562,-0.000002896878868341446
1761412829322365000,2.940364990234375,-0.0031313342042267323,-0.0012297006323933601,-0.0014383606612682343
1761412829332377600,2.950377685546875,-0.00026444115792401135,-0.0006323535926640034,-0.00042103324085474014
1761412829342390800,2.960390869140625,0.001810615649446845,0.001696193590760231,-0.0011504150461405516
1761412829352403700,2.97040380859375,-0.001980127766728401,0.002445873338729143,-0.0012577404268085957
1761412829362416600,2.980416748046875,0.0005773426964879036,-0.000022290274500846863,0.0022142608650028706
1761412829372429800,2.990429931640625,-0.0023960766848176718,-0.0008729039691388607,-0.0005248001543805003
1761412829382442800,3.00044287109375,-0.0013176572974771261,-0.0008998154662549496,-0.0003037962596863508
1761412829392456000,3.0104560546875,0.0015300607774406672,0.0015241936780512333,0.0005385617259889841
1761412829402468600,3.020468505859375,0.0019025570945814252,-0.0008032526820898056,-0.002508398611098528
1761412829412481800,3.030481689453125,-0.002185927936807275,-0.00024878280237317085,-0.0029230527579784393
1761412829422494700,3.04049462890625,-0.0008544838638044894,0.0024744360707700253,-0.002069719834253192
1761412829432507600,3.050507568359375,0.0005516652017831802,-0.0014225675258785486,-0.0020500123500823975
1761412829442520600,3.0605205078125,0.0016800269950181246,-0.0025948069524019957,-0.0004999188240617514
1761412829452533800,3.07053369140625,0.0021354276686906815,-0.00030315667390823364,0.0020700315944850445
1761412829462547000,3.080546875,-0.0009158740285784006,0.0009317593649029732,-0.002707528416067362
1761412829472559600,3.0905595703125,0.00040691805770620704,-0.0012419125996530056,-0.0002060213591903448
1761412829482572800,3.10057275390625,0.00004592927871271968,-0.0010675955563783646,-0.0031427606008946896
1761412829492585700,3.110585693359375,-0.001184717402793467,0.0013851756229996681,-0.0018548559164628386
1761412829502598700,3.1205986328125,0.0008440007222816348,0.000640389509499073,-0.00008812337182462215
1761412829512611600,3.130611572265625,0.00023999583208933473,-0.00037161167711019516,-0.0010061151115223765
1761412829522624800,3.140624755859375,-0.000887117872480303,0.00011769076809287071,-0.00023487652651965618
1761412829532638000,3.150637939453125,-0.0005310532287694514,0.0002822740934789181,0.0007757931016385555
1761412829542650600,3.160650634765625,-0.0005536731914617121,0.0007146699354052544,-0.0004337560385465622
1761412829552663800,3.170663818359375,0.0006668535061180592,0.0005120034329593182,0.0023801401257514954
1761412829562676700,3.1806767578125,-0.0005368665442802012,0.0018558194860816002,0.0012887953780591488
1761412829572689700,3.190689697265625,-0.000512631784658879,-0.0030872737988829613,0.0007577610667794943
1761412829582702600,3.20070263671875,-0.0019488900434225798,-0.004909007344394922,0.0016096110921353102
1761412829592715800,3.2107158203125,0.000025843968614935875,0.0038336184807121754,0.00035659410059452057
1761412829602729000,3.22072900390625,-0.001080848858691752,0.004981662146747112,0.0012674713507294655
1761412829612741600,3.23074169921875,0.0020478328224271536,-0.00005757063627243042,0.003252591472119093
1761412829622754300,3.24075439453125,-0.000931871123611927,-0.0038664457388222218,-0.0008213033434003592
1761412829632767200,3.250767333984375,0.0020743049681186676,-0.000021107494831085205,-0.0007312885718420148
1761412829642780400,3.260780517578125,0.0002663597115315497,0.002627028152346611,0.00025124684907495975
1761412829652793000,3.27079296875,0.0014794296585023403,0.0006826547905802727,0.0009870780631899834
1761412829662806300,3.28080615234375,-0.0008739471668377519,-0.00009836163371801376,-0.000004910863935947418
1761412829672819200,3.290819091796875,0.00020969309844076633,-0.002872043987736106,-0.003289653919637203
1761412829682832100,3.30083203125,-0.0005989795899949968,-0.002603807020932436,-0.00018518813885748386
1761412829692845300,3.31084521484375,0.000058022269513458014,0.001649793703109026,0.0006750128231942654
1761412829702858200,3.320858154296875,0.0013104621320962906,0.004255912732332945,0.0020025598350912333
1761412829712871400,3.330871337890625,0.0007320235599763691,-0.0020829434506595135,-0.00017191097140312195
1761412829722884000,3.340884033203125,0.0008221720927394927,0.0005255630239844322,-0.0006893632235005498
1761412829732897300,3.350897216796875,0.0007153794285841286,-0.0014747369568794966,-0.00070161372423172
1761412829742910200,3.36091015625,-0.001710574608296156,0.003887224942445755,-0.0017251429380849004
1761412829752923100,3.370923095703125,-0.0010778075084090233,-0.00030112825334072113,-0.002178146503865719
1761412829762936000,3.38093603515625,-0.0014395029284060001,-0.003499247133731842,-0.0021554327104240656
1761412829772949200,3.39094921875,0.0009296451462432742,0.0015631560236215591,-0.0018915134714916348
1761412829782962400,3.40096240234375,-0.00031377095729112625,0.002551702316850424,-0.0016273660585284233
1761412829792975000,3.41097509765625,0.0003112729173153639,0.0013002827763557434,-0.0025144650135189295
1761412829802988300,3.42098828125,0.00008955883095040917,0.0013822540640830994,-0.0008184878388419747
1761412829813001200,3.431001220703125,-0.0004441386554390192,0.000684772152453661,0.000041446881368756294
1761412829823014100,3.44101416015625,0.0014757993631064892,-0.005803050473332405,-0.0012078125728294253
1761412829833027000,3.451027099609375,-0.001881115254946053,0.0004220888949930668,-0.0028768156189471483
1761412829843040300,3.461040283203125,-0.000024188426323235035,0.0032766032963991165,-0.00043505639769136906
1761412829853053400,3.471053466796875,-0.00031660348759032786,-0.0002283831126987934,0.00044831400737166405
1761412829863066000,3.481066162109375,0.000835442275274545,-0.0014867945574223995,-0.0002951440401375294
1761412829873079300,3.491079345703125,0.0004423597711138427,0.0013875551521778107,-0.001816607778891921
1761412829883092200,3.50109228515625,-0.00022082851501181722,-0.0013617263175547123,-0.0003319196403026581
1761412829893105200,3.511105224609375,0.0015243409434333444,-0.0013859609607607126,0.001129623269662261
1761412829903118000,3.5211181640625,0.003097482491284609,0.0008728965185582638,0.00045067607425153255
1761412829913130200,3.531130126953125,-0.003297832328826189,-0.00012738676741719246,-0.0017869118601083755
1761412829923144400,3.54114453125,-0.0011085302103310823,0.002148559782654047,0.0007446424569934607
1761412829933157000,3.5511572265625,-0.0005764305824413896,-0.004341563675552607,0.00393697340041399
1761412829943170300,3.56117041015625,0.001054317457601428,-0.001854477683082223,-0.00009726430289447308
1761412829953183200,3.571183349609375,0.00026522285770624876,0.0033956775441765785,0.0012652087025344372
1761412829963196200,3.581196044921875,-0.0004180361283943057,-0.0003532753325998783,0.004321446642279625
1761412829973209000,3.591208984375,0.0005779860657639802,-0.0036340232472866774,0.002786932745948434
1761412829983222300,3.60122216796875,-0.0001561325043439865,0.0006565479561686516,0.0014887175057083368
1761412829993235200,3.611235107421875,-0.00018862306023947895,-0.0004105805419385433,0.003445608075708151
1761412830003248000,3.621248046875,-0.0010154788615182042,0.0007523568347096443,0.0011553852818906307
1761412830013261300,3.63126123046875,-0.00006286613643169403,-0.0028583568055182695,0.0013756286352872849
1761412830023274200,3.641274169921875,-0.0009594778530299664,-0.0029428903944790363,-0.00006371480412781239
1761412830033286400,3.651286376953125,0.000526299758348614,0.0004987125284969807,-0.0037916076835244894
1761412830043300000,3.661300048828125,0.0007434510625898838,0.0005302713252604008,-0.0027964222244918346
1761412830053313300,3.671313232421875,0.0006837962428107858,-0.004514820873737335,0.0021695741452276707
1761412830063326200,3.681326171875,-0.0011268206872045994,-0.0025486776139587164,-0.0005762021755799651
1761412830073338400,3.69133837890625,0.0016623078845441341,0.002615191973745823,-0.001981019740924239
1761412830083351000,3.70135107421875,0.0018086929339915514,0.0009821876883506775,-0.0020289565436542034
1761412830093364200,3.7113642578125,0.0004147944273427129,0.0005028187297284603,0.0012453999370336533
1761412830103377400,3.72137744140625,0.0007098896312527359,0.0000812401995062828,-0.0049017081037163734
1761412830113390000,3.73139013671875,-0.0001902588119264692,0.0011616847477853298,-0.002771978499367833
1761412830123403300,3.7414033203125,-0.00039290435961447656,0.0013045850209891796,-0.0013164657866582274
1761412830133416200,3.751416259765625,-0.0007939764182083309,-0.002387621207162738,0.0004047353286296129
1761412830143429400,3.761429443359375,-0.000985609134659171,-0.0005525699816644192,-0.0033399732783436775
1761412830153442000,3.771442138671875,-0.0002761429641395807,0.0024813031777739525,-0.0007753492100164294
1761412830163455200,3.781455322265625,-0.0019638296216726303,-0.0013657882809638977,0.0017128223553299904
1761412830173468200,3.79146826171875,0.0007616493967361748,0.0012204074300825596,0.000771927647292614
1761412830183481300,3.8014814453125,-0.005022300407290459,0.0012996136210858822,-0.0018066399497911334
1761412830193494300,3.811494384765625,-0.0002400621015112847,0.0011097299866378307,-0.0012761382386088371
1761412830203507200,3.821507080078125,0.00085443229181692,0.0007995613850653172,0.0019649674650281668
1761412830213520400,3.831520263671875,-0.0024217884056270123,-0.0001083100214600563,0.0008155470713973045
1761412830223533000,3.841532958984375,0.0002670883550308645,0.0033924588933587074,0.00297742523252964
1761412830233546200,3.851546142578125,-0.0000876446720212698,0.0008600596338510513,0.002992871217429638
1761412830243559200,3.86155908203125,-0.00028753114747814834,-0.002490774029865861,0.0014906583819538355
1761412830253572400,3.871572265625,-0.0009906056802719831,-0.003680141642689705,0.0022307506296783686
1761412830263585300,3.881585205078125,-0.0010514850728213787,-0.0014439073856920004,0.0016077801119536161
1761412830273598200,3.89159814453125,0.0001924775424413383,-0.0013307230547070503,0.0009467834606766701
1761412830283611400,3.901611328125,0.0003176559112034738,0.0018583894707262516,0.0035349768586456776
1761412830293624000,3.9116240234375,0.0009024860919453204,0.0005819364450871944,0.001849195919930935
1761412830303637200,3.92163720703125,-0.000570358824916184,-0.003264155937358737,0.002724767429754138
1761412830313650200,3.931650146484375,0.0014736172743141651,-0.006287909112870693,0.0011865254491567612
1761412830323663400,3.941663330078125,0.0006803038413636386,-0.0004920056089758873,-0.0014324459480121732
1761412830333676300,3.95167626953125,0.0004789687809534371,0.0013988390564918518,0.002452306915074587
1761412830343689200,3.961689208984375,0.0003511906252242625,-0.0012064692564308643,0.0005841562524437904
1761412830353702400,3.971702392578125,0.0004420044715516269,0.0010178028605878353,-0.0033485337626188993
1761412830363715000,3.981715087890625,0.00004602485569193959,-0.0001986403949558735,-0.00006740586832165718
1761412830373728300,3.991728271484375,0.0009911806555464864,-0.0009669624269008636,-0.0039348481222987175
1761412830383741200,4.0017412109375,0.0008126613683998585,0.002102629281580448,-0.003210753668099642
1761412830393754400,4.01175439453125,-0.002239055000245571,-0.0045491480268538,-0.004231809638440609
1761412830403767300,4.021767333984375,-0.001267902785912156,-0.0036534464452415705,-0.0037775691598653793
1761412830413780200,4.0317802734375,-0.000976553070358932,0.0037544025108218193,-0.0004717871779575944
1761412830423793400,4.04179345703125,-0.00021920018480159342,0.00045888451859354973,0.00043644546531140804
1761412830433806000,4.05180615234375,-0.0006527628283947706,-0.006452817469835281,0.0006729341112077236
1761412830443819300,4.0618193359375,0.0010841938201338053,0.0019992119632661343,-0.0009407330071553588
1761412830453832200,4.071832275390625,0.0014658248983323574,0.001844748854637146,0.0032185919117182493
1761412830463845400,4.081845458984375,0.0004147175350226462,-0.0015592372510582209,0.0007245233282446861
1761412830473858000,4.091858154296875,-0.00006118940655142069,0.003156688529998064,0.0006448947824537754
1761412830483871200,4.101871337890625,-0.0004006059025414288,-0.00004665134474635124,0.002078018616884947
1761412830493884400,4.111884521484375,0.000672647962346673,-0.004845933988690376,0.0012604279909282923
1761412830503897000,4.12189697265625,4.2410101741552353e-7,-0.0012046596966683865,0.001234348164871335
1761412830513910300,4.13191015625,0.0005322574288584292,0.0016031106933951378,0.00107642263174057
1761412830523923200,4.141923095703125,0.0019452703418210149,-0.001677188789471984,-0.0000037364661693573
1761412830533936400,4.151936279296875,-0.0009783479617908597,0.0011265873908996582,0.0008908193558454514
1761412830543949000,4.161948974609375,-0.0009210729622282088,0.0005588186904788017,-0.001856858842074871
1761412830553962200,4.171962158203125,0.00018493784591555595,0.00013271300122141838,0.00026488141156733036
1761412830563975400,4.181975341796875,0.00003825390012934804,0.0019253776408731937,-0.00306247198022902
1761412830573988000,4.191988037109375,-0.0010259451810270548,-0.0011135553941130638,0.00029284460470080376
1761412830584001300,4.202001220703125,-0.00014466000720858574,-0.0002444107085466385,0.0006443057209253311
1761412830594014200,4.21201416015625,-0.00037715397775173187,0.00019474467262625694,0.0017180924769490957
1761412830604027400,4.22202734375,-0.0006394090014509857,0.0020457343198359013,0.0013506710529327393
1761412830614040000,4.2320400390625,-0.0010918800253421068,-0.0022195845376700163,0.002073719399049878
1761412830624054300,4.24205419921875,0.00011177861597388983,-0.0005393275059759617,0.002674414776265621
1761412830634067000,4.25206689453125,0.0016899678157642484,-0.0002085631713271141,0.004404670558869839
1761412830644080000,4.262080078125,-0.00041075609624385834,0.001425496768206358,-0.0011389281135052443
1761412830654093300,4.27209326171875,0.0005716840969398618,0.00028007104992866516,-0.0019517248729243875
1761412830664106200,4.282106201171875,-0.00011412746971473098,0.001685919240117073,-0.0008840444497764111
1761412830674119200,4.292119140625,0.000436347967479378,-0.00016337959095835686,-0.001800171798095107
1761412830684132000,4.302132080078125,-0.0003766619192901999,-0.001377094304189086,0.0006782226264476776
1761412830694145300,4.312145263671875,0.0013437401503324509,0.0028195148333907127,0.00194136006757617
1761412830704158000,4.322157958984375,-0.002092827809974551,-0.0008321516215801239,-0.0032657478004693985
1761412830714171100,4.332171142578125,0.001680072396993637,-0.0021834394428879023,-0.001325102406553924
1761412830724184000,4.34218408203125,0.0007850442198105156,0.0002696635201573372,-0.0012021398870274425
1761412830734197200,4.352197265625,-0.0003270918095950037,-0.0011452743783593178,0.0006700623780488968
1761412830744210200,4.362210205078125,0.0010529232677072287,-0.0005562826991081238,-0.0005853328621014953
1761412830754223000,4.37222314453125,0.001946413773111999,-0.0011557606048882008,-0.0026745828799903393
1761412830764236300,4.382236328125,0.00011748936958611012,0.002587993163615465,-0.003377105575054884
1761412830774249000,4.3922490234375,-0.00036374383489601314,0.005194162484258413,0.0010727704502642155
1761412830784262100,4.40226220703125,0.0006403842708095908,0.0014750775881111622,-0.0022860844619572163
1761412830794275000,4.412275146484375,-0.001610785722732544,-0.005783900152891874,-0.0025910164695233107
1761412830804288300,4.422288330078125,-0.001973972423002124,0.0002447539009153843,-0.004341112915426493
1761412830814301200,4.43230126953125,0.0006657528574578464,0.0014413120225071907,0.00036415993236005306
1761412830824314000,4.442314208984375,-0.0012964949710294604,-0.002247833414003253,-0.0017874266486614943
1761412830834327300,4.452327392578125,-0.0009225871763192117,0.0002616629935801029,-0.0016502737998962402
1761412830844340000,4.462340087890625,-0.0013515071477741003,0.0035050511360168457,-0.001626629033125937
1761412830854353200,4.472353271484375,0.00040538021130487323,0.00038356008008122444,0.0034442960750311613
1761412830864366000,4.482365966796875,-0.0005595137481577694,-0.0004281606525182724,-0.0011119163827970624
1761412830874379300,4.492379150390625,0.0006676708580926061,0.002099978271871805,-0.00219981768168509
1761412830884392200,4.50239208984375,-0.0022130245342850685,-0.0034083726350218058,0.0019327090121805668
1761412830894405000,4.512405029296875,-0.0010164661798626184,-0.001347085926681757,0.000999803887680173
1761412830904418300,4.522418212890625,0.00036175973946228623,0.0005073412321507931,-0.0007138604996725917
1761412830914431000,4.532430908203125,0.0019122520461678505,0.002161963377147913,-0.0007213173666968942
1761412830924444200,4.542444091796875,0.0010551817249506712,0.0012155650183558464,0.0018050186336040497
1761412830934457000,4.55245703125,0.0010935312602669,0.002682700287550688,0.0014654658734798431
1761412830944470300,4.56247021484375,0.0014624460600316525,-0.0016108707059174776,0.00035585975274443626
1761412830954483000,4.57248291015625,-0.00115064752753824,-0.0010276385582983494,0.0005960769485682249
1761412830964496100,4.58249609375,-0.00018585717771202326,0.000555011909455061,0.0010642798151820898
1761412830974509300,4.59250927734375,-0.0011781509965658188,0.0012080189771950245,0.0008325846865773201
1761412830984522000,4.60252197265625,-0.000003195891622453928,0.0008051716722548008,0.0005647847428917885
1761412830994535200,4.61253515625,0.00011025479761883616,0.0012621702626347542,0.00007636100053787231
1761412831004548000,4.622548095703125,0.0026437207125127316,-0.000971626490354538,-0.0005794181488454342
1761412831014561300,4.632561279296875,0.00156327651347965,-0.002843562513589859,0.002448329469189048
1761412831024574000,4.642573974609375,0.0002610175288282335,-0.0018316637724637985,0.0034643919207155704
1761412831034587100,4.652587158203125,-0.0006878667627461255,-0.002449517138302326,0.000918942503631115
1761412831044600300,4.662600341796875,0.0014308157842606306,0.001626776996999979,0.001660738606005907
1761412831054613000,4.672613037109375,-0.00026002517552115023,-0.0005828477442264557,0.003576084040105343
1761412831064626200,4.682626220703125,0.00031202781246975064,-0.002238196786493063,0.0020885781850665808
1761412831074639000,4.69263916015625,0.0006771472399123013,0.0007642512209713459,0.000322902575135231
1761412831084652300,4.70265234375,-0.0010771485976874828,0.003188923466950655,-0.003607014659792185
1761412831094665000,4.7126650390625,0.00007493485463783145,-0.0013259337283670902,0.00022287736646831036
1761412831104678100,4.72267822265625,-0.0011660263407975435,0.0002552964724600315,0.0012314936611801386
1761412831114691300,4.73269140625,0.0004337344435043633,0.003367733210325241,0.0005894056521356106
1761412831124704000,4.7427041015625,-0.00035240614670328796,0.001578939612954855,-0.0023921781685203314
1761412831134717200,4.75271728515625,-0.000015782599803060293,0.0022732256911695004,-0.004162381403148174
1761412831144730000,4.762730224609375,-0.0015690780710428953,-0.000816109124571085,-0.0056165242567658424
1761412831154743300,4.772743408203125,0.0009662513039074838,-0.0042047156020998955,-0.00028221262618899345
1761412831164756000,4.782755859375,0.00006578495958819985,-0.0009671533480286598,-0.0021768996957689524
1761412831174769200,4.79276904296875,-0.0010745805921033025,0.0021343640983104706,0.0015166385564953089
1761412831184782000,4.802781982421875,0.0012514665722846985,0.000558903906494379,-0.00042802048847079277
1761412831194795000,4.812794921875,0.0002210894599556923,0.002185030374675989,-0.00015691062435507774
1761412831204808200,4.82280810546875,-0.003701672190800309,-0.002275609178468585,-0.0024993321858346462
1761412831214821000,4.832821044921875,-0.0032750337850302458,0.0015375050716102123,0.00003679608926177025
1761412831224834300,4.842834228515625,0.00041979376692324877,0.0021757991053164005,-0.0005661247996613383
1761412831234847000,4.852846923828125,-0.0010119216749444604,0.0024138856679201126,0.002385456580668688
1761412831244860200,4.862860107421875,-0.000996092101559043,-0.0009752982296049595,-0.00005898275412619114
1761412831254873000,4.872873046875,-0.00032497558277100325,-0.0009598522447049618,-0.00038921472150832415
1761412831264886000,4.882885986328125,-0.0020323842763900757,-0.0001909332349896431,0.0027454961091279984
1761412831274899200,4.892899169921875,-0.0003330211038701236,-0.0011560628190636635,0.004346055909991264
1761412831284912000,4.902912109375,0.0008143026498146355,-0.001062770839780569,-0.0008578560082241893
1761412831294925300,4.91292529296875,-0.00030582293402403593,0.0010816063731908798,0.004684448707848787
1761412831304938000,4.92293798828125,0.00182331632822752,0.0025746524333953857,0.001110962824895978
1761412831314951200,4.932951171875,0.0009109172387979925,-0.00028025638312101364,0.0008510383777320385
1761412831324964000,4.942964111328125,0.0008067552116699517,-0.004070556256920099,-0.0010875905863940716
1761412831334977000,4.95297705078125,0.0006184697267599404,-0.003348040394484997,-0.00007345876656472683
1761412831344990200,4.962990234375,0.0005487424205057323,0.002704688347876072,0.0025315689854323864
1761412831355003100,4.973003173828125,0.0003745717112906277,0.001302800141274929,-0.000604302971623838
1761412831365016300,4.983016357421875,0.00015392928617075086,-0.0025079441256821156,-0.0005155247636139393
1761412831375029000,4.993029052734375,0.0013704611919820309,0.0004750625230371952,-0.0025424566119909286
1761412831385042200,5.003042236328125,0.0015225497772917151,-0.00043188687413930893,-0.005494551733136177
1761412831395055000,5.01305517578125,0.0007829900132492185,-0.005936907138675451,-0.001352803548797965
1761412831405068000,5.023068115234375,0.0002277118037454784,0.003761556465178728,0.00040060258470475674
1761412831415081200,5.033081298828125,-0.001850086497142911,0.0068513560108840466,-0.0018588232342153788
1761412831425094100,5.04309423828125,0.0005774989840574563,-0.0027700948994606733,0.00015089334920048714
1761412831435107300,5.053107421875,0.0006621875218115747,-0.003296069335192442,-0.0037077609449625015
1761412831445120000,5.0631201171875,-0.0007390508544631302,0.0015910533256828785,-0.000014146557077765465
1761412831455133200,5.07313330078125,0.001457790844142437,-0.0016180556267499924,-0.00010309601202607155
1761412831465146000,5.08314599609375,-0.0009822299471125007,-0.0004700561985373497,0.001885371981188655
1761412831475159300,5.0931591796875,-0.0005284272483550012,0.006666416302323341,0.0011412848252803087
1761412831485172000,5.103171875,0.0007315888651646674,0.002236936241388321,0.0017808054108172655
1761412831495185200,5.11318505859375,-0.001372840953990817,-0.002490707440301776,-0.001826978987082839
1761412831505198300,5.1231982421875,-0.0007744708564132452,-0.0006763618439435959,-0.0003560963086783886
1761412831515211000,5.1332109375,-0.00110390386544168,-0.0009256335906684399,0.00007746624760329723
1761412831525224200,5.14322412109375,-0.0021921787410974503,0.002974587492644787,0.0011190853547304869
1761412831535237000,5.153237060546875,-0.0018044225871562958,0.004473946988582611,0.00046314881183207035
1761412831545250300,5.163250244140625,-0.0013702948344871402,0.0003426745533943176,0.0022001767065376043
1761412831555263000,5.173262939453125,0.00006621429929509759,-0.0015516320709139109,0.003350662300363183
1761412831565276200,5.183276123046875,0.0011119530536234379,-0.0017909167800098658,0.0036297994665801525
1761412831575289300,5.193289306640625,-0.00015331467147916555,-0.0011831833980977535,0.002863075118511915
1761412831585302000,5.203302001953125,-0.0006654082098975778,0.0011567585170269012,0.003433904377743602
1761412831595315200,5.213315185546875,-0.0006347818416543305,0.0033567952923476696,0.004131918773055077
1761412831605328100,5.223328125,0.001244214829057455,-0.002204506890848279,0.00329789356328547
1761412831615341300,5.23334130859375,0.0012165179941803217,-0.003319838549941778,0.003021457465365529
1761412831625353200,5.243353271484375,0.00017584289889782667,-0.0005978257395327091,0.0018954540137201548
1761412831635365000,5.253365234375,0.0015740024391561747,0.00012202654033899307,0.002638209844008088
1761412831645378000,5.2633779296875,0.0024916031397879124,0.00002486584708094597,-0.0006098577287048101
1761412831655391200,5.27339111328125,0.001571480999700725,0.0021982714533805847,0.0007563438266515732
1761412831665404400,5.283404296875,0.0014069336466491222,-0.0005041067488491535,0.0014457784127444029
1761412831675417000,5.2934169921875,0.0016559390351176262,-0.0008636335842311382,0.0024998574517667294
1761412831685430300,5.30343017578125,-0.00011577026452869177,0.001910526305437088,-0.00009518326260149479
1761412831695443200,5.313443115234375,-0.00043801276478916407,0.004118287470191717,0.00211444147862494
1761412831705456400,5.323456298828125,-0.001487010158598423,0.00002573058009147644,-0.0016618630615994334
1761412831715469000,5.333468994140625,-0.0013482593931257725,-0.003102418500930071,-0.002803027629852295
1761412831725482200,5.343482177734375,-0.001393366139382124,0.0005287420935928822,-0.0024241171777248383
1761412831735495400,5.353495361328125,0.000231162179261446,0.0022898907773196697,-0.0007790825329720974
1761412831745508000,5.363508056640625,-0.0017417282797396183,-0.0013211201876401901,-0.0017482638359069824
1761412831755521300,5.373521240234375,-0.0015246807597577572,-0.0007192459888756275,-0.0023296319413930178
1761412831765534200,5.3835341796875,0.00006796343950554729,-0.0006941636092960835,-0.001447402872145176
1761412831775547400,5.39354736328125,-0.0003485549532342702,0.0007106540724635124,-0.002402412472292781
1761412831785560000,5.40356005859375,-0.0024969971273094416,0.0011294889263808727,-0.003008662024512887
1761412831795573200,5.4135732421875,-0.0009257319616153836,0.003481859341263771,0.00008167000487446785
1761412831805586400,5.42358642578125,-0.0011439534137025476,0.0012615988962352276,-0.002585428534075618
1761412831815599000,5.43359912109375,-0.001172182965092361,-0.0025299435947090387,0.002667123917490244
1761412831825612300,5.4436123046875,0.0007247516186907887,-0.000008550938218832016,-0.00026497826911509037
1761412831835625200,5.453625244140625,-0.0009232125012204051,-0.0014754198491573334,0.0017907158471643925
1761412831845638400,5.463638427734375,-0.0007075916510075331,-0.00010088132694363594,0.001366873737424612
1761412831855651000,5.473651123046875,-0.0002492616476956755,0.0007697059772908688,0.004521121270954609
1761412831865664300,5.483664306640625,0.0015430303756147623,-0.001165157649666071,0.0028045433573424816
1761412831875677400,5.493677490234375,-0.00008815573528409004,-0.0019816828425973654,0.002160058356821537
1761412831885690000,5.503690185546875,-0.0007830961840227246,0.004501153249293566,0.00010780757293105125
1761412831895703300,5.513703369140625,-0.0004802947514690459,0.0006254552863538265,0.0022708268370479345
1761412831905716200,5.52371630859375,0.001416446641087532,-0.00789187103509903,0.0023880626540631056
1761412831915729400,5.5337294921875,0.0001660927082411945,-0.0014803109224885702,0.00039015919901430607
1761412831925742000,5.5437421875,0.0002230150275863707,0.0035039549693465233,0.0002716660965234041
1761412831935755300,5.55375537109375,-0.0008033672347664833,-0.00014457525685429573,-0.0006095739081501961
1761412831945768200,5.563768310546875,0.002004601527005434,-0.0005461792461574078,0.002355515258386731
1761412831955781000,5.573781005859375,0.0018205770757049322,-0.00044817477464675903,0.0012558961752802134
1761412831965794300,5.583794189453125,-0.0004379035090096295,-0.005327082239091396,0.00012557418085634708
1761412831975807200,5.59380712890625,0.001199674210511148,-0.004550238139927387,0.0013178715016692877
1761412831985820400,5.6038203125,-0.000702225137501955,0.0014610011130571365,0.001469386275857687
1761412831995833000,5.6138330078125,0.0021340413950383663,0.002188843209296465,0.0005748304538428783
1761412832005846300,5.62384619140625,-0.0011108329053968191,-0.001054069958627224,-0.0018608591053634882
1761412832015859200,5.633859130859375,0.0009533832198940217,-0.004213377833366394,0.002076091943308711
1761412832025872100,5.6438720703125,0.00024113390827551484,0.0005269115790724754,-0.002136438386514783
1761412832035885300,5.65388525390625,-0.00037778474506922066,0.00010826252400875092,0.0010034285951405764
1761412832045898200,5.663898193359375,0.0018009883351624012,0.0010113413445651531,-0.0012107427464798093
1761412832055911400,5.673911376953125,-0.001180686871521175,0.0012638089247047901,-0.0030174311250448227
1761412832065924000,5.683924072265625,-0.00031568590202368796,-0.0007094172760844231,0.002530560828745365
1761412832075937300,5.693937255859375,-0.0006645600078627467,0.0008288244716823101,-0.0008018526714295149
1761412832085950200,5.7039501953125,-0.0031527646351605654,0.00357523700222373,-0.0018984661437571049
1761412832095963100,5.713963134765625,-0.00045391719322651625,0.0005384343676269054,-0.0006395899690687656
1761412832105976300,5.723976318359375,-0.00075200927676633,-0.002333118114620447,-0.0011679230956360698
1761412832115989200,5.7339892578125,-0.002529935445636511,0.0010070186108350754,-0.0031786097679287195
1761412832126002400,5.74400244140625,-0.0021362686529755592,0.0011932160705327988,-0.0008607467170804739
1761412832136015000,5.75401513671875,-0.0007101459777913988,-0.00007498124614357948,-0.00010866997763514519
1761412832146028300,5.7640283203125,-0.0009410420898348093,-0.000478450208902359,0.0016796428244560957
1761412832156041200,5.774041259765625,-0.0007996282074600458,-0.0006872420199215412,0.0004250274505466223
1761412832166054100,5.78405419921875,-0.0002587918716017157,-0.002269468503072858,0.0018699446227401495
1761412832176067000,5.794067138671875,-0.002793588675558567,0.003101595211774111,0.0006691254675388336
1761412832186080300,5.804080322265625,-0.0022560455836355686,-0.00002153869718313217,0.0026521917898207903
1761412832196093400,5.814093505859375,-0.0017420556396245956,-0.0001959758810698986,0.0013397857546806335
1761412832206106000,5.824106201171875,0.002838931977748871,-0.0006661578081548214,0.0013695748057216406
1761412832216119300,5.834119384765625,0.0024751443415880203,-0.0003433828242123127,0.0011469344608485699
1761412832226132200,5.84413232421875,-0.00011106632882729173,0.0003063725307583809,0.0015540749300271273
1761412832236145200,5.854145263671875,0.0018191927811130881,0.001558324322104454,-0.003572776447981596
1761412832246158000,5.864157958984375,0.0022248891182243824,-0.0005802754312753677,0.004446514882147312
1761412832256171300,5.874171142578125,0.0011724077630788088,-0.0052336170338094234,-0.000026796478778123856
1761412832266184400,5.884184326171875,0.0027036420069634914,-0.0021427369210869074,0.001106014708057046
1761412832276197000,5.894197021484375,-0.00013874971773475409,-0.000526730902493,0.00298114656470716
1761412832286210300,5.904210205078125,-0.001151827396824956,0.0018378100357949734,-0.0033303152304142714
1761412832296223200,5.91422314453125,0.0015704557299613953,-0.001004315447062254,-0.004585995338857174
1761412832306236200,5.924236083984375,0.0017339587211608887,-0.0013970343861728907,-0.0027440388221293688
1761412832316249000,5.9342490234375,0.0003957202425226569,0.0008349609561264515,-0.005689228884875774
1761412832326262300,5.94426220703125,0.0019303823355585337,-0.000168592669069767,-0.0024442998692393303
1761412832336275500,5.954275390625,0.0008874884224496782,-0.0008069523610174656,-0.002704756800085306
1761412832346288000,5.9642880859375,0.00041384738869965076,0.0008033211342990398,-0.004906525835394859
1761412832356301300,5.97430126953125,-0.0008250551181845367,-0.0020356085151433945,-0.0033025038428604603
1761412832366314200,5.984314208984375,0.00033082207664847374,-0.0029944342095404863,-0.0038519517984241247
1761412832376327200,5.9943271484375,-0.0004494841559790075,0.0004594195634126663,-0.00246817315928638
1761412832386340000,6.004340087890625,0.0005005588755011559,0.0013881721533834934,-0.0026944477576762438
1761412832396353300,6.014353271484375,0.0011192111996933818,0.0005442164838314056,-0.0048281727358698845
1761412832406366500,6.024366455078125,-0.0005917530506849289,0.0010648192837834358,0.002544065937399864
1761412832416379100,6.034379150390625,-0.0014378393534570932,0.0008384506218135357,-0.001466654590331018
1761412832426392300,6.044392333984375,-0.0016855134163051844,0.001319684088230133,0.0016282047145068645
1761412832436405200,6.0544052734375,-0.002352901501581073,0.0038313111290335655,0.003128629643470049
1761412832446418200,6.064418212890625,0.00017006939742714167,0.00012554321438074112,0.00551487784832716
1761412832456431000,6.07443115234375,0.00000841554719954729,0.00005150726065039635,0.0033902081195265055
1761412832466444300,6.0844443359375,-0.0021978397853672504,-0.0017632779199630022,-0.0005806580884382129
1761412832476457200,6.094457275390625,-0.0013541504740715027,0.0005041374824941158,0.0015538653824478388
1761412832486470100,6.10447021484375,-0.0006065591587685049,-0.0009099352173507214,0.0004438403993844986
1761412832496483300,6.1144833984375,0.0002930566552095115,-0.0029949238523840904,0.0018768876325339079
1761412832506496300,6.124496337890625,-0.0010251753265038133,-0.000417160801589489,0.0010282527655363083
1761412832516509200,6.13450927734375,-0.00036497769178822637,0.0005820570513606071,0.0019744737073779106
1761412832526522000,6.144522216796875,-0.0008276530425064266,0.0001291874796152115,0.0011705036740750074
1761412832536535300,6.154535400390625,-0.0008074130164459348,-0.003448236733675003,0.0011856837663799524
1761412832546548200,6.16454833984375,-0.0008329607080668211,0.0004721558652818203,-0.0021078488789498806
1761412832556561200,6.17456103515625,0.002903454238548875,0.002361136022955179,0.00011589075438678265
1761412832566574300,6.18457421875,0.0003710214514285326,-0.0031522298231720924,0.0010175220668315887
1761412832576587300,6.194587158203125,-0.002237544860690832,0.0021384060382843018,-0.0027521823067218065
1761412832586600200,6.20460009765625,-0.00021407051826827228,-0.0022167684510350227,-0.00332770892418921
1761412832596613000,6.214613037109375,-0.003121709916740656,0.0004107062704861164,-0.004649701993912458
1761412832606626300,6.224626220703125,0.001943300710991025,0.004585276357829571,-0.002123522339388728
1761412832616639200,6.23463916015625,-0.0018759384984150529,0.0025309138000011444,0.00036120694130659103
1761412832626652400,6.24465234375,0.0007969922735355794,-0.003407801501452923,0.00003820355050265789
1761412832636665600,6.25466552734375,0.0007932638400234282,0.0017411541193723679,-0.0028662397526204586
1761412832646678500,6.264678466796875,-0.000031307339668273926,0.002098613418638706,0.0013555726036429405
1761412832656691500,6.27469140625,0.00030638143653050065,-0.0020809515845030546,0.000577929662540555
1761412832666704400,6.284704345703125,0.0001961595262400806,-0.0009631323628127575,0.0017836573533713818
1761412832676717600,6.294717529296875,-0.00042781911906786263,0.0037405421026051044,0.001972209196537733
1761412832686730500,6.30473046875,0.0016983647365123034,-0.003378485329449177,0.004232739098370075
1761412832696742700,6.31474267578125,0.00016145454719662666,-0.000026364345103502274,0.0018958153668791056
1761412832706756600,6.324756591796875,-0.0001145428977906704,0.002316840924322605,0.0013223416171967983
1761412832716769500,6.33476953125,-0.0003718042862601578,-0.0033769975416362286,0.0025282208807766438
1761412832726781700,6.34478173828125,0.0003251641755923629,-0.0022534551098942757,0.002351120812818408
1761412832736795400,6.35479541015625,-0.0011725976364687085,-0.0008097556419670582,-0.0004965971456840634
1761412832746807600,6.3648076171875,-0.0018783330451697111,0.00029556499794125557,-0.0035033822059631348
1761412832756820500,6.374820556640625,0.00039360980736091733,-0.0013566601555794477,0.00003888830542564392
1761412832766833700,6.384833740234375,-0.0013645559083670378,-0.0006268173456192017,0.0018582064658403397
1761412832776846300,6.394846435546875,-0.00020767864771187305,0.0006629517301917076,-0.0006310500903055072
1761412832786859500,6.404859619140625,-0.0018917679553851485,-0.00227915751747787,0.001488209469243884
1761412832796872700,6.414872802734375,-0.0012712514726445079,-0.004135114140808582,0.00046688737347722054
1761412832806885400,6.424885498046875,-0.0005165530601516366,0.002984455320984125,-0.0022291364148259163
1761412832816898600,6.434898681640625,-0.0012350738979876041,0.0015293038450181484,-0.0004099311772733927
1761412832826911500,6.444911376953125,0.0015916592674329877,-0.0006446153856813908,0.001370318466797471
1761412832836924700,6.454924560546875,0.0012545030331239104,-0.0004395521245896816,0.0008398168720304966
1761412832846937300,6.464937255859375,-0.0003844491147901863,0.0005948087200522423,-0.000151860062032938
1761412832856950500,6.474950439453125,0.0009215651080012321,-0.0010992279276251793,0.0011461644899100065
1761412832866963700,6.484963623046875,-0.0012261038646101952,0.0006174775771796703,0.0023107281886041164
1761412832876976400,6.494976318359375,0.0010804599151015282,0.000739450566470623,0.001691277138888836
1761412832886989600,6.504989501953125,0.0001745735644362867,0.0009538535960018635,0.00040719471871852875
1761412832897002500,6.51500244140625,-0.0017484950367361307,0.0007128370925784111,-0.002435729606077075
1761412832907015700,6.525015625,-0.0006201977375894785,-0.00028571393340826035,-0.0011997180990874767
1761412832917028400,6.5350283203125,0.001169446506537497,0.0004397309385240078,0.0010650339536368847
1761412832927041500,6.54504150390625,0.00013068306725472212,-0.0012746895663440228,-0.0005936082452535629
1761412832937054700,6.5550546875,0.0002710316330194473,-0.0007452531717717648,-0.004481823183596134
1761412832947067400,6.5650673828125,-0.0012696671765297651,0.0005472265183925629,-0.0015016025863587856
1761412832957080600,6.57508056640625,0.00012423127191141248,0.0019752136431634426,-0.0033791312016546726
1761412832967093500,6.585093505859375,-0.0012169003020972013,-0.002185468329116702,-0.0025224031414836645
1761412832977106700,6.595106689453125,-0.000025402114260941744,-0.0006677331402897835,-0.0014507470186799765
1761412832987119400,6.605119384765625,-0.0005773837910965085,0.0004375213757157326,-0.0026478981599211693
1761412832997132500,6.615132568359375,-0.0006133364513516426,-0.0014453332405537367,-0.0000459898728877306
1761412833007145500,6.6251455078125,0.000316116726025939,0.0006047957576811314,-0.00010333838872611523
1761412833017158400,6.635158447265625,-0.0019944417290389538,0.0018839119002223015,-0.0004157271469011903
1761412833027171600,6.645171630859375,0.0016005664365366101,-0.000038687605410814285,0.00446919072419405
1761412833037184500,6.6551845703125,-0.000313181197270751,0.00012429757043719292,0.0021421206183731556
1761412833047197700,6.66519775390625,-0.0007996989297680557,-0.0010195854119956493,0.004908841103315353
1761412833057210400,6.67521044921875,0.00030018656980246305,0.0006299768574535847,0.0006733499467372894
1761412833067223600,6.6852236328125,0.0005883887060917914,0.0024998439475893974,-0.00048771605361253023
1761412833077236500,6.695236572265625,0.00017666397616267204,-0.001407545991241932,-0.0014890646561980247
1761412833087249400,6.70524951171875,0.00037773221265524626,-0.0025120831560343504,0.0024866873864084482
1761412833097262600,6.7152626953125,0.0011854689801111817,-0.0013549397699534893,0.0010810710955411196
1761412833107275500,6.725275634765625,-0.0017691852990537882,-0.0005716537125408649,-0.0003505290951579809
1761412833117288700,6.735288818359375,0.001364556374028325,-0.0018552974797785282,-0.001139623811468482
1761412833127301400,6.74530126953125,0.0017173603409901261,-0.0010928274132311344,-0.0001743505708873272
1761412833137314600,6.755314453125,0.0016204213025048375,-0.003566371276974678,-0.0008587830234318972
1761412833147327500,6.765327392578125,0.001089621102437377,0.0008235238492488861,0.0007439956534653902
1761412833157340400,6.77534033203125,0.001437429804354906,0.000024842098355293274,-0.000999575830064714
1761412833167353600,6.785353515625,-0.0008562785806134343,-0.0005136500112712383,-0.0028261744882911444
1761412833177366500,6.795366455078125,-0.0006464215111918747,-0.0008121905848383904,-0.004123932681977749
1761412833187379700,6.805379638671875,-0.00043397367699071765,-0.00016135629266500473,-0.002329201903194189
1761412833197392400,6.815392333984375,0.0006832223734818399,0.0002727392129600048,-0.00037204474210739136
1761412833207405600,6.825405517578125,-0.00015757960500195622,-0.0012253746390342712,0.00014051259495317936
1761412833217418500,6.83541845703125,-0.0016060728812590241,-0.00047489581629633904,-0.0006429892964661121
1761412833227431400,6.845431396484375,0.0007186071597971022,0.0020862198434770107,0.0012628547847270966
1761412833237444600,6.855444580078125,0.0012437824625521898,-0.0013585786800831556,-0.00021306914277374744
1761412833247457500,6.86545751953125,-0.0008398659992963076,-0.00038208113983273506,0.0013298406265676022
1761412833257470700,6.875470703125,0.00013351941015571356,-0.0012713104952126741,-0.0006329092429950833
1761412833267483400,6.8854833984375,-0.000757698027882725,-0.0024574515409767628,0.0014711786061525345
1761412833277496600,6.89549658203125,-0.000784329604357481,-0.0012094941921532154,0.00039952248334884644
1761412833287509500,6.905509521484375,0.0004750469233840704,-0.0015291122253984213,-0.0013431577244773507
1761412833297522400,6.9155224609375,0.00131900270935148,0.003918383736163378,-0.0020174700766801834
1761412833307535400,6.925535400390625,0.0003905159537680447,-0.0024988476652652025,-0.0005244899075478315
1761412833317548500,6.935548583984375,0.0004166149883531034,-0.0037662459071725607,0.0002488919999450445
1761412833327561700,6.945561767578125,0.0017981105484068394,-0.0023933330085128546,-0.0010366179049015045
1761412833337574400,6.955574462890625,0.0006553480634465814,-0.00006306730210781097,-0.00019505899399518967
1761412833347587600,6.965587646484375,-0.0009671613806858659,0.000751701183617115,-0.00045861839316785336
1761412833357600500,6.9756005859375,-0.00011841190280392766,0.0003820541314780712,0.00035071629099547863
1761412833367613400,6.985613525390625,0.0019630170427262783,0.0009553157724440098,-0.00019891257397830486
1761412833377626400,6.99562646484375,0.0005856301868334413,-0.0010303370654582977,0.002263179747387767
1761412833387639600,7.0056396484375,0.0007062158547341824,-0.0024723645765334368,0.000851084478199482
1761412833397652700,7.01565283203125,-0.001761202933266759,-0.0003335801884531975,0.003078552195802331
1761412833407665400,7.02566552734375,0.0000749739701859653,0.0028182724490761757,0.000005645677447319031
1761412833417678600,7.0356787109375,-0.0004462066572159529,-0.0010315929539501667,0.0010163153056055307
1761412833427691500,7.04569140625,-0.0019418462179601192,-0.000926729291677475,0.002045336179435253
1761412833437704400,7.055704345703125,0.0019431731197983027,-0.00003963010385632515,0.00008098827674984932
1761412833447717400,7.06571728515625,-0.0018861133139580488,0.0004236479289829731,-0.0008525368757545948
1761412833457730600,7.07573046875,0.000056928955018520355,0.000668658409267664,-0.004425433464348316
1761412833467743700,7.08574365234375,-0.0015864092856645584,0.000050821807235479355,0.0003460543230175972
1761412833477756400,7.09575634765625,0.00001015583984553814,0.0008124862797558308,-0.00027685915119946003
1761412833487769600,7.10576953125,0.0014472079928964376,-0.00029862578958272934,-0.00023383204825222492
1761412833497782500,7.115782470703125,0.0005236236029304564,-0.002130081644281745,-0.0004649944603443146
1761412833507795500,7.12579541015625,-0.0002482558775227517,-0.0017112018540501595,0.00009881379082798958
1761412833517808400,7.135808349609375,0.0019413951085880399,-0.0019306461326777935,0.0004980217199772596
1761412833527821600,7.145821533203125,-0.0018800987163558602,0.001627899706363678,-0.0006459361175075173
1761412833537834500,7.15583447265625,0.0015354054048657417,-0.0021058523561805487,-0.0003109104000031948
1761412833547847400,7.165847412109375,-0.0007340701995417476,-0.004205148667097092,-0.004015286453068256
1761412833557860600,7.175860595703125,-0.0013058509211987257,0.002249554730951786,-0.0023569357581436634
1761412833567873500,7.18587353515625,-0.0008658979786559939,0.0006564036011695862,-0.000540149980224669
1761412833577886500,7.195886474609375,0.002956004347652197,-0.0008541415445506573,0.003854598617181182
1761412833587899400,7.2058994140625,-0.00020239269360899925,-0.0035298538859933615,0.0038226826582103968
1761412833597912600,7.21591259765625,-0.0019792537204921246,-0.0010778815485537052,0.0033505039755254984
1761412833607924500,7.225924560546875,-0.0028539435006678104,0.0026263296604156494,0.004362295847386122
1761412833617938400,7.2359384765625,0.0005415868363343179,0.0016596023924648762,0.006781244650483131
1761412833627950800,7.245950927734375,0.0007826777291484177,-0.00028115324676036835,0.0024374579079449177
1761412833637963000,7.255962890625,-0.0015214892337098718,-0.0021472303196787834,0.00033063115552067757
1761412833647976000,7.265975830078125,-0.00009026459883898497,0.0002946872264146805,0.0022022812627255917
1761412833657990000,7.275989990234375,-0.0005469967727549374,0.0008526192978024483,-0.000005745561793446541
1761412833668002000,7.286001953125,-0.002317124977707863,0.0037202006205916405,0.0013424418866634369
1761412833678015000,7.296014892578125,0.0005188751965761185,0.0005883229896426201,0.0011480310931801796
1761412833688028200,7.306028076171875,-0.0008763968362472951,-0.0013454633299261332,-0.00002187606878578663
1761412833698041000,7.316041015625,0.0011555950623005629,-0.0025249775499105453,-0.00044904707465320826
1761412833708054000,7.326053955078125,-0.0009140814654529095,-0.00010691117495298386,-0.0031271877232939005
1761412833718067000,7.33606689453125,-0.0005036883521825075,0.0013210759498178959,-0.0006179573247209191
1761412833728080100,7.346080078125,0.00015060260193422437,0.0012683230452239513,-0.0005438255611807108
1761412833738093000,7.356093017578125,0.0014787211548537016,-0.00036286283284425735,-0.0019406535429880023
1761412833748106000,7.36610595703125,-0.0029714838601648808,-0.0010527479462325573,-0.001766094472259283
1761412833758119200,7.376119140625,0.0006621329230256379,0.0006540720351040363,0.0021828406024724245
1761412833768132000,7.386132080078125,-0.0003638809430412948,0.0017929370515048504,0.00106013473123312
1761412833778145000,7.39614501953125,0.00140845263376832,0.0012579080648720264,0.002716887043789029
1761412833788158000,7.406157958984375,-0.00009997381130233407,-0.0008822623640298843,-0.001897837850265205
1761412833798171100,7.416171142578125,0.0007293344824574888,-0.0008798651397228241,-0.003933025524020195
1761412833808183800,7.426183837890625,0.00009403337026014924,0.0016394327394664288,-0.00035161105915904045
1761412833818197000,7.436197021484375,0.001881280681118369,-0.00021173059940338135,-0.003160713240504265
1761412833828210200,7.446210205078125,0.0005049569299444556,-0.003578432835638523,-0.0004977950593456626
1761412833838223000,7.45622314453125,-0.00216592731885612,-0.0007355082780122757,-0.0016584006370976567
1761412833848236000,7.466236083984375,-0.00003085634671151638,0.0012032249942421913,-0.0020709894597530365
1761412833858249000,7.4762490234375,0.001044528093189001,0.000011993106454610825,0.0018960554152727127
1761412833868262100,7.48626220703125,0.000439092458691448,0.0012255916371941566,0.000437895767390728
1761412833878274800,7.49627490234375,-0.0004368211957626045,0.001123060006648302,-0.0025541656650602818
1761412833888288000,7.5062880859375,0.001864320132881403,0.000417554285377264,-0.00017449702136218548
1761412833898301200,7.51630126953125,0.0016227713786065578,-0.0017918043304234743,0.0019685484003275633
1761412833908314000,7.526314208984375,-0.001323268050327897,0.0014705285429954529,0.004325570538640022
1761412833918327000,7.5363271484375,0.00003228092100471258,0.001745366957038641,0.00033429148606956005
1761412833928340000,7.546340087890625,-0.0005358761991374195,0.0009921789169311523,-0.0004287990741431713
1761412833938353200,7.556353271484375,-0.0010288272751495242,-0.001980175031349063,-0.0020488000009208918
1761412833948365800,7.56636572265625,-0.0004442485223989934,-0.0006078467704355717,-0.0011093653738498688
1761412833958379000,7.57637890625,0.0026492795441299677,-0.0010861502960324287,-0.002122431993484497
1761412833968392200,7.58639208984375,-0.0009372548665851355,0.0004759775474667549,-0.00007885880768299103
1761412833978405000,7.596405029296875,0.000622824823949486,0.0001153857447206974,-0.0010791420936584473
1761412833988418000,7.60641796875,-0.0015297039644792676,-0.0002984837628901005,-0.0013564957771450281
1761412833998431000,7.616430908203125,0.0016453166026622057,0.0007963418029248714,0.0018267808482050896
1761412834008444200,7.626444091796875,0.0030439747497439384,-0.0022055425215512514,0.00044181221164762974
1761412834018456800,7.636456787109375,0.0017259764717891812,-0.0005565132014453411,-0.0018357231747359037
1761412834028470000,7.646469970703125,-0.00004561099922284484,-0.000063309445977211,-0.0027620557229965925
1761412834038483000,7.65648291015625,0.002421807497739792,-0.00015918351709842682,-0.0009417851688340306
1761412834048496000,7.66649609375,-0.0005116363754495978,-0.000977618619799614,-0.004881216213107109
1761412834058509000,7.676509033203125,-0.0009012568043544888,0.0010450524277985096,-0.0010454650036990643
1761412834068522000,7.68652197265625,-0.0012953593395650387,-0.0006271190941333771,0.0002085303422063589
1761412834078535200,7.69653515625,-0.002005624584853649,-0.0004031471908092499,0.001279653748497367
1761412834088547800,7.7065478515625,0.001101671252399683,0.000270661897957325,0.0002891554031521082
1761412834098561000,7.71656103515625,0.00006889738142490387,0.0004275217652320862,-0.0031433929689228535
1761412834108574000,7.726573974609375,-0.00008401667582802474,-0.0012837715912610292,-0.0034678829833865166
1761412834118587100,7.736587158203125,0.000705344311427325,0.00035593658685684204,-0.0014430817682296038
1761412834128600000,7.74660009765625,-0.000019943632651120424,0.0023809699341654778,-0.0016533148009330034
1761412834138613000,7.756613037109375,-0.0010934638557955623,0.0002653547562658787,-0.0015992525732144713
1761412834148626200,7.766626220703125,0.0007173364865593612,-0.0007914346642792225,-0.0016501767095178366
1761412834158638800,7.776638916015625,0.0004938972997479141,0.0006069913506507874,-0.0024443313013762236
1761412834168652000,7.786652099609375,-0.0008030137978494167,0.0019512427970767021,-0.0020933232735842466
1761412834178665000,7.7966650390625,0.0009482809109613299,0.0017477772198617458,0.00027635740116238594
1761412834188678100,7.80667822265625,0.000354551593773067,-0.001367262564599514,-0.004156647250056267
1761412834198691000,7.816691162109375,0.0009569586254656315,-0.005640304647386074,0.00032119196839630604
1761412834208704000,7.8267041015625,0.0022197647485882044,-0.0009317398071289062,-0.00009141652844846249
1761412834218717200,7.83671728515625,0.001127069815993309,0.0026938877999782562,0.001520328689366579
1761412834228729900,7.846729736328125,0.00131306704133749,-0.0005127275362610817,-0.0019695579539984465
1761412834238743000,7.856742919921875,0.00025232991902157664,-0.0009036799892783165,-0.002920040162280202
1761412834248756000,7.866755859375,0.0006969464593566954,0.00005743838846683502,0.0004122396931052208
1761412834258769200,7.87676904296875,0.00041545031126588583,0.0009892787784337997,-0.0026021923404186964
1761412834268782000,7.886781982421875,0.0003807030734606087,-0.0009293006733059883,0.00012975838035345078
1761412834278795000,7.896794921875,0.00019614596385508776,0.0005668629892170429,0.0001377479638904333
1761412834288808200,7.90680810546875,-0.0019650310277938843,-0.0012581325136125088,0.0011955627705901861
1761412834298820900,7.91682080078125,-0.0003373070794623345,-0.000931362621486187,0.0028805448673665524
1761412834308834000,7.926833984375,-0.0006152883288450539,0.0019526639953255653,-0.00030956603586673737
1761412834318847000,7.936846923828125,-0.0002602889435365796,0.002550543751567602,-0.0008216918213292956
1761412834328860200,7.946860107421875,-0.00246206927113235,0.002115675713866949,-0.0017152701038867235
1761412834338872800,7.956872802734375,-0.0021395604126155376,-0.00023083575069904327,-0.0018705324037000537
1761412834348886000,7.966885986328125,-0.0010613873600959778,0.0012968829832971096,0.0018861002754420042
1761412834358899200,7.976899169921875,-0.0028518305625766516,0.002650035545229912,0.00021656439639627934
1761412834368912000,7.986911865234375,-0.00006839694106020033,-0.00008797366172075272,-0.003622191958129406
1761412834378925000,7.996925048828125,0.0008559862617403269,-0.0021729625295847654,-0.0010197508381679654
1761412834388937000,8.00693701171875,0.0005027311854064465,-0.00043549155816435814,-0.00184910511597991
1761412834398950100,8.0169501953125,-0.0006663964595645666,0.0023823995143175125,-0.0016549606807529926
1761412834408963000,8.026963134765625,0.002238868735730648,-0.0023707386571913958,0.0002779399510473013
1761412834418976000,8.03697607421875,-0.00045997853158041835,0.0008013523183763027,0.0008561122231185436
1761412834428989000,8.046989013671874,0.0028499055188149214,-0.0008864304982125759,-0.000007430789992213249
1761412834439002000,8.057002197265625,0.0005862186080776155,-0.001154344528913498,-0.0021744449622929096
1761412834449015000,8.06701513671875,0.0009813504293560982,0.002051867078989744,-0.0019724878948181868
1761412834459028000,8.077028076171874,0.0008276861044578254,-0.0010078386403620243,0.0013687140308320522
1761412834469041200,8.087041259765625,0.0003459457657299936,0.00045516155660152435,-0.0006249173311516643
1761412834479054000,8.09705419921875,0.000811199948657304,0.0017388048581779003,0.0009889581706374884
1761412834489067000,8.10706689453125,0.0016192058101296425,0.0011165696196258068,0.0007724170573055744
1761412834499080000,8.117079833984375,0.001346764387562871,0.0004968522116541862,-0.0008129627676680684
1761412834509093000,8.127093017578124,-0.00017004850087687373,0.0009207320399582386,0.0013400667812675238
1761412834519105800,8.137105712890625,-0.0009985578944906592,0.0007143369875848293,-0.00020829495042562485
1761412834529119000,8.147118896484375,-0.00014182872837409377,0.0016659200191497803,0.0024971929378807545
1761412834539132200,8.157132080078124,-0.0023663672618567944,0.0012970720417797565,0.0023033148609101772
1761412834549145000,8.16714501953125,-0.0008948355680331588,0.0012173978611826897,0.0017929919995367527
1761412834559158000,8.177157958984376,0.000740877992939204,-0.00031232181936502457,-0.0019769789651036263
1761412834569171000,8.1871708984375,0.0012576854787766933,-0.0014790692366659641,0.0017851274460554123
1761412834579184000,8.19718408203125,0.00019721477292478085,0.0007047229446470737,0.003466913942247629
1761412834589196800,8.20719677734375,0.00035618769470602274,-0.00036232033744454384,0.0008986846078187227
1761412834599210000,8.2172099609375,-0.0018185495864599943,-0.00030319858342409134,-0.0002022662665694952
1761412834609223200,8.22722314453125,0.00009322678670287132,-0.0011553149670362473,0.002571539022028446
1761412834619236000,8.237236083984374,-0.00046337387175299227,0.0007885266095399857,-0.0008820485090836883
1761412834629249800,8.247249755859375,0.0004648639587685466,-0.0012186383828520775,0.0022975741885602474
1761412834639263000,8.257262939453126,0.001724539208225906,-0.0003674919717013836,0.0007537396159023046
1761412834649276000,8.26727587890625,0.00020301929907873273,0.00033928966149687767,-0.0015774171333760023
1761412834659288800,8.277288818359375,-0.0003240202786400914,-0.00022024055942893028,-0.0023729035165160894
1761412834669302000,8.287302001953124,0.0013129126746207476,-0.00019831489771604538,-0.0006902252789586782
1761412834679315000,8.29731494140625,-0.0005627517239190638,0.0020411373116075993,0.0011809116695076227
1761412834689327900,8.307327880859376,-0.0002340363571420312,-0.0005680578760802746,0.0021025706082582474
1761412834699340800,8.3173408203125,0.0017734543653205037,-0.002613898366689682,0.0006010802462697029
1761412834709354000,8.32735400390625,-0.0005380434449762106,0.0007477547042071819,0.0019408250227570534
1761412834719367000,8.337366943359376,-0.00025415048003196716,0.003028219100087881,0.000744533259421587
1761412834729379800,8.3473798828125,0.00027009518817067146,0.0005016322247684002,0.0009298447985202074
1761412834739393000,8.35739306640625,-0.0008210018859244883,0.0014060414396226406,0.0017785942181944847
1761412834749406000,8.367406005859374,-0.002060654805973172,0.0013253712095320225,-0.0007451415294781327
1761412834759419000,8.3774189453125,-0.0019527968252077699,0.00009632250294089317,0.0008764571975916624
1761412834769431800,8.387431884765626,0.0006322837434709072,-0.0011958642862737179,0.0021534161642193794
1761412834779445000,8.397445068359374,-0.0001837087911553681,0.0005666157230734825,0.002954494673758745
1761412834789458000,8.4074580078125,0.0003350545885041356,-0.0013171848841011524,0.0009247078560292721
1761412834799470800,8.417470947265626,0.0017571825301274657,0.0008357143960893154,-0.0005661296891048551
1761412834809484000,8.427484130859375,0.0010225422447547317,-0.0012795825023204088,-0.00003225053660571575
1761412834819497000,8.4374970703125,0.0005740659544244409,0.0022823954932391644,0.0014117155224084854
1761412834829510000,8.447510009765624,0.0015050137881189585,0.00006710365414619446,-0.0003678057109937072
1761412834839522800,8.457522705078125,0.00012895837426185608,-0.0016586247365921736,0.002556877676397562
1761412834849536000,8.467535888671875,0.0005039678071625531,-0.00033851107582449913,0.00024863029830157757
1761412834859549000,8.477548828125,0.0021042614243924618,0.001798143144696951,0.0000310500618070364
1761412834869561900,8.487561767578125,0.00033646158408373594,-0.0012654627207666636,0.00012122839689254761
1761412834879575000,8.497574951171876,0.00009251601295545697,0.0004317699931561947,-0.00018956256099045277
1761412834889588000,8.507587890625,0.0009659077040851116,-0.00003678072243928909,-0.00012822961434721947
1761412834899601000,8.517600830078125,-0.0007632827619090676,-0.0029047387652099133,-0.0015674018068239093
1761412834909613800,8.52761376953125,0.000848205469083041,0.00162023538723588,0.002074756659567356
1761412834919627000,8.537626953125,0.0002604458131827414,-0.00027726683765649796,-0.001603335258550942
1761412834929640000,8.547639892578125,-0.0018272664165124297,-0.0008656377904117107,-0.00038985407445579767
1761412834939652900,8.55765283203125,-0.0008674631244502962,0.00040415767580270767,0.0009856687393039465
1761412834949665800,8.567665771484375,0.0013813783880323172,-0.0001292605884373188,0.001428678398951888
1761412834959679000,8.577678955078126,-0.0008130663773044944,0.002024171408265829,-0.0004320722073316574
1761412834969692000,8.58769189453125,0.0013415428111329675,0.0009802933782339096,0.0029587717726826668
1761412834979704800,8.597704833984375,-0.00007659039692953229,0.0016333004459738731,0.0019627497531473637
1761412834989718000,8.607718017578126,0.0010243316646665335,0.0006606667302548885,0.0009315637871623039
1761412834999731000,8.61773095703125,-0.0010755707044154406,0.0007128645665943623,0.0010585966520011425
1761412835009744000,8.627743896484375,0.0005403321702033281,-0.0006464230827987194,0.000743035925552249
1761412835019756800,8.6377568359375,0.0008079799590632319,0.0013653291389346123,-0.00015258509665727615
1761412835029770000,8.64777001953125,-0.0016918282490223646,0.001544727012515068,0.0015523259062319994
1761412835039782000,8.657781982421875,0.0004120690282434225,0.0017228922806680202,0.00011341995559632778
1761412835049794800,8.667794921875,0.0011633841786533594,-0.0027932932134717703,0.000029487302526831627
1761412835059808000,8.67780810546875,-0.002073421608656645,0.0017029214650392532,0.0021735981572419405
1761412835069821000,8.687821044921876,0.00035269599175080657,-0.00021177483722567558,0.0007082251831889153
1761412835079834000,8.697834228515624,-0.00009711191523820162,-0.0008530640043318272,-0.0011823528911918402
1761412835089846800,8.7078466796875,0.0003807539469562471,0.00007549580186605453,0.00027434038929641247
1761412835099860000,8.71785986328125,0.0016233848873525858,-0.00033383211120963097,-0.001637010253034532
1761412835109873000,8.727872802734375,-0.0021792592015117407,-0.0013328555505722761,0.0007390487007796764
1761412835119885800,8.7378857421875,-0.00039414229104295373,0.00039819907397031784,-0.0015507370699197054
1761412835129898800,8.747898681640624,0.0005470297764986753,0.00009777816012501717,-0.0006092163966968656
1761412835139912000,8.757911865234375,-0.0011105216108262539,0.0001297364942729473,0.003057956462725997
1761412835149925000,8.767925048828126,0.0007315611001104116,-0.0005789641290903091,-0.0009769981261342764
1761412835159937800,8.777937744140624,-0.002605379791930318,0.0007424964569509029,-0.0016933884471654892
1761412835169951000,8.787950927734375,0.00007252756040543318,-0.00045980652794241905,0.0003818289842456579
1761412835179964000,8.7979638671875,-0.000047048379201442,0.0020970944315195084,0.004422643221914768
1761412835189976800,8.807976806640625,-0.0019053838914260268,0.0016729212366044521,-0.0004223976284265518
1761412835199989800,8.81798974609375,0.0014376821927726269,-0.0010885102674365044,-0.0014120283303782344
1761412835210003000,8.8280029296875,-0.0005280388286337256,0.0027065053582191467,0.0005279865581542253
1761412835220016000,8.83801611328125,-0.001531784189864993,0.002672949805855751,0.00042039481922984123
1761412835230028800,8.84802880859375,0.000874421966727823,0.003225372638553381,0.0012788139283657074
1761412835240042000,8.8580419921875,0.0002826675772666931,-0.00018720189109444618,0.0019078527111560106
1761412835250055000,8.868054931640625,0.001654534600675106,-0.0016417775768786669,-0.0010208634193986654
1761412835260067800,8.87806787109375,0.0006177659379318357,0.0005835597403347492,0.001372253056615591
1761412835270080800,8.888080810546874,0.0006738023948855698,0.0003960919566452503,0.00027244072407484055
1761412835280094000,8.898093994140625,-0.0009563184576109052,0.0018885275349020958,-0.0013201296096667647
1761412835290107100,8.908107177734376,-0.0011592550436034799,-0.0005903532728552818,-0.001599019393324852
1761412835300119800,8.918119873046875,0.0018786127911880612,0.0007191230542957783,0.0006665317341685295
1761412835310133000,8.928133056640625,-0.00039715570164844394,-0.00016073184087872505,0.002405403647571802
1761412835320146000,8.93814599609375,0.00029420090140774846,0.0007940116338431835,0.00006555020809173584
1761412835330158800,8.948158935546875,0.0014576155226677656,-0.0008130590431392193,0.0004474774468690157
1761412835340171800,8.958171875,0.0019529636483639479,0.0005406257696449757,0.001671466277912259
1761412835350185000,8.96818505859375,-0.000831539393402636,0.00021567801013588905,0.0009305332787334919
1761412835360198000,8.978197998046875,-0.0010640333639457822,-0.002150807064026594,0.00010894797742366791
1761412835370210800,8.9882109375,0.0003571392153389752,-0.0013379489537328482,0.0028597009368240833
1761412835380224000,8.99822412109375,-0.0011552699143067002,0.0015771472826600075,-0.0006237139459699392
1761412835390237000,9.00823681640625,-0.0020520067773759365,0.0007269210182130337,0.00022503710351884365
1761412835400249900,9.018249755859374,0.0003786602756008506,-0.0024899111595004797,0.0008594021201133728
1761412835410262800,9.0282626953125,0.0018760387320071459,0.0006937077268958092,0.0019017092417925596
1761412835420276000,9.03827587890625,0.0003668252029456198,0.002605058718472719,0.0006558822933584452
1761412835430289000,9.048288818359374,0.0003333900822326541,-0.0012784663122147322,0.002385656349360943
1761412835440301800,9.0583017578125,0.00026601209538057446,0.0003154356963932514,0.0006242415402084589
1761412835450315000,9.06831494140625,0.000594558019656688,0.0007302430458366871,-0.0022669953759759665
1761412835460328000,9.078327880859375,0.0004155935603193939,0.001545969396829605,0.0009168137330561876
1761412835470340900,9.0883408203125,0.0012214822927489877,-0.0011719309259206057,0.0010478566400706768
1761412835480353800,9.098353759765626,-0.000355908035999164,0.0009876266121864319,-0.0009338016388937831
1761412835490367000,9.108366943359375,0.0009632412111386657,-0.0026057721115648746,0.001072584418579936
1761412835500380000,9.1183798828125,-0.0016519830096513033,0.0002510007470846176,0.004154128022491932
1761412835510392800,9.128392822265624,0.0015508965589106083,-0.0013118982315063477,-0.0016753501258790493
1761412835520406000,9.138406005859375,-0.00027443404542282224,-0.0018272199667990208,-0.002614114433526993
1761412835530419000,9.1484189453125,0.0007116851047612727,-0.0007336065173149109,-0.0025421103928238153
1761412835540432000,9.158431884765625,0.0006456387345679104,-0.0013397419825196266,0.0022507805842906237
1761412835550444800,9.16844482421875,-0.0007249592454172671,0.001429474912583828,-0.001786131877452135
1761412835560458000,9.1784580078125,-0.0011132481740787625,-0.0006190286949276924,-0.00022312276996672153
1761412835570471000,9.188470947265625,-0.0014148271875455976,0.0005173357203602791,-0.0016920989146456122
1761412835580483800,9.19848388671875,-0.0010648878524079919,0.0010955077596008778,0.0017713422421365976
1761412835590496800,9.208496826171874,-0.0007154687191359699,0.0013667307794094086,0.001847872044891119
1761412835600510000,9.218510009765625,0.000450196850579232,0.00023834919556975365,0.0024987487122416496
1761412835610523000,9.22852294921875,-0.0001528351567685604,0.0007695434615015984,-0.0017051429022103548
1761412835620535800,9.238535888671874,-0.000428472354542464,0.000349563080817461,-0.00035438756458461285
1761412835630548200,9.24854833984375,0.0006253162864595652,0.0013345517218112946,-0.0004947194829583168
1761412835640561400,9.2585615234375,0.00012650626013055444,-0.001735274214297533,0.00019796867854893208
1761412835650573300,9.2685732421875,0.0003782497951760888,-0.000726046971976757,0.001891035120934248
1761412835660586200,9.278586181640625,-0.0007743662572465837,-0.00021738326177001,0.0009104593191295862
1761412835670599400,9.288599365234376,-0.002022365340963006,0.0015330472961068153,-0.0008855562191456556
1761412835680612400,9.2986123046875,0.0006144304643385112,-0.00037803733721375465,0.0003205894026905298
1761412835690625500,9.30862548828125,0.0006253248429857194,-0.0010873530991375446,-0.0007933952147141099
1761412835700638200,9.31863818359375,0.0011502339038997889,-0.000015696976333856583,0.00028465245850384235
1761412835710651400,9.3286513671875,-0.0004398376913741231,-0.0025024779606610537,0.0001096096821129322
1761412835720664300,9.338664306640625,0.0004368749214336276,0.0028504757210612297,-0.00029572355560958385
1761412835730677200,9.34867724609375,-0.0024111333768814802,0.0031252000480890274,-0.001841138582676649
1761412835740690400,9.3586904296875,0.00004909484414383769,-0.00028311368077993393,0.002076637465506792
1761412835750703400,9.368703369140626,0.0019068411784246564,-0.001979436492547393,0.0011558872647583485
1761412835760716500,9.378716552734375,0.001738529303111136,-0.00006888480857014656,-0.0011863629333674908
1761412835770729200,9.388729248046875,-0.002133506815880537,0.002465197816491127,0.0012307576835155487
1761412835780742400,9.398742431640626,0.0008055577636696398,0.0008334792219102383,0.0011796250473707914
1761412835790755300,9.40875537109375,-0.0017049210146069527,-0.0012915940023958683,0.001532986294478178
1761412835800768300,9.418768310546875,0.0000506348442286253,0.002100740559399128,0.000592624070122838
1761412835810781200,9.42878125,-0.0009331998298875988,-0.000010210555046796799,-0.0009510716190561652
1761412835820794400,9.43879443359375,-0.0012937919236719608,0.00243963161483407,-0.0014634638791903853
1761412835830807600,9.4488076171875,0.000551136676222086,-0.0010110787115991116,-0.0015045462641865015
1761412835840820200,9.4588203125,0.00007895822636783123,0.0006070579402148724,-0.0017953634960576892
1761412835850833400,9.46883349609375,-0.0008796646143309772,-0.0004156045615673065,-0.0012202824000269175
1761412835860846300,9.478846435546876,-0.0009353247005492449,0.003765558358281851,0.0024186610244214535
1761412835870859300,9.488859375,-0.0001435524900443852,-0.0022567068226635456,-0.00022215000353753567
1761412835880872200,9.4988720703125,-0.0024447899777442217,0.0009268359281122684,-0.00008819298818707466
1761412835890885400,9.508885498046874,0.0016812894027680159,-0.0003740210086107254,0.00214435369707644
1761412835900898600,9.518898681640625,-0.0007349966908805072,-0.0013306285254657269,0.005118838511407375
1761412835910911200,9.5289111328125,0.0012661428190767765,0.001816815696656704,0.0005970518104732037
1761412835920924400,9.53892431640625,-0.0008907513110898435,0.0003094668500125408,0.002172045176848769
1761412835930937300,9.548937255859375,-0.0005833595641888678,0.00007232045754790306,0.0016493268776685
1761412835940950300,9.5589501953125,-0.00011544214794412255,-0.0012265034019947052,0.00008072517812252045
1761412835950963200,9.568963134765625,-0.00017975459923036397,-0.0004795263521373272,-0.0006294683553278446
1761412835960976400,9.578976318359375,-0.00006843445589765906,-0.000002021435648202896,-0.0027826339937746525
1761412835970989600,9.588989501953124,0.0020778942853212357,0.0004100794903934002,0.000454871216788888
1761412835981002200,9.599002197265625,0.0008850645972415805,0.0018125004135072231,-0.0037678368389606476
1761412835991015400,9.609015380859375,0.00087057362543419,0.0011100242845714092,0.00019070832058787346
1761412836001028400,9.6190283203125,0.002051152754575014,-0.0004977262578904629,-0.0007547137793153524
1761412836011041300,9.629041259765625,0.0006500862655229867,0.0013458281755447388,-0.001739347237162292
1761412836021054200,9.63905419921875,-0.0009131893166340888,-0.00023955153301358223,-0.0018589231185615063
1761412836031067400,9.6490673828125,-0.002563259331509471,0.00021490035578608513,0.000052677933126688004
1761412836041080300,9.659080322265625,0.0004612925695255399,0.0005573825910687447,0.003453268203884363
1761412836051093200,9.66909326171875,0.0009298677905462682,-0.0001337788999080658,0.0011493084020912647
1761412836061106400,9.6791064453125,-0.0006888014613650739,0.0017245751805603504,0.0008118858095258474
1761412836071119400,9.689119384765625,-0.001675558858551085,0.001212814822793007,0.000182450283318758
1761412836081132300,9.69913232421875,-0.0019392118556424975,0.0010945703834295273,-0.000626884400844574
1761412836091145200,9.709145263671875,0.00014982209540903568,0.003145777154713869,-0.0026305352803319693
1761412836101158400,9.719158447265626,0.002856659237295389,-0.0013799986336380243,-0.0019018943421542645
1761412836111171300,9.72917138671875,0.0004557461361400783,-0.0021149758249521255,0.000367684755474329
1761412836121184300,9.739184326171875,0.0004232555511407554,0.000698387622833252,-0.0033503544982522726
1761412836131197400,9.749197509765626,0.0008605311741121113,0.00047314446419477463,-0.0013947131810709834
1761412836141210400,9.75921044921875,-0.000756007619202137,0.000001498498022556305,-0.001697248313575983
1761412836151223300,9.769223388671875,0.00011230300879105926,0.0013279849663376808,0.0002561404835432768
1761412836161236200,9.779236328125,0.0012223084922879934,0.0011452920734882355,-0.0012677203631028533
1761412836171249400,9.78924951171875,-0.0010499447816982865,0.0004864097572863102,-0.0011463649570941925
1761412836181262300,9.799262451171876,-0.0004467387916520238,-0.00035088835284113884,-0.00014767958782613277
1761412836191274500,9.8092744140625,0.001722348970361054,-0.0007364694029092789,-0.00296802562661469
1761412836201287200,9.819287109375,-0.000006575137376785278,-0.003086975309997797,0.0009902305901050568
1761412836211301400,9.82930126953125,-0.0003742800035979599,0.0006020716391503811,-0.0034931909758597612
1761412836221313300,9.839313232421874,-0.0010174333583563566,0.0005482761189341545,-0.0002515914384275675
1761412836231326500,9.849326416015625,-0.00046368970652110875,0.001121337991207838,-0.0009598677279427648
1761412836241339400,9.85933935546875,0.0008788098348304629,0.002190596889704466,-0.0016533548478037119
1761412836251352300,9.869352294921875,0.0009650411666370928,-0.0022346668411046267,-0.00008145766332745552
1761412836261365500,9.879365478515625,-0.0007012987043708563,-0.0034852870739996433,0.0033031536731868982
1761412836271378200,9.889378173828124,-0.0020052087493240833,-0.0024138775188475847,-0.0018674384336918592
1761412836281391400,9.899391357421875,-0.001938896137289703,-0.0003816192038357258,0.0005030413158237934
1761412836291404300,9.909404296875,0.0013225686270743608,-0.0023757650051265955,-0.0007610151078552008
1761412836301417500,9.91941748046875,0.00041949073784053326,-0.00031474465504288673,-0.002870771335437894
1761412836311430400,9.929430419921875,-0.0001182044215966016,0.0005161948502063751,0.0003839952405542135
1761412836321443300,9.939443359375,0.003128188895061612,0.000025907065719366074,0.0007357986178249121
1761412836331456500,9.94945654296875,-0.0004963581450283527,-0.0011869121808558702,0.0011261613108217716
1761412836341469200,9.95946923828125,-0.0013672118075191975,-0.00007264548912644386,0.001382357208058238
1761412836351482400,9.969482421875,0.0018763248808681965,-0.0005021747201681137,-0.0013841580366715789
1761412836361495300,9.979495361328125,0.0008675194694660604,0.00025895657017827034,0.0016893961001187563
1761412836371508500,9.989508544921875,-0.00018506625201553106,0.0011784541420638561,-0.0010860221227630973
1761412836381521400,9.999521484375,0.0007710086065344512,-0.0006292993202805519,-0.0027430409099906683
1761412836391534300,10.009534423828125,0.0008343833615072072,-0.0005396348424255848,0.0011007336433976889
1761412836401547500,10.019547607421876,0.0015971127431839705,-0.00004242267459630966,-0.001770154107362032
1761412836411560200,10.029560302734374,-0.00033961908775381744,0.000709187239408493,-0.0018681224901229143
1761412836421573400,10.039573486328125,-0.0013822466135025024,-0.00136914337053895,-0.0007775580743327737
1761412836431586300,10.04958642578125,0.00010247802129015326,-0.0000966489315032959,-0.002322568790987134
1761412836441599500,10.059599609375,-0.0009143168572336435,-0.0003789439797401428,-0.00383977172896266
1761412836451612400,10.0696123046875,0.0008940314291976392,-0.0007039722986519337,-0.0007980671944096684
1761412836461625300,10.079625244140624,-0.000733692548237741,0.0018502655439078808,-0.00005983887240290642
1761412836471638500,10.089638427734375,-0.00029878082568757236,0.04370369762182236,0.046916067600250244
1761412836481651200,10.099651123046876,0.0032900949008762836,0.0801842138171196,0.08964462578296661
1761412836491664400,10.109664306640624,-0.004983620718121529,0.008759899064898491,0.0026341525372117758
1761412836501677300,10.11967724609375,0.0014875944470986724,-0.051801715046167374,-0.0831979364156723
1761412836511690500,10.1296904296875,-0.0036359778605401516,-0.08801205456256866,-0.08125652372837067
1761412836521703200,10.139703125,0.005571901332587004,-0.040824566036462784,-0.01894494891166687
