time,seconds_elapsed,z,y,x
1761412806717922600,0.067922607421875,-0.0011583234881982207,-0.007103932090103626,-0.015378698706626892
1761412806727935500,0.077935546875,0.003142148954793811,-0.0038639302365481853,-0.007882965728640556
1761412806737948700,0.08794873046875,-0.0006695376941934228,0.002419929951429367,0.008997058495879173
1761412806747961600,0.097961669921875,-0.001553707174025476,0.004235939122736454,0.010691361501812935
1761412806757974500,0.107974609375,0.0005287369713187218,-0.0006637861952185631,-0.004145029932260513
1761412806767987500,0.117987548828125,-0.0007245465531013906,-0.006009549368172884,-0.011121179908514023
1761412806778000600,0.128000732421875,0.0008841747767291963,-0.0009422278963029385,-0.0022043532226234674
1761412806788013600,0.138013671875,-0.0007398208836093545,0.0017811204306781292,0.005704969167709351
1761412806798026500,0.148026611328125,-0.001620001159608364,0.0017536897212266922,0.006180343218147755
1761412806808039700,0.158039794921875,-0.0009408950572833419,-0.002108159940689802,-0.0012621268397197127
1761412806818052600,0.168052490234375,-0.0012584091164171696,-0.0021977024152874947,-0.004996538162231445
1761412806828065500,0.1780654296875,0.0001844915677793324,-0.002418744843453169,-0.0006262909155339003
1761412806838078500,0.188078369140625,-0.001124247326515615,-0.0020737643353641033,0.0029402626678347588
1761412806848091600,0.198091552734375,-0.0010289062047377229,0.0022397576831281185,0.0056060864590108395
1761412806858104600,0.2081044921875,-0.000789295940194279,0.0009429110214114189,-0.0013680270640179515
1761412806868117500,0.218117431640625,0.0016818512231111526,-0.0029445053078234196,-0.002396007301285863
1761412806878130700,0.228130615234375,-0.0011110943742096424,-0.0020770959090441465,0.0009688350837677717
1761412806888144400,0.238144287109375,-0.0012461165897548199,0.0025698537938296795,0.001892952248454094
1761412806898157600,0.248157470703125,0.0009812773205339909,0.00012092292308807373,-0.0007354156114161015
1761412806908170500,0.25817041015625,-0.0001966389245353639,-0.0021408998873084784,-0.0028358506970107555
1761412806918183700,0.26818359375,0.00013138452777639031,-0.002849348122254014,-0.001058458467014134
1761412806928196600,0.278196533203125,0.0006419125711545348,-0.0021220387425273657,0.00023290840908885002
1761412806938209500,0.28820947265625,-0.000008343835361301899,0.0014592558145523071,0.002303485292941332
1761412806948222700,0.29822265625,-0.001382534857839346,0.0006392686627805233,0.00021530082449316978
1761412806958235400,0.3082353515625,-0.0007113728788681328,-0.002367102075368166,-0.003093958366662264
1761412806968248600,0.31824853515625,0.0010870598489418626,-0.0023833473678678274,-0.0003165476955473423
1761412806978261500,0.328261474609375,-0.00022308347979560494,-0.0008040405809879303,-0.00024113431572914124
1761412806988274700,0.338274658203125,-0.001835361123085022,0.0032761883921921253,-0.0017418256029486656
1761412806998287600,0.34828759765625,0.0012725968845188618,-0.0000016652047634124756,-0.003864473197609186
1761412807008300500,0.358300537109375,-0.0014914979692548513,-0.001218197401612997,-0.0029502101242542267
1761412807018313700,0.368313720703125,-0.001115470309741795,-0.0018258129712194204,-0.002375282347202301
1761412807028326400,0.378326416015625,0.001939974376000464,0.0001025819219648838,0.00003940588794648647
1761412807038339600,0.388339599609375,-0.0008650561794638634,0.002185860648751259,0.002364438958466053
1761412807048352500,0.3983525390625,-0.0002282944042235613,0.0004891608841717243,0.0011644186452031136
1761412807058366500,0.408366455078125,-0.00003390503115952015,-0.0023025537375360727,-0.0024052176158875227
1761412807068379600,0.418379638671875,-0.0008080860134214163,-0.00024526193737983704,0.0009841874707490206
1761412807078392600,0.428392578125,-0.0009777521481737494,0.0002671540714800358,-0.0011748538818210363
1761412807088405500,0.438405517578125,-0.0011825492838397622,0.001334283035248518,0.0013681985437870026
1761412807098418400,0.44841845703125,0.001906654448248446,-0.0004866737872362137,0.00196225568652153
1761412807108431600,0.458431640625,0.001624625758267939,-0.004419630393385887,0.0001329304650425911
1761412807118444800,0.46844482421875,-0.0011723964707925916,-0.00008349074050784111,-0.0018169749528169632
1761412807128457500,0.47845751953125,0.0012438896810635924,-0.00021212128922343254,0.001230214023962617
1761412807138470700,0.488470703125,-0.0016872065607458353,-0.0009925100021064281,-0.0011550219496712089
1761412807148483600,0.498483642578125,-0.002081620739772916,-0.0019147624261677265,-0.0004399630706757307
1761412807158496500,0.50849658203125,-0.001657988177612424,-0.0001511978916823864,-0.0023883930407464504
1761412807168509400,0.518509521484375,-0.001238540280610323,-0.001198086654767394,-0.003322896081954241
1761412807178522600,0.528522705078125,0.0007521109655499458,0.0029339203611016273,-0.0022508015390485525
1761412807188535800,0.538535888671875,0.00021335348719730973,0.0012452094815671444,0.00033459533005952835
1761412807198548500,0.548548583984375,-0.0012738809455186129,-0.0005630240775644779,0.003116046544164419
1761412807208561700,0.558561767578125,0.0011855483753606677,-0.00459345243871212,-0.000006509944796562195
1761412807218575400,0.568575439453125,-0.0010967182461172342,0.0010210839100182056,-0.005131636746227741
1761412807228588500,0.578588623046875,0.0008378018392249942,-0.00025670090690255165,-0.003945997450500727
1761412807238601700,0.588601806640625,-0.0007608800660818815,-0.00023503554984927177,0.0018034684471786022
1761412807248614700,0.59861474609375,-0.002100982703268528,-0.0019205501303076744,-0.0023401437792927027
1761412807258627600,0.608627685546875,-0.00040365950553677976,-0.0036526478361338377,-0.0038051793817430735
1761412807268640500,0.618640625,-0.0007336251437664032,0.002204975113272667,-0.0039151678793132305
1761412807278653700,0.62865380859375,0.00040892360266298056,0.001542449463158846,-0.0025274099316447973
1761412807288666400,0.638666259765625,-0.00043316796654835343,-0.0012488095089793205,0.0010268448386341333
1761412807298679600,0.648679443359375,-0.000629934947937727,0.0018700482323765755,0.0006075382698327303
1761412807308692500,0.6586923828125,0.002170379040762782,0.00032727885991334915,0.00032524322159588337
1761412807318705700,0.66870556640625,-0.00023948197485879064,0.0013305083848536015,-0.0006492398679256439
1761412807328718600,0.678718505859375,-0.0006813003565184772,-0.001504426822066307,-0.000263347988948226
1761412807338731500,0.6887314453125,0.0007557790959253907,-0.0021333193872123957,-0.0016540505457669497
1761412807348744700,0.69874462890625,0.000869762385264039,-0.00010558869689702988,0.0029838443733751774
1761412807358757400,0.70875732421875,-0.0008166659972630441,0.0029443460516631603,-0.0017684724880382419
1761412807368770600,0.7187705078125,-0.000604944652877748,0.0004361807368695736,-0.0017764619551599026
1761412807378783500,0.728783447265625,0.0018707301933318377,-0.0016174702905118465,0.00005968310870230198
1761412807388797400,0.73879736328125,-0.0009849774651229382,-0.0008877641521394253,-0.00006708339788019657
1761412807398810600,0.748810546875,-0.0013335091061890125,0.0014297207817435265,-0.0009844861924648285
1761412807408823600,0.758823486328125,-0.00012629828415811062,0.001230516005307436,-0.0011826253030449152
1761412807418836500,0.76883642578125,-0.002018905011937022,0.001167056616395712,0.0012700979132205248
1761412807428849400,0.778849365234375,-0.0021166428923606873,-0.0007786490023136139,-0.0003413807135075331
1761412807438862600,0.788862548828125,0.0001048259437084198,-0.0013247623573988676,-0.0004945842083543539
1761412807448875800,0.798875732421875,-0.0010059785563498735,0.0014734212309122086,-0.0011635703267529607
1761412807458888400,0.808888427734375,0.0001908351550810039,0.0010242029093205929,0.0003229586873203516
1761412807468901600,0.818901611328125,-0.00130559504032135,-0.00041683344170451164,0.0006132433190941811
1761412807478914600,0.82891455078125,-0.0005778436316177249,-0.0012958368752151728,0.0005302696954458952
1761412807488927500,0.838927490234375,0.0006219103815965354,0.00028501544147729874,-0.0013704283628612757
1761412807498940400,0.8489404296875,-0.00003412779187783599,0.0026150578632950783,-0.0003200545907020569
1761412807508953600,0.85895361328125,0.0006308635929599404,0.0008512465283274651,-0.0004984864499419928
1761412807518966800,0.868966796875,-0.001289056963287294,-0.00007588602602481842,0.00043886411003768444
1761412807528979500,0.8789794921875,-0.0005897108931094408,0.0008295886218547821,0.002742764772847295
1761412807538992600,0.88899267578125,0.0019279734697192907,0.0006970330141484737,0.0037396952975541353
1761412807549006300,0.89900634765625,0.0015644519589841366,-0.00021296879276633263,0.0008594868704676628
1761412807559019500,0.90901953125,0.0016338999848812819,0.000022531487047672272,0.002115605864673853
1761412807569032700,0.91903271484375,0.0008005968411453068,-0.000703978817909956,0.0031409231014549732
1761412807579045600,0.929045654296875,-0.00003255839692428708,0.00007663574069738388,0.0004779496230185032
1761412807589058600,0.93905859375,-0.00015559641178697348,0.00158664770424366,0.001251331763342023
1761412807599071500,0.949071533203125,0.0015482781454920769,0.0017539053224027157,0.0038469729479402304
1761412807609084400,0.95908447265625,-0.0001628028112463653,0.003845818806439638,0.0016219017561525106
1761412807619097300,0.969097412109375,-0.0007994002662599087,-0.0007772408425807953,-0.0005454088095575571
1761412807629110300,0.9791103515625,0.000012863834854215384,-0.0010331706143915653,-0.00019680103287100792
1761412807639123500,0.98912353515625,-0.0003487204376142472,0.00011624535545706749,-0.0026627006009221077
1761412807649136600,0.99913671875,0.00028644350823014975,0.0014153355732560158,0.0024343235418200493
1761412807659149300,1.0091494140625,-0.002973143709823489,0.0018201721832156181,0.000039832666516304016
1761412807669162500,1.01916259765625,0.001751037547364831,-0.0021708409767597914,-0.0002230214886367321
1761412807679175400,1.029175537109375,-0.0002660765021573752,0.0034124543890357018,-0.0002841954119503498
1761412807689188600,1.039188720703125,0.0016982711385935545,0.0011730021797120571,0.0022569927386939526
1761412807699201300,1.049201171875,-0.0009292677859775722,0.0011590146459639072,0.0024086213670670986
1761412807709214500,1.05921435546875,-0.0036606057547032833,0.003742547705769539,0.002615549135953188
1761412807719228400,1.069228515625,0.0004409615648910403,0.001140462700277567,0.004262810572981834
1761412807729241300,1.079241455078125,0.0029957317747175694,-0.0038798623718321323,0.0003543558996170759
1761412807739254500,1.089254638671875,0.0020879791118204594,0.0038270815275609493,-0.004799771122634411
1761412807749267500,1.099267333984375,0.0004991371533833444,0.007366955745965242,0.004970035515725613
1761412807759280400,1.1092802734375,0.001829520333558321,0.00275220163166523,0.0032475641928613186
1761412807769293600,1.11929345703125,-0.0004743803874589503,-0.0031376457773149014,0.002838768996298313
1761412807779306500,1.129306396484375,0.0029857156332582235,-0.0012478241696953773,-0.0064766546711325645
1761412807789319400,1.1393193359375,0.0008655729470774531,-0.003950399812310934,-0.007345111109316349
1761412807799332400,1.149332275390625,-0.0016486244276165962,-0.0005886801518499851,0.0018389238975942135
1761412807809345500,1.159345458984375,-0.0004880188498646021,0.006561907008290291,0.008925329893827438
1761412807819358500,1.1693583984375,-0.0006036509294062853,0.0019463826902210712,0.0018495768308639526
1761412807829371400,1.179371337890625,-0.0008752933936193585,-0.002274993807077408,-0.003005632199347019
1761412807839384600,1.189384521484375,0.0016739366110414267,-0.0058285207487642765,-0.0032066856510937214
1761412807849397500,1.1993974609375,-0.0022843198385089636,0.003345003817230463,0.0029228460043668747
1761412807859410400,1.209410400390625,0.00008163967868313193,0.007087663281708956,0.004586243070662022
1761412807869423400,1.21942333984375,0.000041958584915846586,0.004412784706801176,0.0020818060729652643
1761412807879436500,1.2294365234375,0.0017200547736138105,-0.0010605924762785435,-0.0007821590406820178
1761412807889449500,1.239449462890625,0.0005775587051175535,-0.00025711674243211746,-0.00024739629589021206
1761412807899463400,1.24946337890625,0.001555397640913725,-0.001778283854946494,0.002031267387792468
1761412807909476600,1.2594765625,0.002056072000414133,0.0023967535234987736,0.001023261109367013
1761412807919489300,1.2694892578125,0.0020539001561701298,0.003799008671194315,0.0022438359446823597
1761412807929502500,1.27950244140625,0.0007944913813844323,0.00014621717855334282,0.0018707267008721828
1761412807939515400,1.289515380859375,0.001778757432475686,-0.001249728724360466,0.0011547121684998274
1761412807949528600,1.299528564453125,0.0012655663304030895,-0.0018052642699331045,-0.00031082541681826115
1761412807959541500,1.30954150390625,0.0014836543705314398,0.0020897500216960907,0.0028977198526263237
1761412807969554400,1.319554443359375,0.0026344063226133585,0.002794422674924135,-0.0004131218884140253
1761412807979567600,1.329567626953125,-0.0019430104875937104,-0.00013356888666749,-0.0003765425644814968
1761412807989580300,1.339580322265625,-0.0015443353913724422,0.0007948088459670544,0.0033383010886609554
1761412807999593500,1.349593505859375,-0.0029407921247184277,0.0009357067756354809,0.0004580295644700527
1761412808009606400,1.3596064453125,0.0001370231038890779,0.0014675399288535118,0.0018404761794954538
1761412808019619600,1.36961962890625,-0.00019104016246274114,0.000702202320098877,0.0003552786074578762
1761412808029632300,1.37963232421875,-0.0005622848402708769,0.00013388367369771004,0.0006460959557443857
1761412808039645400,1.3896455078125,0.0004125868435949087,0.0007114112377166748,-0.00196157768368721
1761412808049658600,1.39965869140625,-0.0010580106172710657,-0.0018681266810745,0.0026909648440778255
1761412808059671300,1.40967138671875,-0.0004234332882333547,0.000901839230209589,-0.0008426586864516139
1761412808069684500,1.4196845703125,0.00008602940943092108,0.0011700191535055637,-0.002900749444961548
1761412808079698700,1.42969873046875,-0.0012222249060869217,0.00011159572750329971,0.0013495462480932474
1761412808089711400,1.43971142578125,0.0017256280407309532,-0.0002990635111927986,-0.000995899667032063
1761412808099724500,1.449724609375,-0.0005958650726824999,0.00038122013211250305,0.00006128125824034214
1761412808109737500,1.459737548828125,0.0005847142310813069,-0.0005871052853763103,0.0006801998242735863
1761412808119750400,1.46975048828125,-0.0013904925435781479,-0.0012707388959825039,-0.0006915944395586848
1761412808129763300,1.479763427734375,0.0006798488320782781,-0.001122134504839778,0.00009030965156853199
1761412808139776500,1.489776611328125,-0.0002570024807937443,0.001752819400280714,0.00042159133590757847
1761412808149789400,1.49978955078125,0.0003427414339967072,0.001694762147963047,-0.00014885771088302135
1761412808159802400,1.50980224609375,-0.0009581695776432753,-0.0017830596771091223,0.0015121556352823973
1761412808169815600,1.519815673828125,-0.0004572289763018489,-0.004412132315337658,0.0013475725427269936
1761412808179828500,1.529828369140625,-0.0011695650173351169,0.0017090835608541965,-0.0006749579915776849
1761412808189841400,1.53984130859375,-0.000281933433143422,-0.0011349059641361237,-0.0013785650953650475
1761412808199854300,1.549854248046875,-0.0008801959920674562,-0.0005166148766875267,0.00018820445984601974
1761412808209867500,1.559867431640625,0.0008543208241462708,0.0010578460060060024,0.0008284284267574549
1761412808219880400,1.56988037109375,0.0015811666380614042,0.0006866138428449631,-0.0010612256592139602
1761412808229893400,1.579893310546875,-0.00039170312811620533,0.00017928145825862885,0.00037475069984793663
1761412808239906600,1.589906494140625,0.00009527819929644465,0.0015653446316719055,-0.000519710942171514
1761412808249919500,1.59991943359375,-0.0011553422082215548,0.0013288557529449463,-0.0002459380775690079
1761412808259933400,1.609933349609375,-0.00041953680920414627,-0.0005241008475422859,0.0002722975332289934
1761412808269946400,1.6199462890625,-0.00013351329835131764,-0.0021584825590252876,-0.00026060082018375397
1761412808279959600,1.62995947265625,-0.0015527367359027267,0.0006176130846142769,0.00017849146388471127
1761412808289972500,1.639972412109375,-0.003024133387953043,-0.00001781713217496872,0.0014203235041350126
1761412808299985400,1.6499853515625,-0.0013497730251401663,0.0009516282007098198,-0.00009523448534309864
1761412808309998600,1.65999853515625,-0.0011979729169979692,-0.0004481291398406029,0.00009118695743381977
1761412808320011300,1.67001123046875,0.000050642527639865875,-0.001881372183561325,-0.0012289575533941388
1761412808330024400,1.6800244140625,-0.0022636444773525,0.0008707386441528797,0.001180137973278761
1761412808340037400,1.690037353515625,0.0017135643865913153,0.0019093304872512817,0.0023536053486168385
1761412808350050600,1.700050537109375,-0.0005397361819632351,-0.0010441155172884464,0.0017168433405458927
1761412808360063500,1.7100634765625,0.0012410464696586132,0.002373412251472473,-0.0009093158878386021
1761412808370076400,1.720076416015625,-0.0004476638277992606,0.0003230446018278599,0.000011338852345943451
1761412808380089600,1.730089599609375,0.0005015393835492432,0.0020499015226960182,0.0007180057000368834
1761412808390102300,1.740102294921875,-0.0008188558858819306,-0.0007309713400900364,0.0007502299267798662
1761412808400115500,1.750115478515625,0.0018690787255764008,0.003780025988817215,0.003085251897573471
1761412808410128400,1.76012841796875,0.000823255511932075,0.001932324841618538,0.0008042543195188046
1761412808420141600,1.7701416015625,0.0015989074017852545,0.001010086853057146,0.00035233120433986187
1761412808430154500,1.780154541015625,0.0004931629518978298,0.0006628106348216534,0.0013720556162297726
1761412808440168400,1.79016845703125,0.0009980308823287487,0.0010752868838608265,0.002789042890071869
1761412808450181400,1.800181396484375,0.0004986881976947188,0.002083559986203909,0.001703804824501276
1761412808460194300,1.8101943359375,-0.000037649821024388075,0.00014834990724921227,0.002110112924128771
1761412808470207500,1.82020751953125,0.000643853098154068,0.0016106916591525078,-0.00008459831587970257
1761412808480220700,1.830220703125,0.0008618218125775456,0.001136748120188713,0.0007066854741424322
1761412808490233300,1.8402333984375,-0.0011169067583978176,0.0020574028603732586,0.0022814124822616577
1761412808500246500,1.85024658203125,-0.0017440984956920147,-0.0004919720813632011,-0.0008031692123040557
1761412808510259500,1.860259521484375,0.00006525305798277259,0.0009360150434076786,0.0010301508009433746
1761412808520272400,1.8702724609375,-0.001602301374077797,-0.0005370019935071468,-0.00010929768905043602
1761412808530285300,1.880285400390625,-0.000009198440238833427,-0.0008738916367292404,-0.0018909524660557508
1761412808540298500,1.890298583984375,0.00030921841971576214,-0.0013704088050872087,-0.0009346348233520985
1761412808550311700,1.900311767578125,-0.001978703308850527,-0.0029254285618662834,-0.002777542220428586
1761412808560324400,1.910324462890625,-0.00014594581443816423,-0.002663086634129286,-0.0036297645419836044
1761412808570337500,1.920337646484375,0.00009533658158034086,-0.0020284552592784166,-0.0037125886883586645
1761412808580350500,1.9303505859375,0.0030208188109099865,-0.0005703745409846306,-0.0030345479026436806
1761412808590363400,1.94036328125,0.0008050689939409494,0.0009721280075609684,0.000272299163043499
1761412808600377000,1.950377197265625,-0.0021237293258309364,-0.00018326984718441963,-0.003023348283022642
1761412808610390300,1.960390380859375,0.0010398395825177431,-0.004942604806274176,-0.003028408158570528
1761412808620403000,1.97040283203125,-0.0010558739304542542,-0.005071761552244425,-0.0033849256578832865
1761412808630417200,1.980417236328125,0.0028344718739390373,-0.00014411471784114838,-0.0014927496667951345
1761412808640430000,1.99043017578125,0.0017180301947519183,0.002460918854922056,0.001080145826563239
1761412808650443000,2.000443115234375,-0.00039758492494001985,0.0026329592801630497,-0.0006927206413820386
1761412808660456200,2.010456298828125,0.00035171001218259335,-0.0047831046395003796,0.0006678102072328329
1761412808670469000,2.02046923828125,0.000148510851431638,-0.005473662167787552,-0.00190000981092453
1761412808680482000,2.03048193359375,-0.002078484743833542,-0.00046378280967473984,-0.0006492492975667119
1761412808690495000,2.040494873046875,-0.0019969919230788946,0.004483838099986315,0.0004146834835410118
1761412808700508200,2.050508056640625,-0.00171110057272017,-0.0011378817725926638,0.002923335414379835
1761412808710521000,2.06052099609375,-0.0026109828613698483,-0.0042937276884913445,-0.0003110738471150398
1761412808720534000,2.070533935546875,0.0012213655281811953,-0.0004227645695209503,0.0010738952551037073
1761412808730547200,2.080547119140625,-0.0021062542218714952,0.005789324641227722,0.0005330070853233337
1761412808740560100,2.09056005859375,0.00004304962931200862,0.0031978562474250793,0.004847375210374594
1761412808750573000,2.100572998046875,-0.00019343907479196787,0.002017277292907238,0.002396201714873314
1761412808760586000,2.1105859375,-0.00047503848327323794,0.0009062360040843487,0.0019477882888168097
1761412808770599200,2.12059912109375,-0.000198602385353297,0.0049611651338636875,-0.001172904041595757
1761412808780612000,2.130612060546875,0.00018693419406190515,0.005468621384352446,0.0003746901638805866
1761412808790625000,2.140625,0.0007291538058780134,0.0010288660414516926,-0.0003970940597355366
1761412808800638000,2.150637939453125,0.0013989245053380728,-0.0013342525344341993,-0.00219176709651947
1761412808810651100,2.160651123046875,0.00034164945827797055,0.004146266262978315,-0.00013607321307063103
1761412808820665000,2.1706650390625,0.0014538292307406664,0.006060459651052952,0.0020392751321196556
1761412808830678000,2.180677978515625,-0.0009355588117614388,0.005161909386515617,0.0024041282013058662
1761412808840691200,2.190691162109375,0.0019086236134171486,0.0015549268573522568,0.00044997897930443287
1761412808850704000,2.200703857421875,0.000624713662546128,-0.0011010437738150358,-0.00017266790382564068
1761412808860717000,2.210717041015625,0.0009704362018965185,0.002754061948508024,-0.001504702726379037
1761412808870730200,2.220730224609375,0.000567499955650419,0.005734937731176615,0.003201635554432869
1761412808880743000,2.230742919921875,-0.0009310314198955894,0.006516392342746258,0.003849425818771124
1761412808890756000,2.240756103515625,0.0009574160794727504,0.0023586656898260117,0.0012975847348570824
1761412808900769000,2.25076904296875,-0.0009951537940651178,-0.000001635868102312088,-0.0012828926555812359
1761412808910782200,2.2607822265625,0.000771587248891592,0.0027608610689640045,-0.0006115096621215343
1761412808920795000,2.270794921875,-0.0010621470864862204,0.005969130899757147,0.0031300438567996025
1761412808930808000,2.28080810546875,-0.0008642742759548128,0.0008795633912086487,0.005929026287049055
1761412808940821200,2.2908212890625,-0.0008645111811347306,0.0005217171274125576,0.0027573106344789267
1761412808950834000,2.300833984375,0.001213553361594677,-0.0038834174629300833,0.0022728818003088236
1761412808960847000,2.31084716796875,-0.0014622723683714867,0.00006680749356746674,-0.0011095207883045077
1761412808970860000,2.320860107421875,-0.0008524084114469588,0.0009752116166055202,-0.004125550854951143
1761412808980873200,2.330873291015625,0.0008609508513472974,-0.0008101295679807663,-0.0012851014034822583
1761412808990886000,2.340885986328125,0.001746451947838068,-0.0009856317192316055,-0.000523171154782176
1761412809000899000,2.350899169921875,0.0007739243446849287,-0.0032142652198672295,-0.0004976522177457809
1761412809010912300,2.360912353515625,-0.0007432785932905972,0.00042893923819065094,-0.0021948846988379955
1761412809020926000,2.370926025390625,0.00042851269245147705,-0.0007187258452177048,-0.0024778065271675587
1761412809030939100,2.380939208984375,0.0008732606656849384,-0.0006273793987929821,-0.0023904547560960054
1761412809040952000,2.3909521484375,0.0005035976064391434,-0.002501059789210558,-0.00413700332865119
1761412809050965000,2.400965087890625,-0.0007440933841280639,-0.0012531024403870106,-0.003578272182494402
1761412809060978200,2.410978271484375,-0.00015727902064099908,0.001848799642175436,-0.0022022316697984934
1761412809070991000,2.4209912109375,0.0013034648727625608,0.002270111348479986,-0.0002733040601015091
1761412809081004000,2.431004150390625,0.0007108317222446203,0.003507107961922884,-0.000864714034833014
1761412809091017000,2.441016845703125,0.0002445122227072716,0.00016191136091947556,0.0021313419565558434
1761412809101030100,2.451030029296875,0.001129849348217249,0.000987278763204813,0.0008317667525261641
1761412809111043000,2.46104296875,0.0000986733939498663,0.000998463947325945,-0.0005823717219755054
1761412809121056000,2.471055908203125,-0.0007598264492116868,0.00167493661865592,-0.00324120931327343
1761412809131069200,2.481069091796875,0.0003837349358946085,-0.00033495109528303146,-0.002521889517083764
1761412809141082000,2.49108203125,0.0015058061107993126,-0.0020333908032625914,-0.0044270833022892475
1761412809151095000,2.501094970703125,0.0015044745523482561,-0.0025780070573091507,-0.0025202599354088306
1761412809161108000,2.51110791015625,0.0011302264174446464,-0.0008405572734773159,-0.0037726671434938908
1761412809171121200,2.52112109375,0.0036048353649675846,0.0006369645707309246,-0.0033287182450294495
1761412809181134000,2.531134033203125,0.0002364403335377574,-0.0018964747432619333,-0.004004909656941891
1761412809191147000,2.54114697265625,0.0006574861472472548,0.0003965068608522415,-0.0064222607761621475
1761412809201160000,2.551159912109375,0.00023585825692862272,-0.0014472175389528275,-0.005933242384344339
1761412809211174000,2.561173828125,0.0019277643878012896,-0.0054731182754039764,-0.005466124042868614
1761412809221187000,2.57118701171875,0.00017520185792818666,-0.0016355258412659168,-0.008066684007644653
1761412809231200000,2.581199951171875,-0.0007369308150373399,-0.004641702398657799,-0.009058978408575058
1761412809241213200,2.591213134765625,0.0015657859621569514,-0.00867094099521637,-0.00702136242762208
1761412809251226000,2.60122607421875,0.000734613393433392,-0.006352126598358154,-0.007531091570854187
1761412809261239000,2.611239013671875,0.0026262791361659765,-0.0022632472682744265,-0.007481980137526989
1761412809271252200,2.621252197265625,-0.0013695276575163007,-0.006863858085125685,-0.005549057386815548
1761412809281265000,2.631264892578125,0.0016399428714066744,-0.00827464647591114,-0.005691708996891975
1761412809291278000,2.641278076171875,0.0005035722278989851,-0.004617327358573675,-0.005947639234364033
1761412809301291000,2.651291015625,-0.00011872098548337817,-0.0005155839025974274,-0.004200197756290436
1761412809311304200,2.66130419921875,0.000907927576918155,-0.0032501176465302706,-0.0039543877355754375
1761412809321316900,2.67131689453125,-0.00014545145677402616,-0.0006153821013867855,-0.00397837208583951
1761412809331330000,2.681330078125,-0.0014469382585957646,-0.000760258175432682,0.00013274955563247204
1761412809341343200,2.69134326171875,0.0004953359602950513,-0.001414596801623702,-0.0012979005696251988
1761412809351356000,2.70135595703125,0.002544105751439929,-0.00009739724919199944,-0.003371437778696418
1761412809361369000,2.711369140625,0.0003184974193572998,0.00045190053060650826,-0.0006184339290484786
1761412809371382000,2.721382080078125,-0.0001392999547533691,0.0027619265019893646,0.0010471069253981113
1761412809381395200,2.731395263671875,-0.0010535961482673883,-0.00004949001595377922,0.0008626594208180904
1761412809391407900,2.741407958984375,-0.0011103214928880334,0.0005774181336164474,0.0004027315881103277
1761412809401421000,2.751421142578125,-0.0005416549392975867,0.00163647485896945,0.0033222453203052282
1761412809411435000,2.76143505859375,-0.0023145212326198816,0.0011911941692233086,0.0009882510639727116
1761412809421448000,2.771447998046875,0.0005284399376250803,-0.00000802706927061081,0.0003909040242433548
1761412809431461000,2.781461181640625,0.00007383833872154355,0.0028647244907915592,-0.0010378818260505795
1761412809441474000,2.79147412109375,0.0004508460988290608,0.0018594935536384583,0.002185514196753502
1761412809451487000,2.801487060546875,-0.0003446401096880436,-0.0010654563084244728,0.0004515298642218113
1761412809461500200,2.811500244140625,0.001517737633548677,0.001092210877686739,0.0011964309960603714
1761412809471513000,2.82151318359375,-0.00024660665076225996,0.0008679726161062717,0.002423882018774748
1761412809481526000,2.831526123046875,-0.00034169325954280794,0.0005578943528234959,-0.0008639773586764932
1761412809491539000,2.8415390625,-0.00033636693842709064,-0.00031056255102157593,0.0008215373381972313
1761412809501552000,2.85155224609375,-0.0006120336474850774,0.0034867553040385246,0.0004890649579465389
1761412809511565000,2.86156494140625,-0.001596071757376194,-0.0009886864572763443,0.0032092176843434572
1761412809521578000,2.871577880859375,-0.0005938207032158971,-0.0009149461984634399,-0.0007171431789174676
1761412809531591200,2.881591064453125,-0.002379470271989703,-0.0007953704334795475,-0.0029741721227765083
1761412809541604000,2.89160400390625,-0.0006812758510932326,-0.004238542169332504,-0.00259594083763659
1761412809551617000,2.901616943359375,-0.003408352844417095,-0.0004869471304118633,-0.0010510410647839308
1761412809561630000,2.9116298828125,-0.0005148282507434487,0.0007948325946927071,-0.0015210889978334308
1761412809571643100,2.92164306640625,-0.0008080422994680703,0.0010542245581746101,-0.0008270691614598036
1761412809581656000,2.931656005859375,0.0000021502492018043995,-0.001800251891836524,-0.000020977342501282692
1761412809591669000,2.9416689453125,-0.0002527142351027578,0.0014386847615242004,0.0009295048657804728
1761412809601683000,2.951682861328125,-0.00014714995631948113,-0.0010591233149170876,0.0021619528997689486
1761412809611695900,2.96169580078125,-0.0009466308983974159,0.0014466452412307262,-0.00023116357624530792
1761412809621708800,2.971708740234375,-0.0007866041851229966,0.002250037621706724,-0.0034305285662412643
1761412809631721700,2.9817216796875,0.001273883506655693,-0.0008264458738267422,-0.0044904667884111404
1761412809641735000,2.99173486328125,-0.0009347792365588248,-0.0023907574359327555,-0.005927179008722305
1761412809651747600,3.00174755859375,-0.0002657931763678789,-0.0016296261455863714,-0.0069216033443808556
1761412809661760800,3.0117607421875,0.002560138702392578,-0.005841120146214962,-0.009304272010922432
1761412809671774000,3.02177392578125,0.0007353406981565058,-0.009680066257715225,-0.011528011411428452
1761412809681787000,3.031786865234375,0.0007339549483731389,-0.008224915713071823,-0.012177023105323315
1761412809691799800,3.0417998046875,0.00010092154843732715,-0.005414215382188559,-0.009784705936908722
1761412809701812700,3.051812744140625,-0.0004642228886950761,0.000302792526781559,-0.009574050083756447
1761412809711826000,3.061825927734375,-0.0011401331285014749,-0.00040933676064014435,-0.010384716093540192
1761412809721838600,3.071838623046875,-0.0005596887203864753,-0.0048592123202979565,-0.006819808389991522
1761412809731851800,3.081851806640625,-0.0004371833347249776,-0.006486403755843639,-0.007205167785286903
1761412809741865000,3.091864990234375,-0.0002060511615127325,-0.0030479717534035444,-0.0077378153800964355
1761412809751878000,3.1018779296875,0.0005529497284442186,-0.0021954940166324377,-0.006639528088271618
1761412809761890800,3.111890869140625,-0.0013317246921360493,-0.0014953867066651583,-0.002086964435875416
1761412809771903700,3.12190380859375,-0.00240471214056015,-0.00021919980645179749,-0.006108071189373732
1761412809781917000,3.1319169921875,0.0002392293536104262,-0.004164901562035084,-0.004233095794916153
1761412809791929600,3.1419296875,-0.0010268373880535364,-0.0025241279508918524,-0.002469017868861556
1761412809801942800,3.15194287109375,-0.0008086501038633287,-0.0026931932661682367,-0.004936703015118837
1761412809811957000,3.16195703125,-0.001633963780477643,-0.0035115827340632677,-0.005043495912104845
1761412809821969700,3.1719697265625,0.002339147264137864,-0.0060464367270469666,-0.004952007904648781
1761412809831982800,3.18198291015625,-0.0020777054596692324,-0.0026141549460589886,-0.005458807572722435
1761412809841995800,3.191995849609375,-0.001282988814637065,-0.0055260807275772095,-0.00635414756834507
1761412809852008700,3.2020087890625,-0.0001410253462381661,-0.004653363022953272,-0.009302799589931965
1761412809862022000,3.21202197265625,0.0003520440077409148,-0.002272272715345025,-0.004872818943113089
1761412809872034800,3.222034912109375,-0.0013481180649250746,-0.0019457691814750433,-0.0033612088300287724
1761412809882048000,3.232048095703125,-0.0007233844953589141,-0.0006736475042998791,-0.004273058846592903
1761412809892060700,3.242060791015625,0.0003032641252502799,0.0026569017209112644,-0.003536961507052183
1761412809902073900,3.252073974609375,-0.0003194421005900949,0.003897344693541527,-0.0024925945326685905
1761412809912086800,3.262086669921875,0.0005391610320657492,0.0020072991028428078,-0.0020822014193981886
1761412809922099700,3.272099609375,0.001870682230219245,0.00392141193151474,0.0017397480551153421
1761412809932113000,3.28211279296875,0.00020673929248005152,0.002220450434833765,-0.0017916036304086447
1761412809942125800,3.292125732421875,0.0005050575127825141,0.0016628559678792953,-0.0023745857179164886
1761412809952139000,3.302138916015625,0.0012922878377139568,0.0024839085526764393,-0.0005737561732530594
1761412809962151700,3.312151611328125,0.0007682075956836343,0.00020059756934642792,-0.001824266742914915
1761412809972164900,3.322164794921875,0.00013597315410152078,-0.0009656008332967758,-0.0019148141145706177
1761412809982177800,3.332177734375,-0.0005012768669985235,0.0018017608672380447,-0.00026793102733790874
1761412809992190700,3.342190673828125,-0.0002059323014691472,0.0037663746625185013,-0.0031625209376215935
1761412810002203600,3.35220361328125,-0.00038914367905817926,-0.0009090849198400974,-0.002565300092101097
1761412810012216800,3.362216796875,0.00003509788075461984,0.00005311518907546997,0.0001260903663933277
1761412810022230800,3.372230712890625,0.001199551043100655,-0.000766802579164505,-0.0014372774166986346
1761412810032243700,3.38224365234375,0.00005146232433617115,-0.0014056952204555273,-0.002215186832472682
1761412810042257000,3.3922568359375,-0.003159081796184182,-0.0015526735223829746,0.0009742772672325373
1761412810052269800,3.402269775390625,-0.0012618459295481443,-0.00024452898651361465,-0.0009474598336964846
1761412810062282800,3.41228271484375,-0.00036405015271157026,-0.003420543856918812,-0.000601797248236835
1761412810072296000,3.4222958984375,-0.0020628804340958595,0.0008106864988803864,-0.003772556781768799
1761412810082308900,3.432308837890625,-0.0021487376652657986,-0.0012086506467312574,-0.00045090564526617527
1761412810092321800,3.44232177734375,0.0003253387985751033,-0.00038919597864151,0.0002553646918386221
1761412810102334700,3.452334716796875,0.0005909004248678684,-0.0023124604485929012,-0.001535626593977213
1761412810112348000,3.462347900390625,-0.0005926084122620523,0.0005938471294939518,0.0006063538603484631
1761412810122360800,3.47236083984375,-0.0012463554739952087,0.0002847118303179741,-0.000530424527823925
1761412810132373800,3.482373779296875,0.0003547370433807373,0.0008271979168057442,-0.0006188414990901947
1761412810142387000,3.492386962890625,0.0006568727549165487,0.00307256355881691,0.003161029890179634
1761412810152400000,3.50239990234375,-0.00030053366208449006,0.0002738474868237972,0.0013636625371873379
1761412810162412800,3.512412841796875,-0.0007197302766144276,0.003596153575927019,0.004555054008960724
1761412810172425700,3.52242578125,0.0007708410266786814,0.003541292157024145,0.005064516793936491
1761412810182439000,3.53243896484375,-0.0033031587954610586,0.004684982355684042,0.0038518228102475405
1761412810192451800,3.542451904296875,-0.00022534368326887488,0.006032541859894991,0.004571142606437206
1761412810202464800,3.55246484375,-0.0011764027876779437,0.0038348305970430374,0.0025386337656527758
1761412810212478000,3.56247802734375,0.0008505290606990457,0.0031314902007579803,0.0036395846400409937
1761412810222491000,3.572490966796875,0.0003883816534653306,0.0031997920013964176,0.0029059152584522963
1761412810232504800,3.5825048828125,-0.00004012091085314751,0.00489782402291894,0.0022041720803827047
1761412810242517800,3.592517822265625,-0.000792508595623076,0.002292272634804249,0.0026459116488695145
1761412810252530700,3.60253076171875,0.0014653194230049849,0.0037460927851498127,0.003031803760677576
1761412810262544000,3.6125439453125,-0.00011431955499574542,0.004386358894407749,0.0024077468551695347
1761412810272556800,3.622556884765625,-0.0016565561527386308,0.0046886270865798,-0.00008017825894057751
1761412810282570000,3.632570068359375,-0.00014124746667221189,-0.0005560196004807949,0.0030593122355639935
1761412810292582700,3.642582763671875,0.0018225675448775291,0.0014634556137025356,0.004470521118491888
1761412810302595800,3.652595947265625,0.000506448675878346,0.003724842332303524,0.003554629860445857
1761412810312608800,3.66260888671875,0.0012641180073842406,0.006282275542616844,0.006365596316754818
1761412810322621700,3.67262158203125,0.000755868386477232,0.007691396865993738,0.007848100736737251
1761412810332635000,3.682634765625,0.0004464091034606099,0.005229037720710039,0.005820635240525007
1761412810342647800,3.692647705078125,0.0009449517820030451,0.002198781818151474,0.009889583103358746
1761412810352661000,3.702660888671875,0.00012230133870616555,0.002734876237809658,0.008665860630571842
1761412810362673700,3.712673583984375,-0.0021490338258445263,0.00463557243347168,0.012094870209693909
1761412810372686800,3.722686767578125,-0.0018576839938759804,0.005606294609606266,0.011463434435427189
1761412810382699800,3.73269970703125,0.0008737428579479456,0.007082359399646521,0.010121702216565609
1761412810392712700,3.742712646484375,-0.000752116902731359,0.004698032047599554,0.009051377885043621
1761412810402726000,3.752725830078125,-0.000032072304747998714,0.006248636171221733,0.006398242898285389
1761412810412738800,3.76273876953125,0.0002920343540608883,0.0078039225190877914,0.010118412785232067
1761412810422752000,3.772751953125,0.0014831776497885585,0.003356835339218378,0.00601904047653079
1761412810432765700,3.782765625,-0.0006801080307923257,0.0011064647696912289,0.0036658719182014465
1761412810442779000,3.79277880859375,0.001222528051584959,0.0028123725205659866,0.00408328277990222
1761412810452791800,3.802791748046875,0.0008289129473268986,0.00009088823571801186,0.0017338418401777744
1761412810462804700,3.8128046875,-0.0006492304964922369,-0.000131203792989254,0.004360987339168787
1761412810472818000,3.82281787109375,0.0005340119823813438,0.003240357618778944,-0.00041912030428647995
1761412810482830800,3.832830810546875,0.001529043074697256,0.002286834642291069,0.0027717065531760454
1761412810492843800,3.84284375,0.0003740299725905061,0.0005605737678706646,0.00002625398337841034
1761412810502856700,3.852856689453125,-0.001941943308338523,0.00020996062085032463,-0.0021231514401733875
1761412810512870000,3.862869873046875,-0.001014364417642355,0.00011568469926714897,-0.000550821190699935
1761412810522882800,3.8728828125,0.002070019952952862,-0.001029882114380598,0.0022740254644304514
1761412810532895700,3.882895751953125,-0.00022775534307584167,-0.0005563721060752869,-0.00014918483793735504
1761412810542909000,3.892908935546875,0.0017625432228669524,-0.00021952344104647636,0.0008900589309632778
1761412810552921900,3.902921875,0.0007018062751740217,-0.0004339078441262245,0.0008173547685146332
1761412810562934800,3.912934814453125,-0.001190414186567068,0.0018536760471761227,0.0005744898226112127
1761412810572947700,3.92294775390625,0.000025585235562175512,0.000140464399009943,0.0008876777719706297
1761412810582961000,3.9329609375,-0.0004948964342474937,0.0006356034427881241,0.0009724912233650684
1761412810592973800,3.942973876953125,-0.0015809335745871067,0.002739234361797571,0.0016707719769328833
1761412810602986000,3.952986083984375,0.0025315191596746445,0.0031734290532767773,0.0024370094761252403
1761412810612999200,3.962999267578125,-0.0004980929079465568,0.004012324381619692,-0.001836298732087016
1761412810623012400,3.973012451171875,0.0017351964488625526,0.0050919135101139545,0.003448353847488761
1761412810633025300,3.983025390625,0.0006813835934735835,0.003601874690502882,0.0019212972838431597
1761412810643038200,3.9930380859375,0.00006212422158569098,0.0006521446630358696,0.002079363213852048
1761412810653052200,4.00305224609375,-0.00019247399177402258,-0.0023087579756975174,0.0008668259251862764
1761412810663065000,4.013065185546875,0.000826617528218776,0.0011686710640788078,0.0032588448375463486
1761412810673078300,4.023078369140625,-0.00011294573778286576,0.003788422327488661,0.001579988282173872
1761412810683091200,4.03309130859375,-0.0009620539494790137,0.004097237717360258,0.0019249613396823406
1761412810693104400,4.0431044921875,0.00026832643197849393,0.0024125222116708755,0.0038727973587810993
1761412810703117000,4.053116943359375,-0.001472264644689858,0.0022192182950675488,0.0026958687230944633
1761412810713130200,4.063130126953125,-0.0022323308512568474,0.002975290175527334,0.00010274886153638363
1761412810723143200,4.07314306640625,0.001916324719786644,0.004979823250323534,0.0005346513353288174
1761412810733156000,4.083156005859375,0.0015844949521124363,0.00196219515055418,0.002089138375595212
1761412810743169300,4.093169189453125,0.0006379599799402058,0.0001515955664217472,-0.00005166674964129925
1761412810753182200,4.10318212890625,0.0012968259397894144,-0.000665728934109211,0.0008410247974097729
1761412810763195400,4.1131953125,-0.0007567334687337279,0.0028205029666423798,0.0019726960454136133
1761412810773208000,4.1232080078125,0.001465141773223877,0.002291332930326462,0.0011010435409843922
1761412810783221200,4.13322119140625,-0.0016783442115411162,-0.002255200408399105,0.000045835040509700775
1761412810793234200,4.143234130859375,-0.00019815930863842368,0.004815225955098867,0.0016543841920793056
1761412810803247000,4.1532470703125,-0.000284496956737712,0.0019139209762215614,0.0015962037723511457
1761412810813260000,4.163260009765625,-0.0008954260847531259,0.0026638670824468136,-0.0006792012136429548
1761412810823273200,4.173273193359375,-0.0008758282056078315,-0.00020094029605388641,-0.0004248693585395813
1761412810833286400,4.183286376953125,-0.0012364202411845326,-0.0010214601643383503,0.0013290885835886002
1761412810843299000,4.193299072265625,0.00021884555462747812,0.00004834868013858795,0.0006613715086132288
1761412810853312300,4.203312255859375,0.0009078052826225758,-0.0012339635286480188,-0.0009932505199685693
1761412810863325200,4.2133251953125,-0.0024394188076257706,0.0007707388140261173,0.0006885041948407888
1761412810873339100,4.223339111328125,-0.0013256848324090242,-0.001042074989527464,-0.0004614486824721098
1761412810883352300,4.233352294921875,-0.00015625363448634744,-0.0010270779021084309,0.00037755677476525307
1761412810893365200,4.243365234375,-0.0010345641057938337,-0.0003290632739663124,0.00016929768025875092
1761412810903378200,4.253378173828125,0.0006228004931472242,0.0009379573166370392,-0.0009320155950263143
1761412810913391000,4.26339111328125,0.0006193383014760911,0.0017355741001665592,0.0009740088135004044
1761412810923404300,4.273404296875,-0.002969294786453247,0.0005775890313088894,-0.0008601081790402532
1761412810933417000,4.2834169921875,0.001410539960488677,0.0003363066352903843,-0.0005850036395713687
1761412810943430100,4.29343017578125,-0.0019705770537257195,-0.002305800560861826,0.001031737308949232
1761412810953443300,4.303443359375,-0.00003845378523692489,-0.002784104086458683,0.0015409337356686592
1761412810963456300,4.313456298828125,-0.0008996862452477217,-0.0010721974540501833,0.0011291946284472942
1761412810973469200,4.32346923828125,0.00006171484710648656,-0.0010961659718304873,-0.0007861508056521416
1761412810983482000,4.333482177734375,0.0011289333924651146,-0.002079613972455263,0.001117601292207837
1761412810993495300,4.343495361328125,0.0018629005644470453,-0.0008620168082416058,-0.0012600688496604562
1761412811003508000,4.353508056640625,0.0012844078009948134,0.00008371332660317421,0.000249865697696805
1761412811013521200,4.363521240234375,0.0005504406290128827,0.001481872983276844,0.0017241914756596088
1761412811023534300,4.373534423828125,-0.00099523039534688,-0.0012691302690654993,0.000647837296128273
1761412811033547300,4.38354736328125,0.0013653954956680536,0.0026896586641669273,-0.00039878510870039463
1761412811043560200,4.393560302734375,0.0021476829424500465,0.00013930350542068481,0.002746505895629525
1761412811053573000,4.403572998046875,0.0008243581978604198,0.0018868697807192802,0.0007635161746293306
1761412811063586300,4.41358642578125,-0.0032930923625826836,0.0016764760948717594,0.004394310060888529
1761412811073599000,4.423598876953125,0.0005160269211046398,0.000960618257522583,0.004253428895026445
1761412811083612200,4.433612060546875,0.0003299747477285564,0.0029409630224108696,0.0028701969422399998
1761412811093626400,4.44362646484375,-0.0009869583882391453,0.005041398108005524,0.00255594402551651
1761412811103639000,4.45363916015625,-0.0009004041785374284,0.003704601898789406,0.00371078634634614
1761412811113652200,4.46365234375,0.0002266455558128655,0.002430279739201069,0.005572602152824402
1761412811123665200,4.4736650390625,-0.0007957873749546707,-0.000912700779736042,0.0026837915647774935
1761412811133678000,4.483677978515625,0.0009155598818324506,-0.0003425180912017822,0.003980484791100025
1761412811143691300,4.493691162109375,-0.002324026543647051,0.004022021312266588,0.000804682495072484
1761412811153704200,4.5037041015625,-0.002242001239210367,0.0019303751178085804,0.0029288199730217457
1761412811163717400,4.51371728515625,0.00043114653090015054,0.003379080444574356,0.0005516349337995052
1761412811173730000,4.52372998046875,0.0007227627211250365,0.0013090050779283047,0.0013053093571215868
1761412811183743200,4.5337431640625,-0.0010715271346271038,0.001396931242197752,0.001103896414861083
1761412811193756200,4.543756103515625,-0.002074473537504673,0.0007471200078725815,0.0026559866964817047
1761412811203769000,4.55376904296875,-0.0011688220547512174,0.000874700490385294,0.0014196834526956081
1761412811213782300,4.5637822265625,0.00007300992729142308,-0.000439569354057312,-0.002291165292263031
1761412811223795200,4.573795166015625,0.00040364195592701435,0.0016454742290079594,0.001018925802782178
1761412811233808400,4.583808349609375,-0.0012262125965207815,-0.0012581702321767807,0.0012791166082024574
1761412811243821000,4.593821044921875,-0.0003017256094608456,0.00021745916455984116,0.001909424550831318
1761412811253834200,4.603834228515625,0.000222118163947016,0.0012462381273508072,0.0007493514567613602
1761412811263847200,4.61384716796875,0.0008052466437220573,0.0005541108548641205,0.001004544785246253
1761412811273860000,4.623860107421875,0.0004180230898782611,0.003855898045003414,0.00020213425159454346
1761412811283873000,4.633873046875,0.0018304456025362015,0.0015957155264914036,0.002232716418802738
1761412811293886200,4.64388623046875,-0.0007498912164010108,0.0018282094970345497,0.0012518740259110928
1761412811303899400,4.6538994140625,0.0003470648662187159,-0.0008165757171809673,-0.0008221956668421626
1761412811313912000,4.663912109375,-0.0027850789483636618,0.00008170818910002708,0.0021578813903033733
1761412811323926300,4.67392626953125,0.00029116799123585224,0.00031055742874741554,0.0014322800561785698
1761412811333939200,4.683939208984375,-0.0026004924438893795,-0.0024916203692555428,0.0004783356562256813
1761412811343952100,4.6939521484375,-0.002279818756505847,-0.0006772354245185852,0.0009127117227762938
1761412811353965300,4.70396533203125,-0.0010310625657439232,-0.0007946807891130447,-0.002317436272278428
1761412811363978200,4.713978271484375,-0.0010517912451177835,-0.0021075494587421417,-0.0017041265964508057
1761412811373991200,4.7239912109375,-0.0032478338107466698,-0.004503062926232815,0.001749727176502347
1761412811384004000,4.734004150390625,-0.0007574664778076112,-0.0020993787329643965,-0.0014110991032794118
1761412811394017300,4.744017333984375,-0.0020887807477265596,-0.002110031433403492,0.0015431453939527273
1761412811404030200,4.7540302734375,0.0006647799746133387,-0.002063201507553458,-0.0025977252516895533
1761412811414043100,4.764043212890625,0.0005425408598966897,-0.0022307145409286022,-0.00021845707669854164
1761412811424056300,4.774056396484375,-0.00038882633089087903,-0.0002971603535115719,0.0008766807150095701
1761412811434069200,4.7840693359375,0.0018040203722193837,-0.0029880180954933167,0.001699597341939807
1761412811444082200,4.794082275390625,0.001550709712319076,-0.0039750561118125916,-0.0028357496485114098
1761412811454095000,4.80409521484375,-0.001978511456400156,-0.003042150754481554,0.0015667215920984745
1761412811464108300,4.8141083984375,-0.0010941794607788324,-0.0027177496813237667,-0.00005587982013821602
1761412811474121200,4.824121337890625,-0.0008824582328088582,-0.002182720461860299,-0.0016961208311840892
1761412811484134100,4.834134033203125,-0.00004644686123356223,-0.0006831795908510685,-0.0026297455187886953
1761412811494147300,4.844147216796875,-0.0009572479175403714,-0.002972699236124754,-0.0003391606733202934
1761412811504160300,4.85416015625,-0.002295960206538439,-0.0025393457617610693,-0.00019708974286913872
1761412811514173200,4.864173095703125,-0.0000647638225927949,-0.0024266941472887993,-0.0022879375610500574
1761412811524186000,4.87418603515625,0.00012063636677339673,-0.001414888771250844,-0.0005374576430767775
1761412811534199300,4.88419921875,-0.002205368597060442,-0.002349924761801958,-0.0003630206920206547
1761412811544212200,4.894212158203125,-0.0007535612094216049,-0.0005834922194480896,-0.001618356560356915
1761412811554226200,4.90422607421875,-0.0010497047333046794,-0.0015715251211076975,-0.0009304620325565338
1761412811564239400,4.9142392578125,0.00005441182292997837,-0.0017851947341114283,0.0012803839053958654
1761412811574252000,4.924251953125,0.0008549580816179514,-0.0017471115570515394,0.00022071227431297302
1761412811584265200,4.93426513671875,-0.001988290809094906,0.0009932252578437328,0.002417429583147168
1761412811594278100,4.944278076171875,0.0013529108837246895,0.0001753685064613819,-0.002441241405904293
1761412811604291000,4.954291015625,-0.00015026726759970188,-0.002249691868200898,0.0018554383423179388
1761412811614304000,4.964303955078125,0.0015775916399434209,0.001516816671937704,0.0026847466360777617
1761412811624317200,4.974317138671875,0.0004974736366420984,-0.0001741219311952591,0.0025986807886511087
1761412811634330000,4.984330078125,0.0004966746782884002,-0.0011072938796132803,0.0009397976100444794
1761412811644343000,4.994343017578125,-0.0011502541601657867,0.0010444563813507557,0.0006853556260466576
1761412811654356000,5.00435595703125,0.0007672218489460647,0.00006627710536122322,-0.00010560313239693642
1761412811664369200,5.014369140625,0.0015170059632509947,0.0014984970912337303,-0.001148825278505683
1761412811674382000,5.024382080078125,0.0008932934724725783,0.0014590821228921413,-0.0019933136645704508
1761412811684395000,5.03439501953125,-0.00015944003826007247,0.0008039302192628384,0.0023485778365284204
1761412811694408200,5.044408203125,-0.002126450650393963,-0.0011175402905791998,-0.00228771916590631
1761412811704421000,5.054421142578125,-0.0013137722853571177,-0.00303763709962368,-0.00300898146815598
1761412811714434000,5.06443408203125,-0.0015401409473270178,-0.0020011349115520716,-0.004152809269726276
1761412811724447000,5.074447021484375,-0.001559257972985506,-0.002496160799637437,-0.0003784538712352514
1761412811734460200,5.084460205078125,0.00008204812183976173,-0.0037553035654127598,-0.000614409800618887
1761412811744473000,5.09447314453125,-0.0007940412615425885,-0.0008942834101617336,0.0006123071070760489
1761412811754486000,5.104486083984375,0.002414268907159567,-0.00019893189892172813,0.001588355517014861
1761412811764499200,5.114499267578125,-0.0023136271629482508,0.0005837567150592804,0.0010521349031478167
1761412811774512000,5.12451220703125,0.0006035995320416987,0.0007968097925186157,-0.0014232732355594635
1761412811784525000,5.134525146484375,0.0007935431785881519,-0.00045710382983088493,0.0020814009476453066
1761412811794538000,5.1445380859375,0.00036690477281808853,-0.0027554119005799294,0.00012690690346062183
1761412811804552200,5.15455224609375,-0.003034040331840515,-0.00014512194320559502,-0.00297937192954123
1761412811814565000,5.164565185546875,0.0015583147760480642,-0.0027326494455337524,-0.000765219796448946
1761412811824578000,5.174578125,-0.0008151102811098099,-0.00046586478129029274,-0.0010565398260951042
1761412811834591200,5.18459130859375,0.0006554872961714864,0.0005711698904633522,-0.00017716409638524055
1761412811844604000,5.19460400390625,0.0000741631374694407,-0.000017052050679922104,0.00035412050783634186
1761412811854617000,5.2046171875,0.001246752915903926,0.00014113960787653923,-0.0012608204269781709
1761412811864630000,5.214630126953125,-0.00021922716405242682,-0.0018794145435094833,0.0007848176173865795
1761412811874643200,5.224643310546875,0.0008548257173970342,-0.001988337840884924,0.00047136377543210983
1761412811884655900,5.23465576171875,0.0003437650157138705,0.0005680304020643234,-0.002575026359409094
1761412811894669000,5.2446689453125,0.00019915541633963585,0.0017677843570709229,-0.0004290509968996048
1761412811904682200,5.25468212890625,0.0028749355114996433,0.00033007003366947174,0.0011588335037231445
1761412811914695000,5.26469482421875,-0.00008996168617159128,0.000049905385822057724,-0.002058797748759389
1761412811924708000,5.2747080078125,0.0015666147228330374,0.00013804156333208084,0.000684322789311409
1761412811934721000,5.284720947265625,-0.0010411526309326291,0.0005795937031507492,-0.002153275301679969
1761412811944734200,5.294734130859375,-0.0017221528105437756,0.003798206802457571,-0.001993063371628523
1761412811954747000,5.304746826171875,0.0006371414638124406,0.0012250603176653385,-0.0028980053029954433
1761412811964760000,5.314760009765625,-0.0006400066195055842,-0.0004929727874696255,0.0006090491078794003
1761412811974773200,5.324773193359375,-0.000645332969725132,-0.0011843293905258179,-0.0014311985578387976
1761412811984786000,5.334785888671875,-0.0007736089755780995,-0.0006369096226990223,-0.0006269558798521757
1761412811994799000,5.344799072265625,-0.002513185841962695,0.0021311799064278603,-0.0006168358959257603
1761412812004812000,5.35481201171875,0.0004237922839820385,-0.00006026541814208031,-0.0011739851906895638
1761412812014825200,5.3648251953125,0.0022555142641067505,-0.0008208639919757843,-0.002650441601872444
1761412812024838000,5.374837890625,0.0007695603417232633,-0.0004941094666719437,-0.001373125473037362
1761412812034852000,5.38485205078125,0.0003461177693679929,0.0012590494006872177,0.0023086946457624435
1761412812044865000,5.394864990234375,0.0006091640680097044,0.0008644820190966129,-0.001886943238787353
1761412812054878000,5.4048779296875,0.0009721528622321784,-0.000461772084236145,-0.003035831032320857
1761412812064891100,5.41489111328125,0.0005648488295264542,-0.002197705674916506,0.0015764618292450905
1761412812074904000,5.424904052734375,-0.00011239305604249239,-0.0014003552496433258,0.0006933577824383974
1761412812084917000,5.4349169921875,0.002352840034291148,0.0003774911165237427,-0.0015153535641729832
1761412812094930200,5.44493017578125,0.000915798416826874,0.0008898833766579628,-0.0005616755224764347
1761412812104943000,5.454943115234375,-0.0004779374285135418,0.0005669291131198406,0.0015918782446533442
1761412812114956000,5.4649560546875,-0.002907006535679102,-0.0035292787943035364,-0.00358637236058712
1761412812124969000,5.474968994140625,0.0013542287051677704,-0.0033864739816635847,-0.0012321184622123837
1761412812134982100,5.484982177734375,-0.00021091115195304155,0.0018319902010262012,-0.003479826496914029
1761412812144995000,5.4949951171875,-0.0022507815156131983,-0.003413597820326686,-0.0021785723511129618
1761412812155008000,5.505008056640625,-0.00007418007589876652,-0.0014154280070215464,-0.004571955185383558
1761412812165021200,5.515021240234375,-0.0021028320770710707,-0.004319309256970882,-0.0010005704825744033
1761412812175034000,5.5250341796875,-0.0009251821902580559,-0.007186735048890114,-0.0038589411415159702
1761412812185047000,5.535047119140625,-0.0033126643393188715,-0.002677149837836623,-0.0036576639395207167
1761412812195060000,5.54506005859375,-0.0008977099205367267,0.0013942909426987171,-0.0008134079398587346
1761412812205073200,5.5550732421875,-0.003078402718529105,0.0013353540562093258,0.00011640437878668308
1761412812215086000,5.565086181640625,-0.00010445067891851068,-0.0013065014500170946,-0.0016974747413769364
1761412812225099000,5.57509912109375,-0.000002032902557402849,-0.0058560678735375404,-0.000022548949345946312
1761412812235112200,5.5851123046875,-0.0003200143401045352,-0.0036163493059575558,-0.0028681366238743067
1761412812245125000,5.595125,-0.0031527855899184942,-0.0023834253661334515,-0.0010396529687568545
1761412812255138000,5.605137939453125,-0.0012281191302463412,-0.002021501772105694,-0.0034639285877346992
1761412812265151000,5.61515087890625,0.0004082235391251743,-0.00222465256229043,0.00033869617618620396
1761412812275165200,5.625165283203125,-0.0018168473616242409,-0.0033027001190930605,-0.0005675775464624166
1761412812285178000,5.63517822265625,-0.0019598803482949734,-0.0032651154324412346,-0.00032703904435038567
1761412812295191000,5.64519091796875,0.00006572011625394225,-0.0019124960526823997,-0.0003680516965687275
1761412812305204200,5.655204345703125,0.000049736525397747755,-0.0018545882776379585,-0.0005806039553135633
1761412812315217000,5.665216796875,0.0003586631501093507,-0.002179760253056884,-0.0021934143733233213
1761412812325230000,5.67522998046875,-0.0008491551852785051,0.0008353115990757942,-0.0019884908106178045
1761412812335243000,5.685242919921875,-0.001658489927649498,-0.0014968186151236296,-0.0007639693794772029
1761412812345256200,5.695256103515625,0.0018493901006877422,-0.0009866985492408276,0.000295095844194293
1761412812355268900,5.705268798828125,0.00003897311398759484,-0.00116646196693182,5.501788109540939e-7
1761412812365282000,5.715281982421875,0.00039719976484775543,0.000741234514862299,0.0015850521158427
1761412812375295200,5.725295166015625,-0.0011500967666506767,-0.004197331611067057,0.0009512195829302073
1761412812385308000,5.735307861328125,-0.0016859050374478102,0.00029005249962210655,-0.0009187918622046709
1761412812395321000,5.745321044921875,-0.0012797730742022395,-0.0006931866519153118,-0.0027294750325381756
1761412812405334000,5.755333984375,-0.000969582237303257,0.001526456791907549,0.0013045368250459433
1761412812415347200,5.76534716796875,-0.0002547898329794407,0.0010990197770297527,-0.0001769796945154667
1761412812425360000,5.77535986328125,-0.0008107641479000449,-0.0007159505039453506,-0.0002616115380078554
1761412812435373000,5.785373046875,-0.0009252800373360515,-0.0026605904567986727,-0.0004770613741129637
1761412812445386200,5.79538623046875,0.0003865296603180468,-0.002546570962294936,0.001162651227787137
1761412812455399000,5.80539892578125,-0.00006088142981752753,-0.0003398759290575981,-0.001958307344466448
1761412812465412000,5.815412109375,0.0006032393430359662,0.0024582711048424244,-0.00044229906052351
1761412812475425000,5.825425048828125,0.0026067353319376707,-0.0012714862823486328,0.001309528248384595
1761412812485438200,5.835438232421875,-0.00030589630478061736,0.00194564089179039,0.0022280944976955652
1761412812495451000,5.845450927734375,-0.0018649108242243528,0.0019554942846298218,0.0012688236311078072
1761412812505464000,5.855464111328125,0.0014212423702701926,-0.00045492034405469894,-0.0015779579989612103
1761412812515477200,5.865477294921875,0.0015352257760241628,-0.0024586825165897608,0.0026689849328249693
1761412812525490000,5.875489990234375,-0.0006612759316340089,0.0003416547551751137,0.0004746497143059969
1761412812535504100,5.885504150390625,-0.00225863978266716,0.0004899930208921432,-0.0011301710037514567
1761412812545517000,5.89551708984375,0.00015404459554702044,-0.00010071787983179092,0.0005086008459329605
1761412812555530000,5.905530029296875,0.00047495547914877534,-0.0010749022476375103,0.0005951535422354937
1761412812565543200,5.915543212890625,0.0014887915458530188,-0.000197642482817173,-0.0018758256919682026
1761412812575556000,5.92555615234375,0.000424592406488955,-0.0019846237264573574,0.001821707235649228
1761412812585569000,5.935569091796875,-0.002252285135909915,-0.0004973043687641621,-0.00005134241655468941
1761412812595582000,5.94558203125,-0.00020191736984997988,-0.0002360483631491661,-0.0009232613956555724
1761412812605595400,5.955595458984375,-0.00046002157614566386,-0.0003455746918916702,0.002439261879771948
1761412812615608600,5.965608642578125,-0.0009183515794575214,-0.0009807383175939322,-0.001136031816713512
1761412812625621500,5.97562158203125,0.0008517472888343036,-0.0006539407186210155,0.0008576724212616682
1761412812635634400,5.985634521484375,-0.00098876329138875,0.00214743847027421,-0.002913363743573427
1761412812645647600,5.995647705078125,0.0000491307582706213,-0.0016836165450513363,0.0024576541036367416
1761412812655660300,6.005660400390625,-0.00104995584115386,0.0007449202239513397,-0.002875858685001731
1761412812665673500,6.015673583984375,-0.0010821534087881446,0.0014470349997282028,0.00005422229878604412
1761412812675686400,6.025686279296875,-0.00045471263001672924,0.0027642343193292618,-0.0007862714119255543
1761412812685699600,6.035699462890625,0.0008958163089118898,-0.0021397978998720646,-0.000522411079145968
1761412812695712300,6.045712158203125,-0.0001441480708308518,0.00044506601989269257,-0.0004222760908305645
1761412812705725400,6.055725341796875,0.001118137501180172,0.0007561137899756432,0.0020022843964397907
1761412812715738600,6.065738525390625,0.0008864424889907241,-0.0017240880988538265,0.0008467386942356825
1761412812725751300,6.075751220703125,-0.00010960520012304187,0.0004434864968061447,0.000027371104806661606
1761412812735764500,6.085764404296875,-0.00025128538254648447,0.001417138148099184,0.00031951977871358395
1761412812745777400,6.09577734375,0.0013541263760998845,0.0031155114993453026,-0.0008823079988360405
1761412812755790600,6.10579052734375,-0.00021021446445956826,-0.001068047946318984,-0.0010926977265626192
1761412812765803300,6.11580322265625,0.0026259813457727432,-0.0005662078037858009,-0.00015756767243146896
1761412812775817500,6.1258173828125,-0.0009213493904098868,0.0018476811237633228,-0.0024580061435699463
1761412812785830400,6.135830322265625,-0.0019484248477965593,-0.000011208001524209976,-0.0037444760091602802
1761412812795843300,6.14584326171875,-0.0010216447990387678,-0.002151324413716793,0.0000012600794434547424
1761412812805856500,6.1558564453125,0.0016252165660262108,-0.0018376209773123264,-0.0010454774601384997
1761412812815869400,6.165869384765625,-0.0009758927626535296,-0.0022631941828876734,0.001994520891457796
1761412812825882400,6.17588232421875,-0.00031409726943820715,-0.0017771671991795301,0.000584377208724618
1761412812835895600,6.1858955078125,-0.002116790972650051,0.0018388726748526096,0.0023505855351686478
1761412812845908500,6.195908447265625,-0.001013355329632759,-0.0021208415273576975,0.0017377601470798254
1761412812855921400,6.20592138671875,-0.0018775511998683214,0.000561228021979332,-0.00013151275925338268
1761412812865934300,6.215934326171875,-0.00036233061109669507,0.0011924393475055695,0.0009094388224184513
1761412812875947500,6.225947509765625,-0.0017956439405679703,-0.0016118690837174654,-0.0014602418523281813
1761412812885960400,6.23596044921875,0.000013485318049788475,0.0009208670817315578,0.00045082601718604565
1761412812895973400,6.245973388671875,-0.00031062139896675944,-0.0006538601592183113,0.0026881478261202574
1761412812905986600,6.255986572265625,0.0016954060411080718,0.00028549274429678917,0.0002809653524309397
1761412812915999500,6.26599951171875,-0.0008268738747574389,-0.0010817740112543106,0.00010226713493466377
1761412812926012400,6.276012451171875,0.0009564969222992659,-0.0032277912832796574,-0.002869742689654231
1761412812936025300,6.286025390625,-0.0003202225489076227,-0.000030932482331991196,-0.004959259182214737
1761412812946038500,6.29603857421875,-0.0010474781738594174,-0.0013696174137294292,-0.0009530700044706464
1761412812956051500,6.306051513671875,0.0008771882858127356,-0.0018862704746425152,0.0011550881899893284
1761412812966064400,6.316064453125,0.0027114234399050474,0.0005122851580381393,-0.0024686940014362335
1761412812976077600,6.32607763671875,-0.0007578765507787466,-0.00005390262231230736,-0.0003112673293799162
1761412812986090500,6.336090576171875,-0.00012903008610010147,-0.0006241975352168083,-0.00003154110163450241
1761412812996103400,6.346103515625,0.0007985489210113883,-0.0002596108242869377,0.0024699659552425146
1761412813006116400,6.356116455078125,0.0008646997157484293,0.001024005003273487,-0.002692100591957569
1761412813016129500,6.366129638671875,0.00017147883772850037,0.00008284393697977066,-0.0015211086720228195
1761412813026142500,6.376142578125,-0.0014580050483345985,0.003338530194014311,-0.0019544668029993773
1761412813036155400,6.3861552734375,0.0006056784186512232,0.0004311571829020977,-0.0015406114980578423
1761412813046169600,6.396169677734375,0.000882290187291801,0.0008508847095072269,-0.0015595853328704834
1761412813056182300,6.406182373046875,-0.0015102936886250973,-0.000017838086932897568,0.003436504863202572
1761412813066195500,6.416195556640625,-0.0016254738438874483,-0.00009341537952423096,-0.0008572604274377227
1761412813076208400,6.42620849609375,0.0003543200436979532,0.00041871052235364914,0.0014170792419463396
1761412813086221600,6.4362216796875,0.00042532209772616625,0.0007620197720825672,-0.0000350812915712595
1761412813096234500,6.446234375,-0.002220794791355729,0.0009018359705805779,-0.0024987715296447277
1761412813106247400,6.456247314453125,0.0001442124485038221,-0.0000512395054101944,-0.0005243951454758644
1761412813116260600,6.466260498046875,-0.0011572743533179164,0.000012676231563091278,-0.0009686104021966457
1761412813126273300,6.476273193359375,-0.000024544599000364542,-0.000983790261670947,-0.003407397773116827
1761412813136286500,6.486286376953125,-0.002224049298092723,-0.0017342690844088793,-0.0012654172023758292
1761412813146299400,6.49629931640625,-0.001045528333634138,0.0005668890662491322,0.00352176814340055
1761412813156312600,6.5063125,-0.0005515119410119951,0.0021504047326743603,-0.0016085454262793064
1761412813166325200,6.5163251953125,-0.0005273341666907072,0.0006581810303032398,0.0023224239703267813
1761412813176338400,6.52633837890625,0.0008071757620200515,0.002237435430288315,-0.0005894764326512814
1761412813186351600,6.5363515625,0.0015307264402508736,0.00044451048597693443,0.001305252080783248
1761412813196364300,6.5463642578125,0.001983197405934334,-0.00011235615238547325,-0.0011690909741446376
1761412813206377500,6.55637744140625,0.00014313176507130265,0.00033278437331318855,-0.001294492743909359
1761412813216390400,6.566390380859375,0.0005463343113660812,-0.0001156921498477459,-0.00040979054756462574
1761412813226403600,6.576403564453125,-0.0009031062363646924,-0.00015514856204390526,-0.002474461682140827
1761412813236416300,6.586416259765625,0.0004950533621013165,-0.0008880505338311195,0.0013413154520094395
1761412813246429400,6.596429443359375,0.000023315718863159418,0.0012866728939116001,0.0012240712530910969
1761412813256442600,6.606442626953125,-0.0005753628793172538,0.001892009750008583,0.001495181117206812
1761412813266455300,6.616455322265625,-0.001794638461433351,0.001808947417885065,-0.00007623597048223019
1761412813276468500,6.626468505859375,0.0008794416207820177,0.0006720437668263912,0.0022692098282277584
1761412813286481400,6.6364814453125,-0.0017623056191951036,0.0005816235207021236,0.0010064030066132545
1761412813296494600,6.64649462890625,-0.0010930531425401568,0.0009541995823383331,-0.0024439883418381214
1761412813306508500,6.656508544921875,-0.0018877288093790412,0.0014456119388341904,-0.00007143407128751278
1761412813316521500,6.666521484375,-0.0008933044737204909,0.00018620304763317108,0.0009072776883840561
1761412813326534400,6.676534423828125,0.0009101175819523633,-0.0025781437288969755,0.0026391688734292984
1761412813336547300,6.68654736328125,0.0009548586676828563,-0.0017288618255406618,0.0015565939247608185
1761412813346560500,6.696560546875,-0.0016491945134475827,0.0022425749339163303,-0.0015188329853117466
1761412813356573400,6.706573486328125,-0.0018539915326982737,-0.0006655966863036156,-0.0003166820388287306
1761412813366586400,6.71658642578125,-0.00012138503370806575,-0.003449168521910906,-0.0002509588375687599
1761412813376599600,6.726599609375,-0.0002920936676673591,-0.001935427775606513,0.0021405599545687437
1761412813386612500,6.736612548828125,-0.00009870389476418495,-0.002650720998644829,0.0029824767261743546
1761412813396625400,6.74662548828125,-0.0010768829379230738,0.0018039485439658165,0.00019654398784041405
1761412813406638300,6.756638427734375,0.0003575882874429226,0.0011227317154407501,0.0022477624006569386
1761412813416651500,6.766651611328125,-0.0021620283368974924,-0.001537766307592392,-0.0006502894684672356
1761412813426664400,6.77666455078125,0.001999005675315857,0.001018960028886795,0.0008533343207091093
1761412813436677400,6.786677490234375,0.0011933994246646762,-0.002679904457181692,0.003962308168411255
1761412813446690600,6.796690673828125,0.0012706222478300333,-0.0009884305763989687,0.0015777228400111198
1761412813456703500,6.806703369140625,-0.0010228920727968216,0.0011349078267812729,0.0026509766466915607
1761412813466716400,6.81671630859375,-0.0020845485851168633,0.002582124900072813,0.007382517214864492
1761412813476729300,6.826729248046875,-0.0015529815573245287,0.0011291042901575565,-0.002113516442477703
1761412813486742500,6.836742431640625,-0.0010376488789916039,0.0027242274954915047,-0.001748406095430255
1761412813496755500,6.84675537109375,0.0008097859681583941,0.003697879146784544,0.0030197175219655037
1761412813506768400,6.856768310546875,0.001071346108801663,-0.0016325055621564388,-0.0006121002370491624
1761412813516781300,6.86678125,-0.0024786475114524364,-0.0016114665195345879,-0.001821974292397499
1761412813526794500,6.87679443359375,-0.0004918409395031631,0.0021057468838989735,-0.0025886348448693752
1761412813536807400,6.886807373046875,0.00005517230601981282,0.0005840170197188854,0.0013895952142775059
1761412813546820400,6.8968203125,0.00046810030471533537,0.002081668470054865,-0.0027214884757995605
1761412813556833500,6.90683349609375,-0.001142579480074346,0.0016427794471383095,-0.002648517955094576
1761412813566846500,6.916846435546875,-0.0011239107698202133,0.0018198499456048012,-0.004224564880132675
1761412813576860400,6.9268603515625,-0.0009268368012271821,0.0017189159989356995,0.0008666000794619322
1761412813586873600,6.93687353515625,-0.0026018228381872177,0.0025430559180676937,-0.0037195668555796146
1761412813596886300,6.94688623046875,0.0025652421172708273,-0.00018854858353734016,-0.0017810518620535731
1761412813606899000,6.95689892578125,0.0011268898379057646,0.00023872405290603638,-0.000338149257004261
1761412813616912000,6.966911865234375,0.0011362109798938036,0.0008390005677938461,-0.0023858537897467613
1761412813626925000,6.976925048828125,0.001945343567058444,0.00012935278937220573,-0.0005325950914993882
1761412813636938000,6.98693798828125,0.0006526450742967427,-0.00023310352116823196,-0.0012963897315785289
1761412813646951000,6.996950927734375,0.0007923442753963172,0.00010525761172175407,-0.002203598851338029
1761412813656964000,7.006964111328125,0.000696204078849405,-0.0031826808117330074,-0.0015788213349878788
1761412813666977000,7.01697705078125,-0.002092850860208273,-0.00038729095831513405,-0.0010011516278609633
1761412813676990000,7.026989990234375,-0.0014118804829195142,-0.00212899805046618,0.003570164553821087
1761412813687003000,7.0370029296875,0.0006086818757466972,-0.00051485700532794,0.0007187006995081902
1761412813697016000,7.04701611328125,-0.00029439604259096086,-0.00021338742226362228,-0.0027796276845037937
1761412813707029000,7.057029052734375,-0.000468974350951612,-0.0017184896860271692,0.0005964520387351513
1761412813717042000,7.0670419921875,-0.0011142583098262548,-0.0007453705184161663,-0.0004973082104697824
1761412813727055000,7.07705517578125,0.0005646172794513404,-0.000038878992199897766,0.00016423244960606098
1761412813737068000,7.087068115234375,0.0008999092387966812,0.0025752796791493893,0.000691005727276206
1761412813747081000,7.0970810546875,-0.00017645227489992976,0.000250108540058136,0.0009067910723388195
1761412813757094000,7.107093994140625,0.0005599117139354348,-0.0020079859532415867,0.0005432695616036654
1761412813767107000,7.117107177734375,-0.0012488395441323519,0.0012284237891435623,-0.0012346351286396384
1761412813777120000,7.1271201171875,-0.001612361054867506,0.0028436309657990932,-0.0014926954172551632
1761412813787133000,7.1371328125,0.0002875924692489207,-0.000048636458814144135,-0.0016919398913159966
1761412813797146000,7.14714599609375,-0.0002833892358466983,0.0019031940028071404,0.00014990218915045261
1761412813807159000,7.157158935546875,-0.0017987475730478764,0.0015492215752601624,0.0009283211547881365
1761412813817172000,7.167171875,-0.0017055368516594172,0.0020112800411880016,0.001173864584416151
1761412813827185000,7.177184814453125,0.001589955878444016,0.0007195756770670414,0.0033042726572602987
1761412813837198000,7.187197998046875,0.0005087124882265925,-0.000027440953999757767,-0.001244939281605184
1761412813847211000,7.1972109375,0.0017454931512475014,0.0013250424526631832,-0.00059464480727911
1761412813857224000,7.207223876953125,-0.0007698624394834042,0.00005791056901216507,0.001258915290236473
1761412813867238100,7.217238037109375,0.0009975801222026348,0.002191441133618355,-0.0022729330230504274
1761412813877250800,7.227250732421875,0.0009824000298976898,0.00005159154534339905,-0.0006305617280304432
1761412813887264000,7.237263916015625,0.000784148636739701,0.0001651817001402378,0.0013602233957499266
1761412813897277000,7.24727685546875,-0.0020582431461662054,-0.00025692908093333244,-0.0000624372623860836
1761412813907289900,7.257289794921875,-0.0009328537853434682,0.003840344026684761,0.0029856909532099962
1761412813917303000,7.267302978515625,-0.000798364169895649,0.0018831868655979633,-0.00010836985893547535
1761412813927316000,7.27731591796875,-0.001070093596354127,0.0008603776805102825,0.0002797422930598259
1761412813937329200,7.2873291015625,-0.002016847487539053,0.0001759454607963562,0.0005172961391508579
1761412813947341800,7.297341796875,0.0007805768982507288,0.0000902106985449791,-0.0012242553057149053
1761412813957355000,7.30735498046875,-0.001735843950882554,0.001457743812352419,-0.0020639500580728054
1761412813967368000,7.317367919921875,-0.00017440947704017162,0.00011953851208090782,-0.00035106437280774117
1761412813977380900,7.327380859375,-0.0005786773399449885,0.0050003137439489365,0.0031350136268883944
1761412813987394000,7.33739404296875,0.0009219839703291655,-0.001062207156792283,0.0011184404138475657
1761412813997407000,7.347406982421875,0.0009062712779268622,-0.001722671091556549,0.002387170447036624
1761412814007420200,7.357420166015625,-0.001971749123185873,-0.0004463004879653454,0.0012604410294443369
1761412814017432800,7.367432861328125,-0.0005948947509750724,0.0019364296458661556,0.0031877707224339247
1761412814027446000,7.377446044921875,-0.0011357818730175495,0.0005137985572218895,0.0009814847726374865
1761412814037459000,7.387458984375,0.0007827593362890184,-0.0011762436479330063,-0.00020149140618741512
1761412814047472000,7.39747216796875,0.00006941135507076979,0.00009813020005822182,-0.002822017064318061
1761412814057485000,7.407485107421875,0.002057461068034172,-0.00019561639055609703,0.0010219896212220192
1761412814067498000,7.417498046875,0.0004330542287789285,-0.0015976710710674524,-0.0014839378418400884
1761412814077511200,7.42751123046875,-0.0006796144880354404,0.0005658809095621109,-0.00008524558506906033
1761412814087523800,7.43752392578125,0.00018704996909946203,0.0007348759099841118,-0.0005059476243332028
1761412814097537000,7.447537109375,0.002347140107303858,0.00120545644313097,0.001852814108133316
1761412814107550000,7.457550048828125,-0.0008118601399473846,0.0027755494229495525,-0.00047517905477434397
1761412814117563100,7.467563232421875,-0.0003186427056789398,0.0024903248995542526,-0.0023359295446425676
1761412814127575800,7.477575927734375,0.0009898027637973428,0.00045072566717863083,-0.0004103470128029585
1761412814137589000,7.487589111328125,-0.0005644180346280336,-0.0008683381602168083,0.00028021051548421383
1761412814147603000,7.49760302734375,-0.0016427796799689531,0.00000797351822257042,-0.003259903285652399
1761412814157615900,7.507615966796875,-0.0013759308494627476,0.0006215660832822323,-0.0023653474636375904
1761412814167629000,7.517629150390625,-0.0021816049702465534,0.0016473596915602684,0.00033346936106681824
1761412814177642000,7.52764208984375,-0.0002545417519286275,0.0019357800483703613,-0.0005578907439485192
1761412814187655000,7.537655029296875,0.00020197569392621517,-0.0015369346365332603,0.00045135640539228916
1761412814197668000,7.547668212890625,-0.000512550410348922,0.00010170834138989449,-0.00031749834306538105
1761412814207681000,7.557680908203125,0.00028047553496435285,-0.0009329423774033785,0.0007467654068022966
1761412814217694000,7.56769384765625,-0.0016822742763906717,-0.0005185543559491634,0.00041893008165061474
1761412814227707000,7.577706787109375,0.0014870164450258017,-0.001710719196125865,0.002545674331486225
1761412814237720000,7.587719970703125,0.0006198910996317863,-0.0018955424893647432,0.00006973324343562126
1761412814247733000,7.59773291015625,0.0017693599220365286,0.0011790385469794273,0.000014142366126179695
1761412814257746000,7.607745849609375,-0.001481028157286346,0.002904500812292099,0.0002660774625837803
1761412814267759000,7.617759033203125,0.000916904944460839,0.0007232716307044029,-0.001493339892476797
1761412814277772000,7.62777197265625,0.003048765240237117,-0.0006844750605523586,0.0012041761074215174
1761412814287785000,7.637784912109375,0.0006519249873235822,-0.00044237449765205383,-0.002210180973634124
1761412814297798000,7.6477978515625,0.0006537891458719969,0.0005488540045917034,0.0007163665723055601
1761412814307811000,7.65781103515625,0.0007656730012968183,0.0009224461391568184,0.004453204106539488
1761412814317824000,7.667823974609375,0.001044239616021514,-0.001834192080423236,-0.0004331636009737849
1761412814327837000,7.6778369140625,0.0008563242154195905,0.0002316739410161972,-0.0019888347014784813
1761412814337850000,7.68785009765625,0.0008214367553591728,0.0004447265528142452,-0.0012577970046550035
1761412814347863000,7.697863037109375,-0.0008150697685778141,0.001916736364364624,-0.0017890420276671648
1761412814357876000,7.7078759765625,0.0002171714440919459,0.0041143763810396194,0.0016099503263831139
1761412814367889000,7.717888916015625,-0.0004682339495047927,-0.0009731310419738293,-0.0000027855858206748962
1761412814377902000,7.727902099609375,0.00013523836969397962,-0.0008130753412842751,-0.00023235008120536804
1761412814387915000,7.7379150390625,0.0007007408421486616,0.0019536386243999004,0.002086128108203411
1761412814397928000,7.747927978515625,0.0006160523043945432,0.0012044915929436684,-0.0021727988496422768
1761412814407941000,7.757941162109375,-0.0009091051761060953,0.00048051122575998306,0.00018309243023395538
1761412814417954000,7.7679541015625,0.00013565286644734442,-0.0010505402460694313,-0.002345845103263855
1761412814427967000,7.777967041015625,-0.001644378760829568,0.0023499559611082077,-0.0008071359479799867
1761412814437981000,7.78798095703125,-0.0003833719529211521,0.0014229095540940762,0.0014275223948061466
1761412814447994000,7.797994140625,0.0004295887774787843,0.00004560500383377075,-0.00009054271504282951
1761412814458007000,7.808007080078125,-0.0014735060976818204,0.00017769820988178253,0.002457836177200079
1761412814468020000,7.81802001953125,0.0028677191585302353,-0.002853593323379755,-0.0014819473726674914
1761412814478033200,7.828033203125,0.0009481125161983073,0.0001464574597775936,0.00040650018490850925
1761412814488045800,7.8380458984375,0.0008348948322236538,-0.0006647142581641674,-0.0007988993311300874
1761412814498059000,7.84805908203125,0.0009536717552691698,-0.00004286598414182663,0.003027796745300293
1761412814508072000,7.858072021484375,-0.0011606886982917786,0.001997416839003563,-0.0025467686355113983
1761412814518085000,7.868085205078125,-0.0004959636717103422,0.00336548313498497,-0.00013021635822951794
1761412814528098000,7.87809814453125,-0.0011389462742954493,0.0009407885372638702,-0.0004886676324531436
1761412814538111000,7.888111083984375,0.0008238034206442535,-0.0004768120124936104,-0.0012335538631305099
1761412814548124200,7.898124267578125,-0.00021790209575556219,-0.0002360125072300434,0.002389399567618966
1761412814558136800,7.90813671875,0.000489167170599103,0.0002223174087703228,-0.0008356883190572262
1761412814568150000,7.91814990234375,0.0014047430595383048,0.0010940679349005222,-0.002058815909549594
1761412814578163000,7.928162841796875,-0.000986509257927537,0.0007904674857854843,0.0004152609035372734
1761412814588176100,7.938176025390625,0.0007334227557294071,-0.0022165970876812935,-0.0026603315491229296
1761412814598188800,7.948188720703125,-0.0010988321155309677,0.0030122529715299606,0.0016244284342974424
1761412814608202200,7.9582021484375,-0.00029049633303657174,0.0005856449715793133,0.0005486977752298117
1761412814618215200,7.968215087890625,0.00044400349725037813,0.00043970393016934395,-0.0011690410319715738
1761412814628228000,7.97822802734375,-0.0009913321118801832,0.0003033881075680256,-0.0015927122440189123
1761412814638241300,7.9882412109375,0.0011655619600787759,0.0005790251307189465,0.0002621794119477272
1761412814648254200,7.998254150390625,0.0006099856691434979,0.0004913718439638615,-0.0005458275554701686
1761412814658267100,8.00826708984375,-0.0010188035666942596,-0.0010492668952792883,0.002085375599563122
1761412814668280000,8.018280029296875,-0.0019326836336404085,0.0018180133774876595,-0.00327945314347744
1761412814678293200,8.028293212890626,0.0007930616848170757,0.0013242634013295174,-0.001961987465620041
1761412814688306200,8.03830615234375,0.001719247200526297,0.0019499990157783031,-0.0005881970282644033
1761412814698319000,8.048319091796875,0.0010310865473002195,0.0015720962546765804,-0.0026806427631527185
1761412814708332300,8.058332275390624,0.0006002201698720455,0.000017988495528697968,0.0012115228455513716
1761412814718345200,8.06834521484375,0.0005387011915445328,-0.0010512706357985735,-0.0007371121319010854
1761412814728358100,8.078358154296875,-0.0010651249904185534,0.0008881292305886745,0.0009965146891772747
1761412814738371000,8.08837109375,0.0005740506458096206,0.0005957139655947685,0.002446872415021062
1761412814748385300,8.09838525390625,0.00028603768441826105,0.0014712880365550518,-0.00045549659989774227
1761412814758398200,8.108398193359376,0.00006685953121632338,0.0015157628804445267,0.0015075195115059614
1761412814768411100,8.1184111328125,0.0002676506992429495,-0.0032702190801501274,-0.00035781366750597954
1761412814778424300,8.12842431640625,0.0021382549311965704,-0.0010653880890458822,0.0009311563335359097
1761412814788437200,8.138437255859374,-0.0004127786378376186,0.00043814023956656456,0.000058262841776013374
1761412814798450200,8.1484501953125,-0.0015342357801273465,-0.0003006206825375557,-0.0010874291183426976
1761412814808463000,8.158463134765626,0.0021209234837442636,-0.0014741970226168633,0.0005083091091364622
1761412814818476300,8.168476318359374,-0.0017486494034528732,-0.002392455004155636,0.0020694544073194265
1761412814828489200,8.1784892578125,-0.001783314859494567,0.0001152167096734047,-0.0002655636053532362
1761412814838502100,8.188502197265626,-0.0004863554786425084,0.0025607976131141186,-0.0008053862256929278
1761412814848515300,8.198515380859375,0.000013228098396211863,-0.0002576122060418129,-0.0022976198233664036
1761412814858528300,8.2085283203125,0.00010670506162568927,0.0017251111567020416,-0.0010936047183349729
1761412814868541200,8.218541259765624,0.00007551664020866156,0.0017917766235768795,0.0005524575244635344
1761412814878554000,8.22855419921875,-0.0015735127963125706,-0.001023717224597931,-0.0021461236756294966
1761412814888567300,8.2385673828125,0.0005650389357469976,0.0006881169974803925,0.0015353674534708261
1761412814898580200,8.248580322265624,0.0010396142024546862,-0.0024802456609904766,0.001911406172439456
1761412814908593200,8.25859326171875,0.0007315416005440056,0.00004380755126476288,0.00011253799311816692
1761412814918606300,8.2686064453125,-0.0009819362312555313,-0.0005205166526138783,-0.0001071728765964508
1761412814928619300,8.278619384765625,0.00010097434278577566,0.0015288246795535088,-0.0006045721238479018
1761412814938632200,8.288632080078125,0.0012522588949650526,-0.00042300624772906303,0.0014617745764553547
1761412814948645000,8.29864501953125,-0.0008881266112439334,0.0016058064065873623,-0.0023700834717601538
1761412814958658300,8.308658203125,0.000016016594599932432,0.0010603913106024265,-0.00018842192366719246
1761412814968671000,8.3186708984375,-0.0005422969115898013,0.0010322630405426025,-0.0005826969863846898
1761412814978684200,8.32868408203125,0.0012271073646843433,0.0006716707721352577,-0.000008519506081938744
1761412814988697300,8.338697265625,0.0009485215414315462,-0.001251979498192668,-0.0011374648893252015
1761412814998710300,8.348710205078126,0.0020609237253665924,-0.0006322618573904037,-0.004619015380740166
1761412815008723200,8.35872314453125,0.00042672251584008336,-0.00042570754885673523,-0.0013449975522235036
1761412815018736000,8.368736083984375,0.0005625436897389591,-0.0005793720483779907,-0.0012571131810545921
1761412815028749300,8.378749267578126,-0.00007041374919936061,0.0006338362582027912,-0.0012890681391581893
1761412815038762000,8.388761962890625,0.0006955114076845348,0.00046232854947447777,0.00006328499875962734
1761412815048775200,8.398775146484375,0.0008162776357494295,0.0006508924998342991,-0.0001257795374840498
1761412815058788400,8.408788330078124,-0.001988297328352928,0.00019469298422336578,-0.0007220612606033683
1761412815068802000,8.418802001953125,0.00033218349562957883,-0.001233912305906415,0.0022619985975325108
1761412815078815200,8.428815185546876,-0.0025094093289226294,0.002866822760552168,0.0010944691020995378
1761412815088828200,8.438828125,0.00080108642578125,-0.0006043859757483006,0.00045287376269698143
1761412815098841000,8.448841064453125,0.00072998006362468,-0.0012794972863048315,-0.0014185295440256596
1761412815108854300,8.458854248046874,0.00023992074420675635,-0.0010441881604492664,-0.0008998942794278264
1761412815118867200,8.4688671875,-0.0011350694112479687,-0.0008345972746610641,0.0014972169883549213
1761412815128880400,8.47888037109375,0.0002917824313044548,-0.0022175749763846397,0.0008365840185433626
1761412815138893000,8.48889306640625,0.0016870126128196716,-0.0003160778433084488,0.0009084893390536308
1761412815148906200,8.49890625,0.0001270598149858415,0.0006540422327816486,-0.0007936954498291016
1761412815158919200,8.508919189453126,0.0011475831270217896,-0.0008775414898991585,0.00025159516371786594
1761412815168932000,8.51893212890625,0.002105485647916794,-0.0005343826487660408,0.0008962696883827448
1761412815178945300,8.5289453125,-0.0006311788456514478,0.000608113594353199,-0.00193893164396286
1761412815188958200,8.538958251953124,-0.001444461988285184,-0.00046055298298597336,-0.0004721925361081958
1761412815198971400,8.548971435546875,-0.0009781424887478352,0.0022550723515450954,0.0014804371166974306
1761412815208984000,8.558984130859375,0.0008443082333542407,0.001306129153817892,0.0006120577454566956
1761412815218997200,8.568997314453124,0.001907974947243929,-0.000246493611484766,0.001339633483439684
1761412815229010200,8.57901025390625,-0.000298225786536932,0.0008089686743915081,-0.003182592336088419
1761412815239023000,8.589023193359376,0.0007883439539000392,-0.0022121211513876915,-0.0012688447022810578
1761412815249036300,8.599036376953125,-0.0010412761475890875,-0.0004726559855043888,0.00042975996620953083
1761412815259049200,8.60904931640625,-0.0014705776702612638,-0.0016122227534651756,0.0006119201425462961
1761412815269062400,8.6190625,-0.001671120524406433,0.001498679630458355,0.0019503843504935503
1761412815279075000,8.629074951171875,0.001474072691053152,-0.001976212952286005,0.0004691341891884804
1761412815289088300,8.639088134765625,-0.002799549140036106,-0.0012995810247957706,0.0003885230980813503
1761412815299101200,8.64910107421875,-0.0013643716229125857,-0.00392892025411129,-0.003158008446916938
1761412815309114000,8.659114013671875,-0.0007619556272402406,0.00020153215155005455,-0.0019604708068072796
1761412815319127000,8.669126953125,0.0006172954454086721,-0.0013146053534001112,-0.0040928637608885765
1761412815329140200,8.67914013671875,-0.0021450379863381386,-0.0004967669956386089,-0.001017846167087555
1761412815339153400,8.6891533203125,0.0019879217725247145,-0.001023806631565094,0.00021359953097999096
1761412815349166000,8.699166015625,0.0004116700729355216,-0.00016645761206746101,-0.00030649476684629917
1761412815359179300,8.70917919921875,0.0011522952700033784,-0.00019015977159142494,-0.0020982695277780294
1761412815369192200,8.719192138671875,0.0002350317663513124,0.002405545674264431,0.00029721157625317574
1761412815379205000,8.729205078125,0.0016451755072921515,0.0010420074686408043,-0.0012186596868559718
1761412815389219300,8.73921923828125,-0.0007818719604983926,-0.0014899016823619604,-0.0007270271889865398
1761412815399232300,8.749232177734376,0.0013209600001573563,0.0013367775827646255,0.0010591549798846245
1761412815409245200,8.7592451171875,0.0007894994923844934,0.0010235710069537163,0.00020680739544332027
1761412815419258000,8.769258056640625,-0.0005008020089007914,0.0005713663995265961,-0.001447814516723156
1761412815429271300,8.779271240234374,-0.00001739949220791459,0.0008383379317820072,-0.0016895463922992349
1761412815439284000,8.789283935546875,-0.001434467500075698,0.00008492963388562202,0.0011408613063395023
1761412815449297200,8.799297119140626,-0.0006616684258915484,0.001592511311173439,-0.00037702335976064205
1761412815459310300,8.809310302734374,-0.001014537294395268,0.0006023482419550419,-0.00029260129667818546
1761412815469323300,8.8193232421875,0.0005957433022558689,-0.0015748599544167519,-0.0028716479428112507
1761412815479336200,8.829336181640626,-0.0002591313677839935,-0.0043799676932394505,-0.0036663352511823177
1761412815489349000,8.83934912109375,-0.0018066109623759985,-0.0022012332919985056,-0.004220111761242151
1761412815499362300,8.8493623046875,-0.0008135181851685047,0.0007399618625640869,-0.0031465915963053703
1761412815509375000,8.859375,-0.001739066792652011,-0.000839803833514452,0.0025690579786896706
1761412815519388200,8.86938818359375,-0.0006463717436417937,0.002548535820096731,0.002480374649167061
1761412815529401300,8.8794013671875,-0.000193320942344144,0.002773449756205082,0.0016095596365630627
1761412815539414300,8.889414306640624,0.00028631434543058276,-0.0002734730951488018,0.0013456405140459538
1761412815549427200,8.89942724609375,-0.004252699203789234,0.004347366746515036,0.004130053333938122
1761412815559440100,8.909440185546876,-0.002139480784535408,0.005666963290423155,0.000625865999609232
1761412815569453300,8.919453369140625,-0.0006601274944841862,-0.0005921050906181335,-0.0005153920501470566
1761412815579466000,8.929466064453125,-0.0005541336722671986,-0.002176419598981738,-0.0009167304961010814
1761412815589479200,8.939479248046876,-0.0006632074946537614,0.0008284538052976131,-0.001070348429493606
1761412815599492400,8.949492431640625,-0.0019929236732423306,0.0008870433084666729,0.001202659448608756
1761412815609505800,8.959505859375,0.00028067093808203936,0.0032197255641222,-0.003029420506209135
1761412815619518700,8.969518798828124,-0.00013664638390764594,-0.0005300058983266354,-0.0019931846763938665
1761412815629532000,8.979531982421875,0.00019272504141554236,-0.000766274519264698,-0.0008523560827597976
1761412815639544800,8.989544921875,-0.0005508295143954456,-0.001837397925555706,0.0013412896078079939
1761412815649557800,8.999557861328125,-0.0009351680055260658,0.00043298909440636635,-0.00035567954182624817
1761412815659571000,9.009571044921875,-0.00014314387226477265,0.00319495378062129,0.0009623188525438309
1761412815669584000,9.019583984375,0.0004738669958896935,-0.0010459334589540958,0.00113357650116086
1761412815679596800,9.0295966796875,-0.003785592969506979,-0.0001852000132203102,0.0012201291974633932
1761412815689609700,9.039609619140625,-0.0003392921935301274,0.0021339855156838894,-0.0004948456771671772
1761412815699623000,9.049622802734374,-0.0020937826484441757,0.0020671403035521507,-0.0008056365186348557
1761412815709635800,9.0596357421875,-0.0005488871829584241,0.00005367957055568695,0.0021667606197297573
1761412815719648800,9.069648681640626,0.0000426009064540267,0.0014321315102279186,-0.0018998865270987153
1761412815729663000,9.0796630859375,-0.00002858956577256322,-0.0013888406101614237,0.0014773409347981215
1761412815739675600,9.089675537109375,-0.0005883860285393894,-0.0006663249805569649,-0.0008936712983995676
1761412815749688800,9.099688720703124,-0.002074119169265032,0.001001653727144003,0.0010016497690230608
1761412815759701800,9.10970166015625,0.0007773273973725736,-0.001814905321225524,-0.0014441972598433495
1761412815769715000,9.11971484375,0.0021557798609137535,-0.0009687580168247223,-0.0021132994443178177
1761412815779728000,9.129727783203125,0.0002809144789353013,-0.003336308291181922,-0.00229306286200881
1761412815789740800,9.13974072265625,0.0005789807764813304,0.0009721796959638596,-0.0036033852957189083
1761412815799754000,9.14975390625,0.0009531548712402582,0.0010571344755589962,-0.00007070205174386501
1761412815809766700,9.1597666015625,0.0011619186261668801,0.0024414886720478535,0.0008106299210339785
1761412815819779800,9.16977978515625,0.0015866928733885288,0.0002851272001862526,0.0010300744324922562
1761412815829792800,9.179792724609374,-0.001016843132674694,-0.002491327468305826,0.0002247088123112917
1761412815839806000,9.189805908203125,-0.001831770408898592,0.0018112752586603165,-0.0013854384887963533
1761412815849818600,9.199818603515626,-0.0015342256519943476,0.000542056281119585,0.001064993441104889
1761412815859831800,9.209831787109374,0.00037499447353184223,-0.00009790156036615372,0.00037150620482861996
1761412815869845000,9.219844970703125,-0.0004993933252990246,-0.0014834890607744455,-0.0004348345100879669
1761412815879857700,9.229857666015626,-0.0013758395798504353,0.001407105941325426,0.0017857090570032597
1761412815889870800,9.239870849609375,0.000609355978667736,0.0016023595817387104,0.0026092170737683773
1761412815899883800,9.2498837890625,0.0005249336827546358,0.00098344124853611,0.0008723032660782337
1761412815909897000,9.25989697265625,-0.000399199896492064,-0.001064202282577753,0.0009498610161244869
1761412815919909600,9.26990966796875,0.00305758323520422,-0.002491923049092293,0.0011056559160351753
1761412815929922800,9.2799228515625,-0.0021698763594031334,-0.00018787570297718048,-0.0016441456973552704
1761412815939936000,9.28993603515625,0.001910885446704924,-0.001135694794356823,0.0017631028313189745
1761412815949948700,9.29994873046875,-0.0020809415727853775,0.0009660138748586178,-0.002640690188854933
1761412815959961900,9.3099619140625,0.0017478852532804012,0.0005401740781962872,-0.002391418209299445
1761412815969974800,9.319974853515625,-0.0008573342929594219,0.000010972842574119568,-0.0025957454927265644
1761412815979988000,9.329988037109375,0.0031328799668699503,-0.002406378509476781,-0.0017464634729549289
1761412815990000600,9.340000732421874,0.0008378791972063482,-0.0003083227202296257,-0.0008876459905877709
1761412816000013800,9.350013916015625,-0.0007794585544615984,0.0010480252094566822,0.000668705441057682
1761412816010027000,9.360027099609376,-0.0013373179826885462,0.0009871702641248703,-0.0006513514090329409
1761412816020039700,9.370039794921874,0.0003673714236356318,0.003984291572123766,0.0022272595670074224
1761412816030052900,9.380052978515625,-0.00006026477785781026,0.001320451032370329,0.0023899113293737173
1761412816040065800,9.390065673828126,0.000020162726286798716,-0.0020838677883148193,0.003296717768535018
1761412816050079000,9.400078857421875,-0.001666639931499958,0.0004533063620328903,0.0009912124369293451
1761412816060093000,9.410093017578125,-0.0019763654563575983,0.0006439886055886745,-0.0016615623608231544
1761412816070105900,9.42010595703125,0.000997189898043871,-0.001226023305207491,-0.0026173198129981756
1761412816080118800,9.430118896484375,-0.0011306757805868983,-0.0015906100161373615,-0.00014377571642398834
1761412816090131700,9.440131591796876,-0.0008414472686126828,0.0003246450796723366,-0.00363433756865561
1761412816100145000,9.450144775390624,0.0007505904650315642,-0.0001294235698878765,-0.00019007129594683647
1761412816110157800,9.46015771484375,-0.0031801327131688595,-0.000046510715037584305,-0.00031195604242384434
1761412816120170800,9.470170654296876,0.0008273918647319078,0.00004669977352023125,-0.0019572570454329252
1761412816130184000,9.480183837890625,0.0014600944705307484,-0.0002470896579325199,0.00018574553541839123
1761412816140196900,9.49019677734375,0.0014750082045793533,-0.0014540343545377254,0.0012163890060037374
1761412816150209800,9.500209716796874,0.0008722510538063943,-0.001180671388283372,0.001633962383493781
1761412816160222700,9.51022265625,0.0007137929205782712,-0.0016421971376985312,0.0010459364857524633
1761412816170236000,9.52023583984375,0.0010985371191054583,-0.001918009016662836,-0.0007589538581669331
1761412816180248800,9.530248779296874,-0.00035315193235874176,0.0006101299077272415,-0.0027062571607530117
1761412816190261800,9.54026171875,0.0006038477877154946,-0.000336693599820137,-0.001727480674162507
1761412816200274700,9.550274658203126,0.0027719272766262293,-0.0023071663454174995,0.0010150426533073187
1761412816210287900,9.560287841796875,0.0013077700277790427,0.0017135869711637497,0.004354517906904221
1761412816220300800,9.57030078125,-0.000839270418509841,0.0009828158654272556,-0.0018320049857720733
1761412816230313700,9.580313720703124,0.0008797540212981403,0.002967381849884987,-0.00035443948581814766
1761412816240327000,9.590326904296875,0.0015340924728661776,-0.0010321536101400852,0.0002983014564961195
1761412816250339800,9.60033984375,-0.00021418373216874897,-0.0003862394951283932,-0.0013778842985630035
1761412816260352800,9.610352783203124,-0.00099848466925323,-0.0015497743152081966,0.0023817000910639763
1761412816270365700,9.62036572265625,0.0007978124194778502,-0.00020195823162794113,0.0010976840276271105
1761412816280379000,9.63037890625,0.0019506949465721846,-0.0005862521938979626,-0.0028350059874355793
1761412816290391800,9.640391845703125,-0.0020283465273678303,-0.0028031852561980486,-0.0031537306495010853
1761412816300404700,9.65040478515625,-0.001280797179788351,-0.0018401860725134611,0.00012302258983254433
1761412816310418000,9.66041796875,-0.0017623866442590952,0.0000568111427128315,0.0008414788171648979
1761412816320430800,9.670430908203125,-0.00047341675963252783,-0.0011160450521856546,-0.00014415709301829338
1761412816330443800,9.68044384765625,0.0017793512670323253,0.001287671271711588,0.00002885865978896618
1761412816340456700,9.690456787109374,-0.0013570536393672228,0.003335908055305481,-0.0018952750833705068
1761412816350470000,9.700469970703125,0.0005403688410297036,0.002768914680927992,0.0005109615158289671
1761412816360482800,9.71048291015625,0.00019522319780662656,-0.000169350765645504,0.005253784824162722
1761412816370495700,9.720495849609375,0.0006654509343206882,-0.0006166337989270687,0.0029275480192154646
1761412816380509000,9.730509033203125,0.0003051251987926662,0.0009594252333045006,-0.0013968930579721928
1761412816390521900,9.74052197265625,0.0026770541444420815,0.0022225198335945606,-0.0011070634936913848
1761412816400534800,9.75053466796875,-0.0010596272768452764,0.0009804214350879192,-0.0010591266909614205
1761412816410547700,9.760547607421875,-0.0009478115243837237,0.0005324510857462883,-0.0006418939447030425
1761412816420561700,9.770561767578124,0.001056217122823,-0.0003248206339776516,0.0010335005354136229
1761412816430573800,9.78057373046875,-0.0005369659047573805,0.0012668981216847897,-0.0012572059640660882
1761412816440587800,9.790587890625,0.0021935731638222933,-0.0008585704490542412,-0.0012047416530549526
1761412816450601000,9.80060107421875,0.00003604491939768195,-0.0004010545089840889,-0.0001148083247244358
1761412816460613600,9.810613525390625,0.0031471496913582087,-0.0006990619003772736,0.001265241764485836
1761412816470626800,9.820626708984374,0.0006293135229498148,0.00084714125841856,0.0012336866930127144
1761412816480640000,9.830639892578125,0.00003409705823287368,0.0011797701008617878,0.00009731575846672058
1761412816490652700,9.840652587890625,0.00040785473538562655,-0.0011166168842464685,-0.0032639536075294018
1761412816500665900,9.850665771484374,-0.000489097903482616,0.000996867660433054,0.00015394738875329494
1761412816510678800,9.8606787109375,-0.001454536453820765,0.0007600579410791397,0.0009567521046847105
1761412816520692000,9.87069189453125,-0.0003093771811109036,0.00026151444762945175,-0.0008411478484049439
1761412816530704600,9.88070458984375,-0.0007740166038274765,-0.0018512436654418707,0.0034847871866077185
1761412816540717800,9.8907177734375,-0.00000409671338275075,-0.0003215237520635128,-0.0004404461942613125
1761412816550730800,9.900730712890624,-0.0022236118093132973,0.0016174591146409512,-0.001553898910060525
1761412816560744000,9.910743896484375,-0.0004560718953143805,-0.0021336034405976534,-0.0028412709943950176
1761412816570756900,9.9207568359375,-0.0005862716934643686,0.0027410578913986683,0.003011743538081646
1761412816580769800,9.930769775390624,-0.00112236593849957,0.001284575555473566,-0.00016514118760824203
1761412816590783000,9.940782958984375,-0.0002577834820840508,-0.001235160045325756,-0.0009211055003106594
1761412816600795600,9.950795654296876,-0.0020013549365103245,-0.0004452662542462349,-0.0027834540233016014
1761412816610808800,9.960808837890625,-0.0013158817309886217,0.000507330521941185,-0.0016843518242239952
1761412816620821800,9.97082177734375,-0.0008737969910725951,-0.0018378493841737509,-0.0014430694282054901
1761412816630835000,9.9808349609375,-0.0012695426121354103,0.0022698258981108665,-0.0027014422230422497
1761412816640848000,9.990847900390625,-0.0020218854770064354,0.003940160386264324,0.00044002244248986244
1761412816650860800,10.00086083984375,-0.0009498279541730881,0.0008345302194356918,0.0007596672512590885
1761412816660874000,10.0108740234375,0.0015274444594979286,-0.0009854738600552082,-0.0007966841803863645
1761412816670886700,10.02088671875,0.0005710347322747111,0.00013935938477516174,0.00008273334242403507
1761412816680899800,10.03089990234375,-0.0003211241855751723,-0.00002069678157567978,-0.0022406084463000298
1761412816690912800,10.040912841796874,-0.00034412683453410864,0.0007278765551745892,0.002111908281221986
1761412816700926000,10.050926025390625,-0.0001885982055682689,-0.0007592323236167431,-0.001808797474950552
1761412816710939000,10.06093896484375,0.00047147844452410936,0.0006552329286932945,-0.0005751709686592221
1761412816720951800,10.070951904296875,0.0009479179279878736,-0.0010457278694957495,-0.0005381531082093716
1761412816730965000,10.080965087890625,-0.0009605105733498931,0.0010915733873844147,0.0005274764262139797
1761412816740977700,10.090977783203124,-0.000528812175616622,0.0011592176742851734,0.0009522505570203066
1761412816750990800,10.100990966796875,0.002076029544696212,0.0005904189310967922,0.0002831874880939722
1761412816761003800,10.111003662109376,0.0022091877181082964,0.0015486241318285465,-0.0011906058061867952
1761412816771017000,10.121016845703124,-0.0012251096777617931,0.002079386729747057,-0.002568380208685994
1761412816781030000,10.13102978515625,-0.002084778156131506,-0.002215493004769087,0.0005235497374087572
1761412816791042800,10.141042724609376,-0.0021611410193145275,-0.0015455258544534445,0.0006896948907524347
1761412816801056800,10.151056884765625,0.0026525226421654224,-0.0009308680891990662,-0.00029407674446702003
1761412816811069700,10.161069580078125,-0.0019134536851197481,0.000593193806707859,-0.00026343856006860733
1761412816821083000,10.171082763671874,-0.0012340813409537077,0.0022544735111296177,-0.0008850204758346081
1761412816831095800,10.181095703125,-0.0015152508858591318,0.00040023960173130035,-0.0005153486272320151
1761412816841108700,10.191108642578126,0.0005558895063586533,0.00029131630435585976,-0.001723092282190919
1761412816851122000,10.201121826171875,0.0003057574504055083,0.00040876399725675583,-0.0013339282013475895
1761412816861134800,10.211134765625,0.000013874960131943226,-0.0005409191362559795,0.0028602839447557926
1761412816871147800,10.221147705078126,-0.000814855913631618,-0.0006605335511267185,0.0025441793259233236
1761412816881160700,10.23116064453125,0.0005510793416760862,-0.001103950198739767,0.00288266665302217
1761412816891174000,10.241173828125,-0.0010908051626756787,0.00042739836499094963,0.0010411965195089579
1761412816901186800,10.251186767578124,-0.00045111385406926274,0.000890255905687809,0.0007842015475034714
1761412816911199700,10.26119970703125,0.0006269504083320498,0.0017756796441972256,0.0027586438227444887
1761412816921213000,10.271212890625,-0.007933514192700386,0.03431178629398346,0.07517718523740768
1761412816931225900,10.281225830078125,-0.0007887504762038589,0.021360762417316437,0.09372664988040924
1761412816941238800,10.29123876953125,-0.009114590473473072,0.0167393796145916,0.03693420812487602
1761412816951251700,10.301251708984376,0.002202846109867096,0.013983042910695076,-0.006749630905687809
1761412816961265000,10.311264892578125,0.000898163765668869,-0.02474038489162922,-0.045449621975421906
1761412816971277800,10.32127783203125,0.004061974585056305,-0.04097551107406616,-0.07372467964887619
1761412816981290800,10.331290771484374,0.0074021113105118275,-0.018072327598929405,-0.0714346244931221
1761412816991304000,10.341303955078125,0.0014607039047405124,0.009065259248018265,-0.035458844155073166
