time,seconds_elapsed,z,y,x
1761413452401792300,0.071792236328125,0.06089022977054119,-0.14597400321830062,-0.18310469681471586
1761413452411805400,0.081805419921875,0.03137362790703773,-0.15140658619366584,-0.13735256107375024
1761413452421819400,0.0918193359375,-0.028811083942651746,-0.12834544407986104,-0.117098146943748
1761413452431832300,0.101832275390625,-0.08028057441711425,-0.09349953695237637,-0.1319617348808795
1761413452441845500,0.111845458984375,-0.10576631332933902,-0.08550861126370728,-0.07766030891612172
1761413452451859500,0.121859375,-0.11555179428458213,-0.06732358728628605,-0.05098857508972287
1761413452461872400,0.131872314453125,-0.13138883036375046,-0.049999198726192115,-0.05892134085036814
1761413452471886300,0.14188623046875,-0.12568448124229908,-0.015163739927485584,-0.06363631360828877
1761413452481899300,0.151899169921875,-0.0870405700713396,-0.037230792970024046,-0.07166749824211001
1761413452491913200,0.161913330078125,-0.03059387570619583,-0.08454586717877537,-0.08017455675937235
1761413452501926400,0.171926513671875,-0.035704350587725635,-0.11860577502772211,-0.08147811363860964
1761413452511940400,0.1819404296875,-0.08203355556428432,-0.11958397241011261,-0.12918693640530107
1761413452521951700,0.19195166015625,-0.12291092487573622,-0.09691632312592119,-0.13629654921479523
1761413452531964700,0.201964599609375,-0.13870003015995025,-0.1082221455162391,-0.09281228534057735
1761413452541979000,0.211978759765625,-0.15357143607735632,-0.09350055986568331,-0.058993529303744435
1761413452551991800,0.22199169921875,-0.11632920839786529,-0.04909340899288654,-0.06041567106135189
1761413452562005800,0.232005859375,-0.061390580508112906,-0.03886434898860752,-0.017339841857552527
1761413452572019000,0.24201904296875,-0.03749883278906345,-0.05130728565007448,0.0387359003033489
1761413452582032600,0.25203271484375,-0.01888999390900135,-0.043676936902105806,0.025084391569718718
1761413452592045800,0.2620458984375,0.0007066869646310806,-0.043661958528682585,0.031603052748739716
1761413452602059800,0.272059814453125,0.0003267477363348007,-0.051351270922273394,0.04373597361296415
1761413452612072700,0.28207275390625,0.02906885809600353,-0.05367814296726137,0.0674899933617562
1761413452622086000,0.2920859375,0.07620411875844,-0.08235942651778459,0.05550758688412606
1761413452632099800,0.302099853515625,0.09417465973496436,-0.09585709639657289,0.06871946209147572
1761413452642112800,0.31211279296875,0.05729775823652744,-0.09310261005666107,0.04220752193666994
1761413452652126700,0.322126708984375,0.004380407041311264,-0.07730513880290091,0.02683430397696793
1761413452662140000,0.332139892578125,-0.05507423696815967,-0.06183996824342757,0.02742825128212571
1761413452672153600,0.342153564453125,-0.04087444670200348,-0.03550367691647261,0.018155542154610155
1761413452682166800,0.352166748046875,-0.005997779110074043,-0.02573682759646326,0.04906513274647295
1761413452692181000,0.362180908203125,0.0306996741682291,-0.03846110194995999,0.08385024959743022
1761413452702193700,0.372193603515625,0.05107727628648281,-0.024291670289449393,0.05997494155652821
1761413452712206800,0.382206787109375,0.025430209332704543,-0.009631313306838274,0.027638898358121514
1761413452722220500,0.392220458984375,-0.02652618787586689,-0.004738390166126191,-0.019613997334614396
1761413452732233700,0.402233642578125,-0.023405425506830214,-0.028883308928646146,-0.032286139642074704
1761413452742248000,0.412248046875,-0.012674188134074211,-0.051256066919490695,-0.02319090597331524
1761413452752260600,0.422260498046875,0.028667291557788847,-0.05098857508972287,-0.0011695552360266447
1761413452762274800,0.43227490234375,0.08512450731694698,-0.045305780212953686,0.010470467544719576
1761413452772287700,0.442287841796875,0.11599369283318518,-0.02649210294317454,0.0026173428915441037
1761413452782300700,0.45230078125,0.14602935013473034,-0.03808229523282498,0.03723119482882321
1761413452792315000,0.46231494140625,0.17457623018324375,-0.016048998329415917,0.026272286180034278
1761413452802327800,0.472327880859375,0.1390717860817909,-0.018265943726524708,0.008059607010707258
1761413452812341800,0.482341796875,0.07229775896966457,-0.02465316054560244,-0.03549611466452479
1761413452822354700,0.492354736328125,0.03238017460107803,-0.008305033139139413,-0.06999605789855122
1761413452832369000,0.502368896484375,0.004663315635919571,0.020457535486668347,-0.047641748879849906
1761413452842381800,0.5123818359375,-0.00019289222359657285,0.024172793150134382,-0.05745755190812051
1761413452852395800,0.522395751953125,0.021598083823919294,0.01769888442829251,-0.07736169129572808
1761413452862409000,0.532408935546875,0.06627250733077526,0.00067866644654423,-0.08487323596961796
1761413452872421600,0.542421630859375,0.0874368759125471,-0.03694887075610458,-0.10333126820214092
1761413452882435800,0.552435791015625,0.11578443399667739,-0.0550454127324745,-0.10783749358020722
1761413452892448800,0.56244873046875,0.16036358043551444,-0.05018463829569518,-0.0843610486637801
1761413452902462700,0.572462646484375,0.18894611631929872,-0.07743651009760796,-0.06365428765639662
1761413452912476000,0.582475830078125,0.1722515866279602,-0.08528715053275226,-0.03252119050696492
1761413452922489900,0.59248974609375,0.12774199829399585,-0.12011617959067225,-0.07367028943188487
1761413452932502800,0.602502685546875,0.09106851041316985,-0.14366598200425504,-0.16250906803160906
1761413452942516700,0.612516845703125,0.06799743142724037,-0.16254202045314012,-0.17288783870488406
1761413452952529700,0.62252978515625,0.08756488620638847,-0.16874343237653375,-0.10388707545399666
1761413452962542800,0.63254296875,0.1273380936682224,-0.13670089223198592,-0.04977810332141816
1761413452972556800,0.642556884765625,0.174887195828557,-0.11970533376745879,0.03932444078102708
1761413452982569700,0.65256982421875,0.200516142603755,-0.15046156042851508,0.10816599488221108
1761413452992583700,0.662583740234375,0.19518588749170301,-0.15629428516998886,0.20678974298052488
1761413453002596900,0.672596923828125,0.17653613207936286,-0.13964848999120294,0.2471414079174399
1761413453012610600,0.682610595703125,0.17204875753223894,-0.10807217911891638,0.28115634411349893
1761413453022623700,0.692623779296875,0.1715454841852188,-0.10101904573701322,0.3278802474960685
1761413453032638000,0.702637939453125,0.14201836092770098,-0.11840575894359498,0.3136525463096797
1761413453042650600,0.712650634765625,0.059879591423273086,-0.10417612152844667,0.17655045286566018
1761413453052663800,0.722663818359375,-0.13490882118344305,-0.122698049310036,0.0016870763041079043
1761413453062677800,0.732677734375,-0.25528525914549827,-0.1413392195571214,-0.011936959900707006
1761413453072690700,0.742690673828125,-0.28531390218436714,-0.15027096975985912,-0.012141031105443834
1761413453082705000,0.752704833984375,-0.28053485121428967,-0.12759115511383862,-0.0051707537014037365
1761413453092717800,0.7627177734375,-0.21564707624018192,-0.07201693273428827,0.043090223055332895
1761413453102731800,0.772731689453125,-0.14129764543771742,-0.017876834811083972,0.14047018163762987
1761413453112744700,0.78274462890625,-0.05364508094787598,0.01904660924281925,0.17227401765547692
1761413453122757600,0.792757568359375,0.0565893177062273,0.05920413984712213,0.2592800278700888
1761413453132771800,0.802771728515625,0.16379823105931282,0.05628949450943619,0.27919878030493855
1761413453142784800,0.81278466796875,0.25814941640496253,0.05153612596988678,0.31304581258818504
1761413453152799000,0.822799072265625,0.26790742483139035,0.03984831852465868,0.30297734997309744
1761413453162811600,0.832811767578125,0.16846388478279112,-0.011885229713469742,0.21613412910476326
1761413453172825900,0.842825927734375,0.05618073690533638,-0.07519600116182118,0.09084931470453739
1761413453182838800,0.8528388671875,0.01486146904528141,-0.10195091975964606,0.014182766066119073
1761413453192852700,0.862852783203125,0.03589022854864597,-0.0864207942051813,0.03331862449496984
1761413453202866000,0.872865966796875,0.10934358729422092,-0.07617660969700664,0.02867890893034637
1761413453212878600,0.882878662109375,0.19219255089461804,-0.06054013769123703,0.05485694095566868
1761413453222892800,0.892892822265625,0.20556874981820583,-0.054870969481021166,0.015869038652628658
1761413453232906000,0.902906005859375,0.197063956323266,-0.0425826023267582,-0.013706746052205562
1761413453242919700,0.912919677734375,0.13399579799175262,-0.018623451927304267,-0.033198286050930614
1761413453252932900,0.922932861328125,0.055581017446517944,-0.023263313622400163,-0.04513159268982708
1761413453262946800,0.93294677734375,-0.013096212938427925,-0.0264027076266706,-0.10143763647526502
1761413453272959700,0.942959716796875,-0.044297991409897805,0.012253588101826607,-0.13056180495508016
1761413453282973700,0.9529736328125,-0.046993806365132326,0.011869849481247365,-0.0780794841762632
1761413453292987000,0.96298681640625,-0.020502689802646634,0.025096593464165925,-0.04058335480093956
1761413453302999800,0.972999755859375,-0.00942775355875492,0.0014811419358476995,-0.03775580322481692
1761413453313013800,0.983013671875,0.04182721738219261,-0.020022979994304475,-0.020776830568909645
1761413453323027000,0.99302685546875,0.10012976874709129,0.031112529285438357,0.03790441791526973
1761413453333040600,1.00304052734375,0.09377893841564655,0.05446892801877111,0.04747910566404462
1761413453343053800,1.0130537109375,0.08638590555489063,0.01162171993907541,0.01152808683887124
1761413453353067800,1.02306787109375,0.058066989043354986,-0.003178958829678595,-0.028498218601197004
1761413453363080700,1.033080810546875,0.04182663286030292,-0.02666384278088808,-0.04730177633576095
1761413453373094000,1.043093994140625,0.06452303331494331,-0.0318594386626035,-0.043434725644066925
1761413453383107600,1.053107666015625,0.11976795067489146,-0.029229163224250076,-0.013421499370038508
1761413453393120800,1.063120849609375,0.1749830574184656,-0.016617555464990438,0.02829188237413764
1761413453403134700,1.073134765625,0.19064006075561046,0.015971110787615178,0.04445237825401127
1761413453413147600,1.083147705078125,0.16113690289556978,-0.005850844920054078,0.051006110746413466
1761413453423161900,1.093161865234375,0.09007248511314392,-0.0012399535911157727,0.059309682580828665
1761413453433174800,1.1031748046875,0.019085808742046354,0.012749006935954094,0.04953633045479655
1761413453443188700,1.113188720703125,0.027676526954770086,0.02828603715524077,0.08424670156911016
1761413453453201700,1.12320166015625,0.020638298881053924,0.07233765258863568,0.04484926861710846
1761413453463214800,1.13321484375,0.004957330146431922,0.05572404264640063,0.07222294016778469
1761413453473228800,1.143228759765625,0.03551145836412906,0.04620747829303145,0.09841660815365612
1761413453483241700,1.15324169921875,0.06369418127536773,0.03361212754882872,0.13201602235138415
1761413453493256000,1.163255859375,0.0645931759417057,0.019690752365253864,0.11409516573548316
1761413453503268600,1.1732685546875,0.055174190211296076,0.033653153678961094,0.10509835093989968
1761413453513282800,1.18328271484375,0.0433048887193203,0.012880341698043047,0.06494995349012316
1761413453523295700,1.193295654296875,-0.0018470891714096069,-0.012209054840356112,0.034769188629463314
1761413453533308400,1.203308349609375,-0.002897475007176399,-0.012759637927822767,0.008298676463589071
1761413453543322600,1.213322509765625,0.004637012150883675,-0.03076346011944115,-0.0009165303230285644
1761413453553335600,1.22333544921875,0.030111645147204397,-0.07017499466203153,0.012043635145574808
1761413453563349500,1.233349609375,0.06489478923678398,-0.10264544136244803,0.044343584117293354
1761413453573362700,1.24336279296875,0.10685878474116325,-0.1194272474784404,0.07228840661942959
1761413453583376400,1.25337646484375,0.17711013257503508,-0.14532529351860285,0.0906758578337729
1761413453593389600,1.2633896484375,0.19393442612588405,-0.20056918796524403,0.11032353824228047
1761413453603402500,1.273402587890625,0.17250117747485635,-0.22621592612545935,0.07371310566030442
1761413453613416400,1.28341650390625,0.11662030029892921,-0.2377102933578193,0.033893428708240386
1761413453623429600,1.2934296875,0.06293664090633391,-0.24676208974365144,-0.017859920208901165
1761413453633443600,1.303443603515625,-0.0060977323532104485,-0.22731632511541247,-0.02092215732373297
1761413453643456500,1.31345654296875,-0.045837622067332266,-0.18104571845829487,-0.006967866251245141
1761413453653470500,1.323470458984375,-0.09166180013120175,-0.1313425435366109,-0.025032734447717666
1761413453663483600,1.333483642578125,-0.13122107258141041,-0.08732906815651803,-0.021991540120914577
1761413453673497300,1.343497314453125,-0.18559388328194618,-0.05649031431116163,-0.025059403258934614
1761413453683510500,1.353510498046875,-0.20273089604377745,-0.049307453602366144,-0.01790273643732071
1761413453693523700,1.363523681640625,-0.18330431104004383,-0.020963950638845562,-0.005050196061655879
1761413453703537400,1.373537353515625,-0.17631868993639946,0.014216668335720896,0.011728577847033739
1761413453713550600,1.383550537109375,-0.14632453368902207,0.028067791294679043,-0.0006012538287788629
1761413453723564500,1.393564453125,-0.12488953147232532,0.04111406414415687,-0.014880904398113489
1761413453733577500,1.403577392578125,-0.09442308153808117,0.07141882071066648,-0.016539046868681906
1761413453743591400,1.41359130859375,-0.05537351217567921,0.0703975513715297,-0.008020517109334468
1761413453753604400,1.423604248046875,0.009701309803128243,0.052643100831098855,0.0020102438438683746
1761413453763617500,1.433617431640625,0.020869185027480124,-0.0007983473034575582,-0.010524681949988008
1761413453773631500,1.443631591796875,0.007928454911708831,0.01971833449192345,-0.020090017348527906
1761413453783644400,1.45364453125,0.00234627086520195,0.01653433416094631,-0.01861928720884025
1761413453793658400,1.463658447265625,-0.004231353959441185,0.003207308141328394,0.006184679984301328
1761413453803671600,1.473671630859375,0.03310615078806877,-0.009217216080613435,0.020355098025500774
1761413453813685500,1.483685546875,0.10074059412181377,-0.025535131011903283,0.0476666641253978
1761413453823698400,1.493698486328125,0.17140402988791464,-0.05754285557139664,0.053714346791803834
1761413453833711600,1.503711669921875,0.223328862914443,-0.09504636453557759,0.0667494041275233
1761413453843725600,1.5137255859375,0.20753975763022897,-0.10428265064284205,0.07458082840554416
1761413453853738500,1.523738525390625,0.19248072018623352,-0.12208806418552993,0.044885070582851766
1761413453863752700,1.533752685546875,0.16015549064278603,-0.10907145582195371,0.01797032178081572
1761413453873765400,1.543765380859375,0.13994564630687237,-0.10473846811894327,-0.00016717326045036316
1761413453883779600,1.553779541015625,0.11898819847404957,-0.10201788404863327,0.006693140963092446
1761413453893792500,1.56379248046875,0.09700842185616493,-0.09035849898029118,0.02229256889410317
1761413453903805400,1.573805419921875,0.08660743935108184,-0.09152107648625969,0.032786417314410204
1761413453913819600,1.583819580078125,0.008756137907505035,-0.0987053984997794,0.021106354784220457
1761413453923832300,1.593832275390625,-0.044697804382443425,-0.09779537098277359,0.017232435960322617
1761413453933846500,1.603846435546875,-0.08099076851308346,-0.11852638964857905,0.022000454079732296
1761413453943859500,1.613859375,-0.08519698803126811,-0.1048567972689867,-0.012862038856372236
1761413453953873700,1.623873779296875,-0.048936172604560846,-0.10382098794784396,-0.014894932923465967
1761413453963886600,1.633886474609375,-0.028390812703967094,-0.129292259943299,-0.010213716304674743
1761413453973899500,1.6438994140625,0.003108487409353256,-0.13536515011619776,-0.038695787488669156
1761413453983913500,1.65391357421875,0.03102466833889484,-0.13464900120347736,-0.03499627538360655
1761413453993926400,1.663926513671875,0.03251286107003688,-0.1259154769865796,0.0044376171212643385
1761413454003940600,1.673940673828125,0.003945522755384445,-0.1083004714494571,0.02055792712122202
1761413454013953500,1.68395361328125,-0.04627309087514877,-0.08609375420790165,0.017888196455314753
1761413454023967500,1.693967529296875,-0.11002689338326453,-0.057895066542550916,-0.003715513391792774
1761413454033980700,1.703980712890625,-0.1261614511042833,-0.02665554987657815,-0.007587532519549131
1761413454043994400,1.713994384765625,-0.13306991531848908,-0.023362499680556356,-0.006952522551640868
1761413454054007600,1.724007568359375,-0.08317220420539378,-0.010148286385647952,-0.02231310022547841
1761413454064020700,1.734020751953125,-0.028870705175399778,-0.025181056877225636,-0.005419394700229167
1761413454074034400,1.744034423828125,0.02832476173043251,-0.011611563871242105,0.02155344096459448
1761413454084047600,1.754047607421875,0.0524935728251934,-0.0031657705545425413,0.02993533873222768
1761413454094061600,1.7640615234375,0.07034136420488357,-0.010324629333242774,0.03144683927372098
1761413454104074500,1.774074462890625,0.049932782426476474,-0.017568207253329454,0.003758841076865792
1761413454114088400,1.78408837890625,0.031163200026750562,-0.03183171040546149,-0.025968553993105888
1761413454124101600,1.7941015625,0.03213116827607155,-0.05749974708203226,-0.021874270416796206
1761413454134114600,1.804114501953125,0.021540216156840323,-0.06150858086459338,-0.03884674026668072
1761413454144128500,1.81412841796875,0.025955694511532783,-0.06336217284202575,-0.0661385056875646
1761413454154141400,1.824141357421875,0.052020694616436956,-0.0485469540912658,-0.07571852719858288
1761413454164155400,1.8341552734375,0.05291852023899555,-0.04859126815702766,-0.07260594813600182
1761413454174168600,1.84416845703125,0.028829204121232032,-0.04639485409129411,-0.0847283476062119
1761413454184182500,1.8541826171875,0.019796587359905242,-0.056294280282407995,-0.11700557328946888
1761413454194195500,1.864195556640625,0.02004968533813953,-0.06207947608772665,-0.11379530600607395
1761413454204208600,1.874208740234375,0.020429624566435812,-0.06816613905765116,-0.11975618717186153
1761413454214222300,1.884222412109375,0.02406710428595543,-0.0647362742068246,-0.11110336350835859
1761413454224235500,1.894235595703125,0.07316226684451103,-0.05326605503503233,-0.0818923204626888
1761413454234249500,1.90424951171875,0.06848083103001117,-0.029271796789579092,-0.05910838785506785
1761413454244262400,1.914262451171875,0.07001870812177657,-0.03962926894649863,-0.050697921580076216
1761413454254276600,1.924276611328125,0.09017945261895656,-0.007188011807948351,-0.05453815733008086
1761413454264289500,1.93428955078125,0.10173369681239128,-0.006619125878810883,-0.023236206419765947
1761413454274302500,1.944302490234375,0.061627896395325656,0.004675517530366778,-0.025283786599338054
1761413454284316400,1.95431640625,-0.0027069208711385725,0.026061164180003104,-0.062069575748220085
1761413454294329600,1.96432958984375,-0.04673895482122898,0.027911870080605146,-0.0547598372567445
1761413454304343600,1.974343505859375,-0.02783668595254421,0.05956723753847182,-0.030993688678741454
1761413454314356500,1.9843564453125,-0.021115268743038176,0.06962601900976151,-0.033278877006471155
1761413454324370700,1.99437060546875,0.04053250139653682,0.041992856272682545,-0.02902458056285977
1761413454334383400,2.00438330078125,0.09735679690241814,0.04266659081578254,-0.023084230728447435
1761413454344396500,2.014396484375,0.1367635091394186,0.016327194216288626,-0.004673983160406351
1761413454354410500,2.024410400390625,0.11794190429151058,0.033879363650269806,-0.006068067867308855
1761413454364423400,2.03442333984375,0.10403437497019767,0.034797537941113114,-0.04162687250450253
1761413454374437600,2.044437744140625,0.10894669693112373,0.03319708047453314,-0.03209945796355605
1761413454384450600,2.054450439453125,0.10602934817969799,0.04577135189808905,-0.012481149780005215
1761413454394463500,2.06446337890625,0.09624386722445487,0.05195278047937899,-0.02454670449644327
1761413454404477700,2.074477783203125,0.08169102573692798,0.04185096358396113,-0.037454555255919696
1761413454414490400,2.084490478515625,0.0925654709726572,0.003501505314931273,-0.06140519355535507
1761413454424504600,2.094504638671875,0.09394611167609691,-0.0433784654121846,-0.08279803713075816
1761413454434517500,2.104517578125,0.0844786106288433,-0.04635010163411498,-0.09910437122210859
1761413454444531500,2.114531494140625,0.06746960816085339,-0.04583948523085564,-0.09409026938714087
1761413454454544600,2.124544677734375,0.07229542088210582,-0.04286854312866926,-0.0799399442858994
1761413454464557300,2.134557373046875,0.047749008646607395,-0.04437474644053727,-0.07093385020531713
1761413454474571500,2.144571533203125,0.054330725124478334,-0.045802952612750227,-0.04395334269069135
1761413454484584400,2.15458447265625,0.09527940610647201,-0.06499846880696714,-0.02096994198821485
1761413454494598700,2.1645986328125,0.13250000647604465,-0.0798177792109549,0.0021283903308212757
1761413454504611600,2.174611572265625,0.1615770478785038,-0.09559716681875288,-0.007050868359580635
1761413454514625500,2.18462548828125,0.10226093555688857,-0.11375742168109863,-0.004325169722735882
1761413454524639200,2.19463916015625,0.03461772439479828,-0.10611892615929246,-0.041046515333279965
1761413454534652000,2.20465185546875,-0.004504910203814506,-0.10285780547149478,-0.06475757272318006
1761413454544666000,2.214666015625,-0.052432782548666,-0.09582560527976602,-0.034983123641088604
1761413454554679000,2.224678955078125,-0.053473816034197805,-0.064758595636487,-0.011511866356432436
1761413454564693200,2.234693359375,-0.03629237960875034,-0.04948544051777571,0.001914382253959775
1761413454574706200,2.2447060546875,-0.04489186564981937,-0.04312149497643113,0.011175254813209176
1761413454584720100,2.25472021484375,-0.035168928536772726,-0.043411235170625145,0.029694150387495753
1761413454594733000,2.264733154296875,-0.03428220883011818,-0.05151285469215363,0.04427599877379834
1761413454604746000,2.27474609375,-0.02843056019246578,-0.05541490363199263,0.05728694458156824
1761413454614760200,2.28476025390625,-0.012544424274563789,-0.09715995915606618,0.06812909498289227
1761413454624773000,2.294773193359375,0.010413257464766502,-0.09007719782087951,0.06876673529930412
1761413454634787000,2.304787109375,0.02897650363743305,-0.10631897877603769,0.05690978183224797
1761413454644800300,2.31480029296875,0.0354272872120142,-0.09979593368284403,0.0485226964328438
1761413454654814000,2.32481396484375,0.010097615644335747,-0.08616203367114067,0.06031359892636537
1761413454664827100,2.3348271484375,-0.02270925993621349,-0.07281553576607257,0.0521553538467735
1761413454674840300,2.34484033203125,-0.0655471156656742,-0.04708977755289524,0.05193761944286525
1761413454684854000,2.35485400390625,-0.07067687976956367,-0.04027706533074379,0.03173318193443119
1761413454694867200,2.3648671875,-0.06721300305128097,-0.01620773255508393,0.04097345009706914
1761413454704881200,2.374881103515625,-0.04854395841658115,-0.010898008774407207,0.05570997758843004
1761413454714894000,2.38489404296875,-0.03443418452143669,-0.017772716849483547,0.05173581326045096
1761413454724908000,2.394907958984375,-0.013258710023760795,-0.03206551916133612,0.047405090579763054
1761413454734921200,2.404921142578125,0.029415479576587675,-0.02370583322551101,0.03474675760194659
1761413454744934100,2.41493408203125,0.06800093855857849,-0.053251332389935846,0.026977804100885985
1761413454754948000,2.424947998046875,0.08961421995162963,-0.043497342551499604,0.024693638686463234
1761413454764961000,2.4349609375,0.12687924398481845,-0.05917385430671274,0.020265812306851146
1761413454774975000,2.44497509765625,0.11063596519231796,-0.05856682832427323,0.037045097672194244
1761413454784988200,2.45498828125,0.0699830522865057,-0.06085760614257305,0.01891841628588736
1761413454795001000,2.4650009765625,0.07594809817075729,-0.06062533175665885,0.015861439868062734
1761413454805015000,2.47501513671875,0.10071487515866756,-0.055037960078381,0.006177227330207824
1761413454815028200,2.4850283203125,0.12796528565585613,-0.06065053926315158,0.016332783706858752
1761413454825042000,2.4950419921875,0.13137597088217734,-0.04331095313392579,0.03444317154549062
1761413454835055000,2.50505517578125,0.10987959386706352,-0.04995674782395362,0.03433934584483504
1761413454845069000,2.515069091796875,0.1002250458151102,-0.05509612000640481,0.041068727165088054
1761413454855082000,2.52508203125,0.0972930840164423,-0.044714682452008124,0.03827522398903966
1761413454865095200,2.53509521484375,0.10685936926305294,-0.052245772076584394,0.03779869251847267
1761413454875109000,2.545109130859375,0.0833113204151392,-0.03983542251046747,0.005116393165662885
1761413454885122000,2.5551220703125,0.06918576442897319,-0.03651515551395714,0.011509674399346113
1761413454895136000,2.565135986328125,0.04932721774876117,-0.042546252371743316,-0.005174918419867754
1761413454905149200,2.575149169921875,0.012598200288414954,-0.03066686787717044,-0.008068740165233611
1761413454915163100,2.5851630859375,0.022890461722016333,-0.0026944267157465217,-0.01643551342897117
1761413454925176000,2.595176025390625,0.015080664753913878,0.0003087006229907274,-0.030166590204834937
1761413454935189000,2.60518896484375,0.0028752631753683087,0.0029766411906108257,-0.03249079536870122
1761413454945203000,2.615202880859375,0.006784545573592185,-0.006300451851077377,-0.04567994728758931
1761413454955216100,2.625216064453125,0.007227613165974617,0.029200850445218383,-0.04586195279099047
1761413454965230300,2.635230224609375,-0.003406593573093414,0.01375095052011311,-0.03946173035986721
1761413454975243000,2.645242919921875,-0.009508417579531669,-0.012371259664744137,-0.07431874340325594
1761413454985257200,2.65525732421875,0.011237433329224587,-0.0004291486648842692,-0.07832666387036442
1761413454995270000,2.665269775390625,0.03371756068468094,-0.007679704315029084,-0.05697554054483771
1761413455005283000,2.675282958984375,0.09135083448588847,-0.01145571572240442,-0.03142557728998363
1761413455015297300,2.68529736328125,0.11779986547231673,-0.009047302873805165,-0.033397096558660265
1761413455025310000,2.69531005859375,0.11659107420444488,-0.033051351860910655,-0.026056524537503716
1761413455035324200,2.70532421875,0.1393032567501068,-0.06099555330853909,-0.016016338168829677
1761413455045337000,2.715337158203125,0.1226291853249073,-0.07674962381199002,-0.044530850317701695
1761413455055350000,2.72535009765625,0.15660393564105032,-0.08184062680806964,-0.04027195076420903
1761413455065364200,2.7353642578125,0.18677812463045118,-0.08532832279335707,-0.0010461480520665646
1761413455075377200,2.745377197265625,0.18039631463885306,-0.08037921248599886,0.008067205795273185
1761413455085391000,2.75539111328125,0.1802823328703642,-0.07524619697909801,0.009116568717733024
1761413455095404000,2.765404052734375,0.160164842993021,-0.07927066672220826,0.028111557371169327
1761413455105418200,2.775418212890625,0.13005495141148565,-0.06655019176099448,0.024486717937514186
1761413455115431200,2.78543115234375,0.07092354800701141,-0.05828348133824765,-0.010395064220950007
1761413455125444000,2.795444091796875,-0.006197101074457168,-0.053945963590592144,-0.02527918348945677
1761413455135458000,2.8054580078125,-0.07047463519573212,-0.0293893222220242,-0.01613784565664828
1761413455145471000,2.815470947265625,-0.0945697965323925,0.021056414695270358,0.01628551049903035
1761413455155485200,2.825485107421875,-0.043932080706954,0.06093249800968915,0.08835377156175672
1761413455165498000,2.835498046875,0.013819851037859916,0.07570504666250198,0.1395934718683362
1761413455175512000,2.845511962890625,0.08287175995409488,0.061998702469095585,0.1736819847572595
1761413455185525200,2.855525146484375,0.1449023919314146,0.005760317092388868,0.18682978175245224
1761413455195538000,2.865537841796875,0.15564882687330245,-0.025854864485561846,0.16257738402746616
1761413455205552000,2.87555224609375,0.16150982786118984,-0.034583895190432666,0.13713972204066813
1761413455215565300,2.8855654296875,0.10627192476391792,-0.051554830670356745,0.12435732429176569
1761413455225579000,2.8955791015625,0.02921089691519737,-0.03827792740277946,0.1026715621843934
1761413455235592200,2.90559228515625,-0.011052139890193938,0.026054003786854445,0.12860526405982672
1761413455245604900,2.91560498046875,-0.058878305426239966,0.09798749602138995,0.20032420022822917
1761413455255619000,2.925619140625,-0.16783026305437088,0.07488189371135086,0.14014350696653127
1761413455265632300,2.93563232421875,-0.27207272781729697,-0.020858736698701977,-0.019344532743468878
1761413455275646200,2.945646240234375,-0.2804272991865873,-0.047087877856753765,-0.04756861057840287
1761413455285659100,2.9556591796875,-0.23796529103219508,-0.07821224371045828,-0.0200157100033015
1761413455295673000,2.965673095703125,-0.19822598583996295,-0.10342084618173539,-0.022137086071446536
1761413455305686000,2.97568603515625,-0.09398702820837497,-0.09223437585476785,-0.008417261341959238
1761413455315699200,2.98569921875,-0.008867197066545486,-0.059961022629030046,0.0413046548128128
1761413455325713200,2.995713134765625,0.04246434624195099,-0.09055891692321746,0.05996719664148986
1761413455335726000,3.00572607421875,0.040498599126935,-0.11765231022778898,0.036182708689197894
1761413455345740000,3.015739990234375,0.01167640926837921,-0.10473543591164051,-0.016142229570820926
1761413455355753200,3.025753173828125,-0.02654430805444717,-0.12827661662735043,-0.03719531979784369
1761413455365767000,3.035766845703125,-0.07127484566271304,-0.10955043497793376,-0.07367270058467984
1761413455375780000,3.045780029296875,-0.04616846145689487,-0.09400153165776282,-0.11916603925898671
1761413455385793300,3.055793212890625,0.00556874004304409,-0.0931298633897677,-0.09813735282085835
1761413455395807000,3.065806884765625,0.09172668206095695,-0.05505765115953982,-0.06643668491654098
1761413455405820200,3.075820068359375,0.17296002715826034,-0.07312273855172097,-0.10098521653264761
1761413455415834000,3.085834228515625,0.19536299762427806,-0.09701477853171526,-0.14378748949207365
1761413455425847000,3.095846923828125,0.22130524813234806,-0.06864705444239079,-0.1516222747709602
1761413455435860200,3.105860107421875,0.2203665059775114,-0.028526494847610592,-0.11227343020103871
1761413455445874200,3.115874267578125,0.20278291849195956,-0.0005159866981208324,-0.06444361140318214
1761413455455887000,3.12588720703125,0.20037877995967865,0.011920008765906095,-0.04791669336371124
1761413455465901000,3.135901123046875,0.1589484529405832,0.0365534051651135,-0.0479313064109534
1761413455475914000,3.1459140625,0.10054419476687908,0.04540598918441683,-0.07433511001616716
1761413455485928000,3.155927978515625,0.04886895258724689,0.06778788032978773,-0.05862849538363516
1761413455495941000,3.165941162109375,0.054171735170483584,0.04632021795250475,-0.06161795952320098
1761413455505954000,3.1759541015625,0.015880875220894812,0.059057753646373744,-0.041074864644929765
1761413455515968000,3.185968017578125,0.010512626186013221,0.05718969475217163,-0.01137808390893042
1761413455525981200,3.195981201171875,0.010868015494942665,0.060269321393221616,0.005681260506808758
1761413455535995000,3.205994873046875,0.035657004314661025,0.07244765230175107,0.011501783353835345
1761413455546008000,3.216008056640625,0.07390987034142017,0.07350114341005683,0.07270422087870537
1761413455556021200,3.226021240234375,0.12367723307311534,0.08767302275598049,0.11515556150861084
1761413455566035000,3.236034912109375,0.14577625215649603,0.05483556937407702,0.10873312724567949
1761413455576048000,3.246048095703125,0.10384265179038048,0.02104096139781177,0.08976824146956205
1761413455586062000,3.25606201171875,0.046137481796741486,0.01273629358485341,0.053925505324453116
1761413455596075000,3.266074951171875,-0.03885200096368789,-0.010580759518779813,-0.003041998044401407
1761413455606089200,3.276089111328125,-0.09971884985864161,-0.03850684078782796,-0.01487045606933534
1761413455616102100,3.28610205078125,-0.13956629160046577,-0.05239694405030459,-0.027475670620426534
1761413455626115000,3.296114990234375,-0.11740531319677829,-0.058693377313390374,-0.05854118242636323
1761413455636129000,3.30612890625,-0.07230185062289238,-0.0652189431572333,-0.03388056922666728
1761413455646142000,3.316141845703125,-0.055476388028264045,-0.05748820277471095,0.0032789486054331063
1761413455656156200,3.32615625,-0.03449614384174347,-0.05459668258428573,-0.004255027095973491
1761413455666169000,3.336169189453125,-0.025758710634708405,-0.033591048228181895,-0.011351122836768627
1761413455676183300,3.346183349609375,-0.0421370139837265,-0.03175250768940895,-0.011908537523820996
1761413455686196000,3.356196044921875,-0.041401685446500774,-0.0338287294415757,-0.02712386150807142
1761413455696209200,3.366209228515625,-0.027964696246385572,-0.07462689603697509,-0.04065883118994534
1761413455706223000,3.37622314453125,0.01542261005938053,-0.11339775805585085,-0.06136719963252544
1761413455716236000,3.386236083984375,0.07813537908196448,-0.13851517511233685,-0.042286213196069
1761413455726250200,3.396250244140625,0.11183540410995482,-0.16712423367686569,-0.025474632996320724
1761413455736263000,3.406262939453125,0.08879881191551685,-0.19921481421422213,0.008795447004586458
1761413455746276000,3.416276123046875,0.04317512485980987,-0.14889102317616343,-0.024855258988961577
1761413455756290300,3.426290283203125,0.08645487913787364,-0.08899886453226208,-0.09412577909193932
1761413455766303000,3.436302978515625,0.01687690052092075,-0.10927041246015577,-0.024978812303394077
1761413455776317200,3.446317138671875,-0.05344225185215473,-0.08480177816860378,-0.003234744137525558
1761413455786330000,3.456330078125,-0.0855722510844469,-0.04393471105545759,-0.04594539329074323
1761413455796344000,3.466343994140625,-0.13619593838453292,-0.03835954127162695,-0.0665333502240479
1761413455806357200,3.476357177734375,-0.1536637905359268,-0.01640741984564811,-0.10734342645294964
1761413455816370000,3.486369873046875,-0.0949006359219551,0.022835334001295268,-0.1271017276290804
1761413455826384100,3.496384033203125,-0.07416530640721321,0.05269450222477316,-0.09848280525766312
1761413455836397000,3.50639697265625,-0.051443771511316294,0.022032968109846115,-0.06507314147837459
1761413455846411300,3.516411376953125,0.015603811845183372,0.0396425302868709,-0.043336599031835794
1761413455856424200,3.526424072265625,0.0880558845937252,0.03909399302601814,-0.05126381183452904
1761413455866437000,3.53643701171875,0.15526070433855055,0.0154332045186311,-0.034615897763893004
1761413455876451000,3.546451171875,0.18158581668436527,-0.008776742304116488,-0.04072729331627488
1761413455886464000,3.556464111328125,0.1689391010791063,-0.02779233535416424,-0.07591222313977777
1761413455896478200,3.566478271484375,0.12081307581365108,-0.028757892450690267,-0.1337041946340352
1761413455906491100,3.5764912109375,0.09670563951730728,-0.0008618044611066579,-0.11631021143645047
1761413455916504000,3.586504150390625,0.06021510698795318,0.019399989257752895,-0.11386325667575001
1761413455926518300,3.596518310546875,0.003925064489245415,0.030272827058285472,-0.12285481077432632
1761413455936531000,3.606531005859375,-0.00819908854663372,0.05395012830905616,-0.10856186233200132
1761413455946545200,3.616545166015625,0.027084406280517576,0.04950169753283262,-0.05098762524165213
1761413455956558300,3.626558349609375,0.10122340920269489,0.017857216795161366,-0.012667612262815237
1761413455966572000,3.636572021484375,0.16957856802642343,-0.014283815287798643,0.03107888274416327
1761413455976585200,3.646585205078125,0.2217524073779583,-0.05253580453172326,0.053472866186127066
1761413455986598000,3.656597900390625,0.23742753089368343,-0.09711977327615022,0.09510119999535381
1761413455996612000,3.666612060546875,0.2667582547962665,-0.13534260949082672,0.12670512952692806
1761413456006625300,3.676625244140625,0.2550882752686739,-0.1625304030805826,0.12945808149687946
1761413456016639000,3.686638916015625,0.22825345983505246,-0.16195749856345354,0.12403598338291048
1761413456026652200,3.696652099609375,0.13006488828361035,-0.12401369848586619,0.09639584291577338
1761413456036666000,3.706666015625,0.01412380242049694,-0.11382643179669975,0.06763122846335172
1761413456046679000,3.716678955078125,-0.09940905325710774,-0.09472681372500956,0.02479892569184303
1761413456056692200,3.726692138671875,-0.1780196486353874,-0.05973769873455166,-0.008494856622815131
1761413456066706200,3.7367060546875,-0.1314034434109926,-0.03156841982677579,-0.012544132013618946
1761413456076719000,3.746718994140625,-0.10023848981857299,-0.06415836472101509,0.024502792289480567
1761413456086733000,3.756733154296875,-0.043345805251598354,-0.05335172402448952,0.11551876879781484
1761413456096746200,3.766746337890625,0.034898294901847836,-0.029709494087100028,0.12822189076542853
1761413456106759200,3.77675927734375,0.08705226050913334,-0.028999373056367038,0.13497194954752922
1761413456116773000,3.786773193359375,0.11917115382552146,-0.026559944014996287,0.13194989831261336
1761413456126786000,3.7967861328125,0.1336263801574707,-0.04394157918766141,0.13560001831799745
1761413456136800000,3.806800048828125,0.11852116548418998,-0.031730113194510336,0.12109481536448001
1761413456146813200,3.816813232421875,0.09780804780125617,-0.018499021830037234,0.10852021514736115
1761413456156826000,3.826826171875,0.1013625254124403,0.010252587010338902,0.10233933455534279
1761413456166840000,3.836840087890625,0.07690554502606392,0.05453786506913602,0.08196348600275814
1761413456176853200,3.846853271484375,0.05326747980713844,0.06624503480195999,0.077444839534536
1761413456186867000,3.856866943359375,-0.005358896684646606,0.09161964148990809,0.07381408181674778
1761413456196880100,3.866880126953125,-0.02496668347418308,0.10841712009906768,0.07282653208412229
1761413456206894000,3.87689404296875,-0.030721886000037193,0.1014030766185373,0.06629194268360733
1761413456216907000,3.886906982421875,-0.003329436683654785,0.08686952435337006,0.07877491909451782
1761413456226920200,3.896920166015625,0.009067688074707984,0.048246875166147944,0.05853584866411984
1761413456236934100,3.90693408203125,-0.026473580905795095,0.02658113293349743,0.025519348920881747
1761413456246947000,3.916947021484375,-0.0344990664511919,0.01688932161107659,0.039306832059100266
1761413456256961000,3.9269609375,-0.04492459887564182,0.030331498442962766,0.005268368856981396
1761413456266974200,3.93697412109375,-0.005425532180070877,0.028104981499910354,0.009091580406948924
1761413456276987100,3.946987060546875,0.022635025656223298,0.03593720949552953,-0.007427227391302585
1761413456287001000,3.9570009765625,0.04251870677769184,0.003779007082059979,-0.0244037888944149
1761413456297014000,3.967013916015625,0.05485621030330658,-0.0003702215518802404,-0.03734598031491041
1761413456307028000,3.977028076171875,0.02354804884791374,-0.025892054690793156,-0.08199234677106142
1761413456317041200,3.987041259765625,0.006126958447694778,-0.02029262724854052,-0.12003653848320245
1761413456327055000,3.99705517578125,0.01066518639922142,-0.037562984066456556,-0.1331666536912322
1761413456337068000,4.007068115234375,0.04692717086970806,-0.024214257671684024,-0.1571349737778306
1761413456347081200,4.017081298828125,0.12833294992446898,0.006321092780306935,-0.14433774378597736
1761413456357095000,4.027094970703125,0.19840426501631736,0.003920461379364133,-0.11010112766325474
1761413456367108000,4.037108154296875,0.21788053438067434,-0.010051584545522928,-0.09981588049232959
1761413456377122000,4.0471220703125,0.20052491043210027,0.004533551776409149,-0.06321012408547103
1761413456387135000,4.057135009765625,0.16462883666455744,0.013246508129313588,-0.09075074970088899
1761413456397148200,4.067148193359375,0.11339549303352832,0.0293245133575052,-0.08374035948216915
1761413456407162000,4.077162109375,0.10125029720962048,0.023812910329177973,-0.06097220896556973
1761413456417175000,4.087175048828125,0.10754559796154499,0.018644786976277826,-0.0406322354439646
1761413456427189000,4.09718896484375,0.12715046214163303,0.043439219156093896,-0.007649272644147277
1761413456437202200,4.1072021484375,0.14646131181120872,0.05238346351422369,0.03957074369229376
1761413456447215000,4.117215087890625,0.1656324607491493,0.05709390622749924,0.06179200091585516
1761413456457229000,4.12722900390625,0.1615291170835495,0.04231606034506112,0.0837252349782735
1761413456467242000,4.137241943359375,0.1594885511666536,0.03419051195867359,0.09489362165927887
1761413456477256000,4.147255859375,0.10862813250124453,0.011131927128136158,0.09421331124491988
1761413456487269000,4.15726904296875,0.09598083237409591,0.028096031008474527,0.10308072750717401
1761413456497282000,4.167281982421875,0.11263678362071514,0.000567168896086514,0.10586685109436511
1761413456507296000,4.1772958984375,0.15202829828858375,-0.03935593189783394,0.14237236199714243
1761413456517309200,4.18730908203125,0.2045411603361368,-0.05700633754190057,0.1487511032488197
1761413456527322600,4.197322509765625,0.22701602699458598,-0.08226305347122251,0.13847228581868112
1761413456537335600,4.20733544921875,0.19472294615507124,-0.10913009067401289,0.15475282788164912
1761413456547349800,4.217349853515625,0.1281447338759899,-0.10792630437482148,0.14674422040581703
1761413456557362400,4.227362548828125,0.06721241852939129,-0.10743928804285824,0.1588471114579588
1761413456567375600,4.237375732421875,0.006967500925064087,-0.08501290016863494,0.17454780780635773
1761413456577389800,4.247389892578125,-0.028121932634711265,-0.05415452830735594,0.20252762855663894
1761413456587402500,4.257402587890625,-0.028193244305253027,-0.032535401695407924,0.20314269171506166
1761413456597416700,4.267416748046875,-0.05351648613214492,-0.03457355645950883,0.19518135744705795
1761413456607429600,4.2774296875,-0.1108650977730751,-0.052891011177562175,0.1485114492740482
1761413456617442600,4.287442626953125,-0.1419184076845646,-0.07132471268642693,0.11439034928977489
1761413456627456800,4.297456787109375,-0.11696575273573398,-0.08316679737791419,0.10307743957154453
1761413456637469400,4.307469482421875,-0.09604629882574081,-0.09563932546004653,0.13606595532931387
1761413456647483600,4.317483642578125,-0.17484627929627894,-0.07402578833866864,0.1315783615864813
1761413456657496600,4.32749658203125,-0.38222646245062347,-0.045567536421678954,0.12154423963241279
1761413456667509500,4.337509521484375,-0.2975385929852724,-0.029936325112916527,0.08166516064330935
1761413456677523700,4.347523681640625,-0.2811731491178274,-0.04960764212533831,0.10928126264773308
1761413456687536600,4.35753662109375,-0.1830740094155073,-0.04441876824535429,0.14458046650066972
1761413456697550600,4.367550537109375,-0.07736030305624007,-0.022975071265548465,0.13967128634490072
1761413456707563500,4.3775634765625,0.0023550386935472485,-0.05234181632958352,0.1207902794599533
1761413456717577700,4.38757763671875,-0.035327918490767475,-0.09180789407100529,0.09072605365104973
1761413456727590700,4.397590576171875,-0.08353519229888916,-0.07261902681328355,0.03030614480599761
1761413456737603600,4.407603515625,-0.14179332000017164,-0.07349171799458563,-0.024268179816007613
1761413456747617800,4.41761767578125,-0.14228899456262586,-0.1067740655997768,-0.06791362560130655
1761413456757630500,4.42763037109375,-0.10833587155640124,-0.12045775956995784,-0.06561470100916922
1761413456767644700,4.437644775390625,-0.11915712530016899,-0.10526735083125531,-0.08422529345490037
1761413456777657600,4.44765771484375,-0.10024842669069767,-0.07604626131560653,-0.11836619411818683
1761413456787670500,4.45767041015625,-0.00012508768439292906,-0.062245662967488166,-0.12055975863970815
1761413456797684700,4.467684814453125,0.02848725881576538,-0.07868625443037598,-0.08680880714207888
1761413456807697400,4.477697509765625,0.004341828596591949,-0.0660310632577166,-0.1016150388687849
1761413456817711600,4.487711669921875,0.07712064908146858,-0.04060092699024826,-0.10287022656165062
1761413456827724800,4.497724853515625,0.12390461208820343,-0.057361105796322226,-0.10174421820640564
1761413456837737500,4.507737548828125,0.15033961454927922,-0.058511664070934055,-0.08457900226339697
1761413456847751700,4.517751708984375,0.18459785798192024,-0.03566511455588042,-0.08120207317620515
1761413456857764600,4.5277646484375,0.21521979073882103,-0.08145363678447902,-0.14553199507184325
1761413456867778600,4.537778564453125,0.15919979735314846,-0.0993406641960144,-0.13979776226878166
1761413456877791700,4.547791748046875,0.14853461095392703,-0.08088781959526241,-0.12826799492947757
1761413456887805700,4.5578056640625,0.13084873213768006,-0.07420256967768073,-0.1330768565159291
1761413456897818600,4.567818603515625,0.15552783084213734,-0.05572853615842759,-0.10744096854329109
1761413456907831600,4.57783154296875,0.19955168148577213,-0.015798530699685214,-0.0192663529407233
1761413456917845800,4.587845703125,0.230283504357934,-0.025609584487602113,0.028459201765060425
1761413456927858700,4.597858642578125,0.2556616912424564,-0.0015396306574344634,0.0705123368576169
1761413456937872600,4.60787255859375,0.19814824442863463,0.017348317424952985,0.08705467166192829
1761413456947885600,4.617885498046875,0.11195347753167152,0.013955898507684469,0.070355027404055
1761413456957898500,4.6278984375,0.080683894520998,0.005135170931369066,0.036628552760556335
1761413456967912700,4.63791259765625,0.08188742509186267,-0.010297010673955082,0.07235643035434186
1761413456977925600,4.647925537109375,0.0779173524171114,-0.01677986988723278,0.050482598328962916
1761413456987939600,4.657939697265625,0.0635123949676752,0.016342501383274793,0.04019135980866849
1761413456997952800,4.667952880859375,0.07055003851950169,0.015263912366330623,0.03685761227607727
1761413457007965400,4.67796533203125,0.040588615497946734,0.007070888234302401,0.014012524065747857
1761413457017979600,4.687979736328125,0.016750059270858764,0.0014920651886612176,0.01506130246631801
1761413457027992800,4.697992919921875,0.006069675302505493,0.0033969489619135856,0.028560543247684835
1761413457038006500,4.708006591796875,-0.0002513444125652313,-0.0288681478921324,0.02273651326932013
1761413457048019700,4.718019775390625,0.005254267266392707,-0.03222418032176792,0.0471191863104701
1761413457058032600,4.72803271484375,0.01868774933516979,-0.013399945125356316,0.03786335525251925
1761413457068046600,4.738046630859375,0.02887245874106884,-0.012188158182799816,0.03506291087903082
1761413457078059800,4.748059814453125,0.041675826212763785,-0.05323233542852104,0.030962416757643222
1761413457088073500,4.758073486328125,0.04997486800253391,-0.07965287097282707,0.010782163842394948
1761413457098086700,4.768086669921875,0.012689385703206062,-0.10537205331474542,-0.03840352654382586
1761413457108099600,4.778099609375,-0.00027706337571144104,-0.12582388971298933,-0.07034582118429243
1761413457118113500,4.788113525390625,-0.008068155643343925,-0.13663162638805806,-0.07569814199768006
1761413457128126700,4.798126708984375,-0.03475099538564682,-0.10932232531048357,-0.052804903796687716
1761413457138140700,4.808140625,-0.013994038560986518,-0.08885503561478107,-0.01758322215937078
1761413457148153600,4.818153564453125,-0.011686930662393569,-0.07333437200840562,0.003817585526779294
1761413457158167600,4.82816748046875,0.02403203297257423,-0.08129946913607418,0.03385894191674888
1761413457168180700,4.8381806640625,0.05023848737478256,-0.09021744654178619,0.060464697834849354
1761413457178193700,4.848193603515625,0.0664227294564247,-0.09667509824857115,0.07010740931853651
1761413457188207600,4.85820751953125,0.04634498706758022,-0.11522102796025574,0.08144757236987352
1761413457198220500,4.868220458984375,0.0402022465288639,-0.10361560156885534,0.07167801963612437
1761413457208234500,4.878234375,0.024746903243660925,-0.09919314548410475,0.060793199136853215
1761413457218247700,4.88824755859375,0.014903554621338843,-0.10187398206591605,0.06081117318496108
1761413457228260600,4.898260498046875,-0.01654898374080658,-0.09500248886123298,0.03139825089164078
1761413457238274600,4.908274658203125,-0.0533563271343708,-0.09343670084923505,0.03314838249459862
1761413457248287700,4.918287841796875,-0.09705693717300891,-0.09096870330050587,0.03168357063904404
1761413457258301400,4.928301513671875,-0.10131108748614788,-0.08133505190610885,0.007037789682298898
1761413457268314600,4.938314697265625,-0.09077683399021624,-0.061500543688610194,0.04075615408457815
1761413457278327800,4.948327880859375,-0.03675006024837494,-0.05558094438128173,0.05605031545870006
1761413457288341500,4.958341552734375,0.012438625812530517,-0.06589731734283268,0.08548208858296275
1761413457298354700,4.968354736328125,0.017863573470711706,-0.07913242729529738,0.08807721964269875
1761413457308368600,4.97836865234375,-0.01272562606036663,-0.09010689883939921,0.07313048346675932
1761413457318381600,4.988381591796875,-0.03585691080093384,-0.08401537703126669,0.040601255783811206
1761413457328394800,4.998394775390625,-0.06790975314378737,-0.0894607098903507,-0.0022117577653378248
1761413457338408700,5.00840869140625,-0.07076105092167854,-0.09345043711364269,-0.0128320821095258
1761413457348421600,5.018421630859375,-0.03287526464164257,-0.08853161234669386,-0.032434754332527516
1761413457358435600,5.028435546875,-0.045910687303543085,-0.07243482935279608,-0.030934286641702054
1761413457368448500,5.038448486328125,-0.07524316477179527,-0.02772752648964524,-0.034567163251340384
1761413457378461700,5.048461669921875,-0.07387070737481116,-0.016059373592957855,-0.01404043498598039
1761413457388475600,5.0584755859375,-0.0370393985837698,-0.004938844641670584,-0.010609583754464984
1761413457398488600,5.068488525390625,0.031043957561254498,-0.024311288305372,-0.014653598448261617
1761413457408502500,5.07850244140625,0.12237550282478332,-0.013288520640134811,0.0020271219134330746
1761413457418515700,5.088515625,0.07712649430036544,-0.03113010147474706,0.02875708873309195
1761413457428528600,5.098528564453125,0.10102817889153957,-0.020786109853908417,-0.054689402369037264
1761413457438542600,5.10854248046875,0.24153438169062136,-0.06447495638951659,-0.05287526561915874
1761413457448555800,5.1185556640625,0.27890578870773314,-0.10850187577307224,-0.012977189668640494
1761413457458569500,5.128569580078125,0.25379063667356966,-0.09052095953300594,-0.002482391400262713
1761413457468582700,5.138582763671875,0.19676935729086398,-0.03786993112377822,-0.07075235615856945
1761413457478595600,5.148595703125,0.1323228963434696,-0.032291181143373246,-0.05751074340008199
1761413457488609500,5.158609619140625,0.05186462727189064,-0.03242109113335609,-0.034311800250783564
1761413457498622700,5.168622802734375,0.04356032478511333,-0.002386675940826535,-0.028398119227588173
1761413457508636700,5.17863671875,0.02919043864905834,0.03862177240438759,-0.005939911442995071
1761413457518649600,5.188649658203125,0.05977788461446762,0.03493102812767029,0.028713249591365456
1761413457528663300,5.198663330078125,0.10396247877776622,0.006419365523010492,0.02952778084464371
1761413457538676500,5.208676513671875,0.09990940399467944,-0.006153261932730674,0.03129201403819024
1761413457548689700,5.218689697265625,0.11108896965682506,-0.01784793751016259,0.005977832300588488
1761413457558703400,5.228703369140625,0.12537643820643424,-0.01955233027525246,0.00840768979601562
1761413457568716500,5.238716552734375,0.10999708276689052,-0.042349853016808624,-0.02736972602792084
1761413457578730500,5.24873046875,0.0948264016419649,-0.05630925865583122,-0.04025478043369948
1761413457588743400,5.258743408203125,0.05857961474061012,-0.055775736301019785,-0.04980177645795047
1761413457598756600,5.268756591796875,0.05030687643587589,-0.02287146476060152,-0.06960713164620101
1761413457608770300,5.278770263671875,0.03510989182591438,0.0024178747966885567,-0.04282689594402909
1761413457618783500,5.288783447265625,0.0481891536295414,0.0037355332665145397,-0.031077494504675268
1761413457628797400,5.29879736328125,0.03320259689986706,0.017240546201542018,-0.03233706611171364
1761413457638810400,5.308810302734375,0.027889292922616004,-0.0024484891306608913,-0.04331277976483106
1761413457648823600,5.318823486328125,0.0184258835285902,-0.00423179235085845,-0.04677906763590872
1761413457658837500,5.32883740234375,0.04481412423849106,-0.0193784350130707,-0.03632058278992772
1761413457668850400,5.338850341796875,0.033142975667119025,-0.03876381122358143,-0.03926701150536537
1761413457678864400,5.348864501953125,0.04351707016527653,-0.044541517842188474,-0.02038505477234721
1761413457688877600,5.358877685546875,0.04215221155285835,-0.04745389815755188,-0.03977927187643945
1761413457698890500,5.368890380859375,0.029430677145719526,-0.048410833556205034,-0.05847082060389221
1761413457708904400,5.378904541015625,0.009843348622322083,-0.06509696074537932,-0.06643646572083234
1761413457718917400,5.38891748046875,-0.002889291700720787,-0.06266118496581911,-0.0406450949255377
1761413457728931300,5.398931396484375,0.03405424529314041,-0.03752235979512333,-0.029175094949454066
1761413457738944500,5.408944580078125,0.05051321266293526,-0.014703721200302243,-0.0002053863789886236
1761413457748957400,5.41895751953125,0.021517419803142545,-0.02097717544659972,0.015102511259540914
1761413457758971400,5.428971435546875,0.023687165057659148,-0.03268566035367548,-0.04108355940803885
1761413457768984600,5.438984619140625,-0.025913024413585662,-0.025014175877720115,-0.0536297372482717
1761413457778998300,5.448998291015625,-0.057421676877141,-0.0246238613858819,-0.07002944871149956
1761413457789011500,5.459011474609375,-0.039512510699033734,-0.009945859148725866,-0.059349576199799775
1761413457799024600,5.469024658203125,0.011618541601300238,-0.010896803198009728,-0.019539689989387987
1761413457809038300,5.479038330078125,0.0974713631927967,-0.028153496816754338,0.030948534362763163
1761413457819051500,5.489051513671875,0.1951210055619478,-0.05292319641411304,0.07331709208004177
1761413457829065500,5.4990654296875,0.2169552362293005,-0.10760032382346689,0.06290924144275487
1761413457839078400,5.509078369140625,0.2275122860789299,-0.13826054276414215,0.03443593808710575
1761413457849091600,5.519091552734375,0.221939454382658,-0.15094934394545853,0.08192512675374745
1761413457859105500,5.52910546875,0.233414788120985,-0.09740348558835685,0.11253376163765788
1761413457869118500,5.539118408203125,0.20331366436779497,-0.051242842111736533,0.06532821221798658
1761413457879132400,5.54913232421875,0.1108043074965477,-0.057939051814749835,-0.013186302374675869
1761413457889145300,5.559145263671875,0.06449848339557647,-0.04432867880910635,-0.02709726576209068
1761413457899158500,5.569158447265625,0.042000235861539836,0.022748057576641438,0.03895034677162766
1761413457909172500,5.57917236328125,0.002332242339849472,0.06061937693990767,0.06329319925904274
1761413457919185400,5.589185302734375,-0.012632102558016776,0.10072086650803684,0.06397182917296886
1761413457929199400,5.599199462890625,0.007319967624545097,0.11009469792246818,0.06972052889280021
1761413457939212500,5.609212646484375,0.03776303668320179,0.1006901791088283,0.07196319325305521
1761413457949225500,5.6192255859375,0.04451718711853027,0.08370126958079635,0.07132299565337598
1761413457959239400,5.629239501953125,0.0686146865427494,0.06326295025125145,0.043230581374093885
1761413457969252600,5.639252685546875,0.10428805747032165,0.028851050626859068,0.03859861072450876
1761413457979266300,5.649266357421875,0.14595160872340202,0.01717946366406977,0.05925429913178086
1761413457989279500,5.659279541015625,0.13607494235336778,0.016447715323418377,0.057482028762251135
1761413457999292400,5.66929248046875,0.1241319911032915,0.017884470128268003,0.04782368131801486
1761413458009306400,5.679306396484375,0.07349076814651488,0.011005012812837958,0.04574935926198959
1761413458019319600,5.689319580078125,-0.02934650599360466,-0.017654606895148754,0.011105915904045104
1761413458029333500,5.69933349609375,-0.13806056321263313,-0.025088629353418945,-0.005081541047990322
1761413458039346400,5.709346435546875,-0.22081600331068038,-0.014441490067541599,-0.06863017637282609
1761413458049359600,5.719359619140625,-0.06946808850169181,-0.08365611526481807,-0.08934132129438221
1761413458059373300,5.729373291015625,0.018006196811795234,-0.15743855983428656,-0.04000635863058269
1761413458069386500,5.739386474609375,0.04682897119224071,-0.19356456990018486,-0.02881846353150904
1761413458079400400,5.749400390625,0.04903086515069008,-0.18306641063094137,-0.05369673806987703
1761413458089413400,5.759413330078125,0.03277940305173397,-0.200867221063748,-0.008337401038780808
1761413458099426600,5.769426513671875,0.011345569878816604,-0.19330584589876235,0.012965499230846762
1761413458109440500,5.7794404296875,-0.009580898293852806,-0.1471962019570172,0.008472279464825988
1761413458119453400,5.789453369140625,-0.05079553673565387,-0.1408234520547092,-0.005048223300278186
1761413458129467400,5.79946728515625,-0.10529401964247226,-0.10838774787411093,-0.023529051886498925
1761413458139480600,5.80948046875,-0.1688742191493511,-0.08759360084421933,-0.04635287811309099
1761413458149493500,5.819493408203125,-0.20323124678134916,-0.0685714319229126,-0.07273834234401583
1761413458159507500,5.829507568359375,-0.22222820819616315,-0.0610259849794209,-0.08005122264064848
1761413458169520400,5.839520263671875,-0.20367899054884908,-0.050439489839598534,-0.11306881836242973
1761413458179534300,5.849534423828125,-0.1563748030602932,-0.03544190025925636,-0.10493673063740133
1761413458189547500,5.859547607421875,-0.09258125306367873,-0.05682677972391247,-0.07046995902061462
1761413458199560400,5.869560546875,-0.029002807122468947,-0.05667166222743689,-0.0393543244626373
1761413458209574400,5.879574462890625,0.041191257566213606,-0.04428885825537145,0.0002392155833542347
1761413458219587600,5.889587646484375,0.10255845719873904,-0.04117847114987671,0.04140468112118542
1761413458229601300,5.899601318359375,0.1358089848935604,-0.01765789483077824,0.03795680568963289
1761413458239614500,5.909614501953125,0.09610825814604759,0.0034672377191483973,0.03802935946919024
1761413458249627600,5.919627685546875,0.05625204857587814,0.00460289068557322,0.037356282513216134
1761413458259641300,5.929641357421875,0.020537176594138146,0.03914155849479139,0.04477554579377174
1761413458269654500,5.939654541015625,0.0187789347499609,0.05706643369868397,0.05488989337719977
1761413458279668500,5.94966845703125,0.025386954712867737,0.07537848158925771,0.07629428125992417
1761413458289681400,5.959681396484375,0.043754386052489276,0.08577719907201826,0.07251746613495051
1761413458299694600,5.969694580078125,0.05716098011434078,0.10397570358552038,0.06983750633597373
1761413458309708500,5.97970849609375,0.07127426114082336,0.09747165545374155,0.06083206984251737
1761413458319721500,5.989721435546875,0.12790858703255653,0.07827223026938736,0.060436567718908187
1761413458329735400,5.9997353515625,0.15935703374147414,0.05805690604075789,0.10123319994434714
1761413458339748400,6.009748291015625,0.15144903709590435,0.029974501698836684,0.08693747502304613
1761413458349761500,6.019761474609375,0.12175707866549491,0.01723557776547968,0.08689495105557143
1761413458359775500,6.029775390625,0.09314999286234378,0.060033612941205496,0.09788644679971038
1761413458369788400,6.039788330078125,0.005363572859764099,0.05004997906535864,0.09196407101340591
1761413458379802400,6.04980224609375,-0.012834931653738021,0.04868870064951479,0.08967157616205514
1761413458389815600,6.059815673828125,-0.006167290458083153,0.05565006409473717,0.09464914537891746
1761413458399828500,6.069828369140625,-0.011912556111812592,0.049126799805834884,0.1076389022681862
1761413458409842400,6.079842529296875,-0.024510756400227544,0.032494740891456604,0.09784618785455822
1761413458419855600,6.089855712890625,-0.022667758882045745,0.007259469608962535,0.06453143581710756
1761413458429869300,6.099869384765625,-0.013793547552824019,-0.03278619811870157,0.008355448152124882
1761413458439882500,6.109882568359375,-0.035066637206077576,-0.06743314860798418,0.00009213526286184787
1761413458449895400,6.1198955078125,-0.04890870007574558,-0.07266973408721387,-0.013486746625974773
1761413458459909400,6.129909423828125,-0.02372282089293003,-0.05510894295535981,-0.017208543628081677
1761413458469922600,6.139922607421875,-0.05009411046802997,-0.05242869089543819,-0.030330621660128235
1761413458479936500,6.1499365234375,-0.038591888722777364,-0.048943552193418144,-0.029388007047772405
1761413458489949400,6.159949462890625,-0.031899113085865974,-0.07477262465059757,-0.028774259063601492
1761413458499962600,6.169962646484375,0.012424597287178039,-0.09693426064141095,-0.033308979883790016
1761413458509976300,6.179976318359375,0.05342939237058163,-0.0924210210006684,-0.016760945991054176
1761413458519989500,6.189989501953125,0.009587912556529044,-0.10651048276014626,0.005700476663932204
1761413458530004000,6.20000390625,-0.005091770181059837,-0.0688665424119681,-0.014538812962174415
1761413458540017000,6.210016845703125,0.007895137163996696,-0.030199542626366017,-0.006522241375595331
1761413458550030000,6.220030029296875,0.017409399962425232,-0.018417554091662167,-0.009242021728307008
1761413458560044000,6.2300439453125,0.041671734559535975,-0.03539535770379006,-0.025643632887676356
1761413458570057000,6.240056884765625,0.05661386762559414,-0.034738135904073715,-0.0194722507763654
1761413458580071000,6.25007080078125,0.047155718928575514,-0.04701674884930253,-0.021398323468118905
1761413458590084000,6.260083984375,0.05354045152962208,-0.048494420186430215,-0.018339082027971743
1761413458600097000,6.270096923828125,0.030565234133601186,-0.03716850485615432,-0.011082096637040377
1761413458610111000,6.280111083984375,0.05583820707798004,-0.028008389257639644,-0.0010674831010401248
1761413458620124200,6.290124267578125,0.1308949093669653,-0.01921761842817068,0.042409181988611815
1761413458630137000,6.30013720703125,0.1662602372586727,-0.012313391997665166,0.07527465588860213
1761413458640151000,6.310151123046875,0.20352350772619246,-0.027235139862820505,0.07080766654238105
1761413458650164000,6.3201640625,0.21151626004576682,-0.002876797545328736,0.0578550998583436
1761413458660178000,6.330177978515625,0.20537936472594737,0.0005585106655955314,0.05739003962986171
1761413458670191000,6.340191162109375,0.15574351941943168,-0.003143193396553397,0.04281286741867661
1761413458680204000,6.3502041015625,0.09706219787001609,0.011832403547689318,0.029470205438509582
1761413458690218000,6.360218017578125,0.04047171112000942,0.0313058964330703,0.025297011407092212
1761413458700231200,6.370231201171875,0.005813654714822769,0.041526992326602334,0.03030987113304436
1761413458710244900,6.380244873046875,-0.016634908458590506,0.05619089297316968,0.005316811108589172
1761413458720258000,6.390258056640625,0.003985854765772819,0.05884579139612615,-0.0050903819415718315
1761413458730271000,6.40027099609375,0.045543607556819916,0.02859298421256244,-0.018958675231039522
1761413458740285000,6.410284912109375,0.08099369112253188,-0.0025628362253308293,-0.0062381637372076505
1761413458750298000,6.420298095703125,0.07547814257144927,-0.0033403964690864084,-0.013286474813520908
1761413458760312000,6.43031201171875,0.031227497434616086,-0.045193844271078705,-0.07557999551072717
1761413458770325000,6.440324951171875,0.0071878656774759285,-0.040242578539252276,-0.09352313702367246
1761413458780338200,6.450338134765625,0.015061375531554221,-0.017371552170068024,-0.09337583750747144
1761413458790352000,6.460351806640625,0.026554244926571845,-0.027703926418349144,-0.04122194496542215
1761413458800365000,6.470364990234375,0.031186580902338026,-0.0037730157326906918,-0.0201763804577291
1761413458810379000,6.48037890625,0.03143383366167545,-0.008148162076994776,-0.01858911126628518
1761413458820392000,6.490391845703125,0.03670096040964126,-0.008427928866446019,-0.03162007694877684
1761413458830405000,6.500405029296875,0.06587795505523682,-0.027519875088334082,-0.011533712862059474
1761413458840419000,6.510419189453125,0.0853238292813301,-0.04186513823978603,-0.039675811501964926
1761413458850432000,6.520431884765625,0.09363456150889396,-0.04879895609095692,-0.019911226715520022
1761413458860446000,6.530446044921875,0.08636310920119285,-0.0795464149236679,-0.006976341818645596
1761413458870459100,6.540459228515625,0.10301204618513583,-0.11726378583423792,-0.008424129474163055
1761413458880472000,6.55047216796875,0.08577683374583721,-0.12044380410984158,-0.004006605292856693
1761413458890486000,6.560486083984375,0.1061199490725994,-0.12729863844066858,0.014308219076693057
1761413458900499000,6.5704990234375,0.13501345060169695,-0.12542327302284537,0.047423064627870916
1761413458910513000,6.580512939453125,0.1439817699551582,-0.11539061237350105,0.08911883765012026
1761413458920526000,6.590526123046875,0.12987199606001376,-0.11070062792636454,0.1365745624385774
1761413458930539000,6.6005390625,0.10180968465805053,-0.08654467631317675,0.1350879040773958
1761413458940553000,6.610552978515625,0.07434124749600887,-0.05855484562553465,0.11484605716802179
1761413458950566100,6.620566162109375,0.005876198557019234,-0.03366970295496285,0.08582074595279991
1761413458960579800,6.630579833984375,-0.04779460135400295,-0.009542465979605912,0.05869476555287838
1761413458970593000,6.640593017578125,-0.08112228593826293,0.01972710232026875,0.04178856587223708
1761413458980606000,6.65060595703125,-0.08527472944259643,0.024199279298260806,0.030882118063047526
1761413458990620000,6.660619873046875,-0.08239245200455188,0.04790916764438152,0.0293055894613266
1761413459000633000,6.670633056640625,-0.09542436753511428,0.05730901028290391,0.005158844067901373
1761413459010645800,6.680645751953125,-0.11528466778099536,0.06121697750687599,-0.000020677461847662926
1761413459020660000,6.690659912109375,-0.0887660786896944,0.04049918364882469,0.01203501344770193
1761413459030673200,6.700673095703125,-0.06758534349501133,0.022670170034840703,0.00018229776434600353
1761413459040687000,6.71068701171875,-0.026238603106141088,0.0029002514861524104,-0.025004019809886813
1761413459050700000,6.720699951171875,0.023825112223625183,-0.019372443663701413,-0.03456365612000227
1761413459060713000,6.730712890625,0.08429740884304046,-0.0412000253945589,-0.039644831841811536
1761413459070727000,6.740726806640625,0.10985504394769668,-0.0427871484555304,-0.03287986775152385
1761413459080740000,6.750739990234375,0.12890461233258246,-0.05156615578196942,-0.022587094861268996
1761413459090754000,6.760754150390625,0.10323357998132705,-0.04667714163139462,-0.017855536294728518
1761413459100767000,6.77076708984375,0.062271454995870584,-0.04480959419384598,-0.044158582939207554
1761413459110780000,6.78077978515625,0.043235915136337275,-0.03904292042590678,-0.0734665835533291
1761413459120794000,6.790794189453125,0.03972235405743122,-0.044415261114016176,-0.09097031073570251
1761413459130807000,6.80080712890625,0.09064765465259551,-0.05256568821333348,-0.07151223461516201
1761413459140821000,6.810821044921875,0.14223463402688502,-0.06529379849173128,-0.028517142497375605
1761413459150834200,6.820834228515625,0.1893523590326309,-0.07390358673110604,0.005812631801515818
1761413459160846800,6.830846923828125,0.24206921921968458,-0.08529869484007357,-0.0025689737051725384
1761413459170861000,6.840861083984375,0.24429741666316984,-0.12551007452346383,0.009717238024622201
1761413459180874000,6.8508740234375,0.24846564225852488,-0.13182904841192067,0.03110883949100971
1761413459190888000,6.860887939453125,0.25599136158823965,-0.14905980387181042,0.025230595107376574
1761413459200901000,6.870901123046875,0.2355161443144083,-0.130659493175894,0.0702139384329319
1761413459210913800,6.880913818359375,0.15913374637961386,-0.09651347794607282,0.09666823011636734
1761413459220928000,6.890927978515625,0.05427461102306842,-0.04341499803029,0.11786613564155995
1761413459230941200,6.900941162109375,-0.05972469312250614,0.01890051530301571,0.1274297174744308
1761413459240955000,6.910954833984375,-0.1333206752091646,0.05024915489926934,0.10388875595442951
1761413459250968000,6.920968017578125,-0.2034177092641592,0.052664545477926726,0.08612330909594892
1761413459260981000,6.93098095703125,-0.25210136841237546,0.06157901575230062,0.04904474754557013
1761413459270995000,6.940994873046875,-0.23995617258846758,0.061113736328110096,0.017039543736726045
1761413459281008000,6.951008056640625,-0.20208558387756345,0.05141213426403701,0.0004877104517072439
1761413459291020800,6.961020751953125,-0.14216975209712981,0.02043386235013604,0.0010231325026601552
1761413459301035000,6.971034912109375,-0.07866963208913802,-0.014885434442758558,0.004195332797989249
1761413459311048000,6.9810478515625,-0.022833763098716736,-0.03407200014553964,0.004670695224776864
1761413459321062100,6.991062255859375,0.03147884184718132,-0.07156506078094244,0.0171945151027292
1761413459331075000,7.001074951171875,0.06736497874259949,-0.08732413625307381,-0.008532119893282652
1761413459341088000,7.011087890625,0.08277648288607597,-0.0992786318104714,0.019628025859966872
1761413459351102000,7.02110205078125,0.09984393754303454,-0.08997399317473173,0.013809183513373135
1761413459361115000,7.031114990234375,0.09045826956033706,-0.06831884540133178,0.005235781761631369
1761413459371129000,7.041129150390625,0.06271335354447365,-0.061056818509101864,-0.022914646315202115
1761413459381142000,7.05114208984375,0.052854222831130025,-0.06784947432391344,-0.026782208463549614
1761413459391155000,7.061155029296875,0.07339724464416504,-0.061126157418265936,-0.013397095581144094
1761413459401169200,7.071169189453125,0.09452303478121757,-0.037606457882001995,0.007188231003656983
1761413459411181800,7.081181884765625,0.13073591941297052,-0.04514021438769996,-0.0014499065473675726
1761413459421196000,7.091196044921875,0.1628670876890421,-0.04868519351817667,0.004092895336821675
1761413459431209000,7.101208984375,0.14652093304395675,-0.0524023874104023,0.0013327829737216233
1761413459441222000,7.111221923828125,0.11552373723387717,-0.062156158053129906,-0.025670228633657095
1761413459451236000,7.121236083984375,0.10980711315274239,-0.04455729993321001,-0.05078296951502561
1761413459461248800,7.131248779296875,0.07249941902160643,-0.04374766405075788,-0.014152882384508847
1761413459471263000,7.141262939453125,0.03631400691866875,-0.0029104075539857148,-0.0233101484388113
1761413459481276200,7.151276123046875,0.001152092644572258,0.017935031271725892,-0.05331438768878579
1761413459491288800,7.161288818359375,-0.017538579300045966,0.04347929543815553,-0.045941374702751635
1761413459501303000,7.171302978515625,-0.030530162820219992,0.01389218562170863,-0.05180317940823734
1761413459511316000,7.18131591796875,-0.011458382603526114,-0.00959726490676403,-0.06920731867365539
1761413459521329000,7.191328857421875,-0.03496142326593399,-0.0034502135191112754,-0.06284728212244808
1761413459531343000,7.201343017578125,0.001617372068762779,-0.030298107630014417,-0.04183613134101033
1761413459541356000,7.21135595703125,0.031554829692840576,-0.03835676479265093,-0.01717851381599903
1761413459551370200,7.221370361328125,0.05034837749004364,-0.02628236918263137,0.008456351243332027
1761413459561383000,7.2313828125,0.08097031024694443,-0.04310688192918896,0.004493146700784564
1761413459571396000,7.24139599609375,0.1199362929791212,-0.05770611984170973,0.02219064288958907
1761413459581410000,7.25141015625,0.14267360996603964,-0.05200783513486385,0.04136157263182103
1761413459591423000,7.261423095703125,0.1255079556316137,-0.07212890520878136,0.045245574458315965
1761413459601437200,7.271437255859375,0.0817903944581747,-0.045842152111977334,0.03511208378300071
1761413459611450000,7.2814501953125,0.011787468427419661,-0.03284881502613425,0.03448598777391016
1761413459621463000,7.291463134765625,-0.032391865038871766,-0.017393764001876116,0.03137245886325836
1761413459631477000,7.30147705078125,-0.050265375381708145,-0.030733649503067135,0.03506013440005481
1761413459641490200,7.311490234375,-0.07206102760434151,-0.035149493183940644,0.026577041280269623
1761413459651503000,7.321503173828125,-0.054909401795268056,-0.012077537415176628,0.01807487813383341
1761413459661517000,7.33151708984375,-0.036788054171204565,-0.019688523875549434,0.04290098409354687
1761413459671530000,7.341530029296875,-0.009810030874609946,-0.03187332105748355,0.05336290300562978
1761413459681544200,7.351544189453125,-0.008422960430383682,-0.04258431935980916,0.05757051076330244
1761413459691557000,7.36155712890625,0.015385785180330276,-0.05100954481251538,0.05392711275964975
1761413459701570000,7.371570068359375,-0.01578326006531715,-0.08588913501389324,0.02137910731099546
1761413459711584000,7.381583984375,-0.024831074395775792,-0.10069975065477192,0.00799669784232974
1761413459721597200,7.39159716796875,-0.0474959106683731,-0.07197948680073023,0.015959055023640395
1761413459731611100,7.401611083984375,-0.07057809557020664,-0.06891279270648956,0.019331673261895773
1761413459741624000,7.4116240234375,-0.06761632315516472,-0.050515916076675056,0.05225647613368928
1761413459751637200,7.42163720703125,-0.03473345972895622,-0.065197352379933,0.05959463700205087
1761413459761651000,7.43165087890625,0.014720599269866942,-0.0591154751829803,0.04087912287712097
1761413459771664100,7.4416640625,0.05199731374084949,-0.04869790686927736,0.027957828114181755
1761413459781678000,7.451677978515625,0.090613167861104,-0.05336546028889715,0.03506115731336176
1761413459791691000,7.46169091796875,0.10961305188536644,-0.06433949344158173,0.04464600112996995
1761413459801704200,7.4717041015625,0.13194587972462177,-0.046824221951887006,0.012970906058326364
1761413459811718100,7.48171826171875,0.1203676701337099,-0.04981390528716147,-0.018287059579789638
1761413459821731000,7.49173095703125,0.07943126411139964,-0.028688699671998618,-0.03168181707337499
1761413459831744300,7.501744140625,0.05788286464810371,0.013328633454814552,-0.05222710390873253
1761413459841758000,7.511758056640625,0.05360241084992885,0.04010127037242055,-0.026570173148065805
1761413459851771100,7.521771240234375,0.04629705627262592,0.05645217425785958,-0.002782397260144353
1761413459861785000,7.53178515625,0.03430032900869846,0.07498721724934876,-0.0018773381792008875
1761413459871798000,7.541798095703125,-0.004644026413559914,0.06592267097979784,0.00934957375600934
1761413459881811200,7.551811279296875,0.007601122653484344,0.06627674511447548,0.03603942776098847
1761413459891825200,7.5618251953125,0.04300502898991108,0.04837766193896532,0.03225969002656638
1761413459901838000,7.571838134765625,0.08239069843888282,0.023725158980488777,0.045535643446072936
1761413459911852000,7.58185205078125,0.1290337916702032,0.005427139615267515,0.04123801931738853
1761413459921865200,7.591865234375,0.1560129840105772,-0.030275457406789063,0.05053432851620018
1761413459931878100,7.601878173828125,0.14255787463188171,-0.03991831502094865,0.04870046415254473
1761413459941892000,7.61189208984375,0.11126549526751041,-0.04762267885319888,0.042044221133738756
1761413459951905000,7.621905029296875,0.05284954665601253,-0.058061655281111596,0.026267244678735733
1761413459961918200,7.631918212890625,-0.008438157999515533,-0.04869966043494642,0.006445595942810177
1761413459971932200,7.64193212890625,-0.0860690946906805,-0.03583513736054301,-0.01201104805022478
1761413459981945000,7.651945068359375,-0.1599164211899042,-0.026461013685166835,-0.009510463406145572
1761413459991959000,7.661958984375,-0.17884966971874236,-0.006750570238754153,-0.008939896976575256
1761413460001972200,7.67197216796875,-0.14062953691780566,-0.0007375204943120479,-0.0197868696834892
1761413460011985200,7.681985107421875,-0.0997287867307663,-0.03713233756422996,-0.006380275621637702
1761413460021999000,7.6919990234375,-0.06121814655065536,-0.05787146647125482,0.0061797115482389925
1761413460032012300,7.70201220703125,0.023719898283481596,-0.0733294401049614,0.011873173949494957
1761413460042026000,7.71202587890625,0.09134265117943287,-0.09300108591094612,0.02156140507534146
1761413460052039200,7.7220390625,0.13671791643202305,-0.10147723783329128,0.022080022121965883
1761413460062052000,7.732052001953125,0.15173428377807138,-0.09557334755174815,0.018182941618189216
1761413460072066000,7.742066162109375,0.119940384632349,-0.10083915912546217,0.006510185611620545
1761413460082079200,7.752079345703125,0.10240589698553085,-0.07745178073197603,-0.003706672498211264
1761413460092092200,7.762092041015625,0.061443772000074386,-0.04058846936747432,0.005011690682172775
1761413460102106000,7.772106201171875,0.03733808926939964,-0.016939955819770692,0.02787197646163404
1761413460112119300,7.782119384765625,0.05090191971957683,0.0241479144372046,0.03462320428751409
1761413460122133000,7.792133056640625,0.06911912893354892,0.04008190808482468,0.050063934525474904
1761413460132146200,7.802146240234375,0.08844166904091834,0.03141885528825223,0.0727171534255147
1761413460142159000,7.8121591796875,0.09804477916657924,0.006950695920735597,0.0729170599117875
1761413460152173000,7.822173095703125,0.09555120878517627,-0.017747399745136498,0.03544511512964964
1761413460162186200,7.832186279296875,0.09813771814703941,-0.025532646793872116,0.042448491085693235
1761413460172200200,7.8422001953125,0.11885960365831852,-0.028288959764689207,0.04695668922513723
1761413460182213000,7.852213134765625,0.1074661029845476,-0.0378103829562664,0.0502083844974637
1761413460192226000,7.86222607421875,0.09433598777651786,-0.02644092074520886,0.055641588527336715
1761413460202240300,7.872240234375,0.05464812051057815,-0.03014657033011317,0.0360409621309489
1761413460212253200,7.882253173828125,-0.014912322449684143,-0.03012187428027391,0.022224691289663312
1761413460222266000,7.89226611328125,-0.05688216317296028,-0.0017247049007564782,0.04149937366731465
1761413460232280000,7.902280029296875,-0.10019815780818461,0.020876126224920154,0.060737377296388145
1761413460242293000,7.91229296875,-0.09838146377503872,0.00817241973541677,0.06652092913389206
1761413460252307200,7.92230712890625,-0.1104816514134407,0.00860481980331242,0.07363609490133821
1761413460262320000,7.932320068359375,-0.09582476502954959,0.033310806514695285,0.07154657527618109
1761413460272333000,7.9423330078125,-0.08921382245719432,0.008312047401815653,0.0792122875984758
1761413460282347300,7.95234716796875,-0.0606412234455347,-0.010632526238635183,0.05063070156276226
1761413460292360200,7.962360107421875,-0.053286769029498096,-0.03489997540228069,0.026528745159134268
1761413460302374100,7.9723740234375,-0.052613399812579155,-0.03816160754673183,0.0031003771681338546
1761413460312387300,7.98238720703125,-0.03244622557461262,-0.040924788649752734,0.0060632455617189406
1761413460322400000,7.99239990234375,-0.011714987713098526,-0.04850223816670477,0.004005874640494585
1761413460332414200,8.002414306640626,-0.0036819033831357955,-0.024889891910925506,0.047146804969757795
1761413460342427100,8.01242724609375,0.0025707272708415984,-0.01144201599061489,0.03833601426556706
1761413460352440000,8.022440185546875,0.018259294790029523,-0.0034898879423737525,0.046345863850414754
1761413460362454300,8.032454345703124,0.0413134226411581,0.00614310586489737,0.05132438291534781
1761413460372467000,8.042467041015625,0.07486614815294743,-0.0008001374017447232,0.04517601635344326
1761413460382481200,8.052481201171876,0.09514788868129252,-0.033355084047839045,0.05171294384151697
1761413460392494000,8.062494140625,0.09513853633105754,-0.05271664099134504,0.031526480381190776
1761413460402507000,8.072507080078125,0.1294523093432188,-0.05044087807908654,0.026372093292698264
1761413460412521200,8.082521240234374,0.14270049797296525,-0.05762406758144498,0.033820144276320935
1761413460422534100,8.0925341796875,0.1505833601772785,-0.05170183792561292,0.035039237742498515
1761413460432548000,8.102548095703124,0.17632395063340664,-0.04489084273651242,0.06262450621724128
1761413460442561000,8.11256103515625,0.20981471682488917,-0.036953181605041026,0.07336670337542892
1761413460452574000,8.122573974609375,0.20090192705094814,-0.0394352807443589,0.1044018200431019
1761413460462588200,8.132588134765625,0.16135317599475382,-0.033146482798457146,0.1058707966171205
1761413460472601000,8.14260107421875,0.1261754796296358,-0.0287891643717885,0.10897058926336467
1761413460482614000,8.152614013671876,0.08690788360238075,-0.009244871272519231,0.12582798136621712
1761413460492628200,8.162628173828125,0.06673018797039985,0.03416172425560653,0.11981171675138175
1761413460502641200,8.17264111328125,0.055872693869471544,0.039857817005366086,0.1418435158174485
1761413460512655000,8.182655029296875,0.035955110478401185,0.041042131419107314,0.14943258270695806
1761413460522668000,8.19266796875,0.016261398971080778,0.043715150020644064,0.12991641972362994
1761413460532680700,8.2026806640625,0.03601765432059765,0.047321211688593025,0.12185798175670205
1761413460542694700,8.212694580078125,0.017764789271354674,0.04257328650914132,0.10500146643668412
1761413460552707600,8.22270751953125,0.014520108261704445,0.0084635847017169,0.06396912575922906
1761413460562720500,8.232720458984375,0.012851298266649245,-0.029912615443766114,0.02175641619078815
1761413460572734700,8.242734619140625,-0.015111059892177581,-0.04821947570256888,-0.023925576923415064
1761413460582747600,8.25274755859375,-0.03883388078510761,-0.06088380002975464,-0.04867562197223305
1761413460592761900,8.262761962890625,-0.07281506084203719,-0.032519875332713125,-0.034674276887625456
1761413460602774500,8.2727744140625,-0.08706102833747863,0.0025925737764686345,-0.04540463747754693
1761413460612787700,8.28278759765625,-0.08852817828059197,0.015371610524505376,-0.03898848682492971
1761413460622801700,8.2928017578125,-0.08803016563057899,-0.01731887213476002,-0.029619477716088295
1761413460632814600,8.302814697265624,-0.07851298022270202,-0.02837546900436282,-0.04534823111519217
1761413460642828800,8.312828857421875,-0.027029461222887036,-0.06921089887022971,-0.06822407978996634
1761413460652841500,8.322841552734374,0.02589256614744663,-0.11143120722323656,-0.07851188424415886
1761413460662854700,8.332854736328125,0.05370996287763118,-0.11471344376429915,-0.09906506212502718
1761413460672868600,8.34286865234375,0.06780512372553348,-0.12423895860910415,-0.12178520878143607
1761413460682881500,8.352881591796875,0.07806815906465053,-0.13390439338125287,-0.1697119851477444
1761413460692894700,8.362894775390625,0.05065349791646003,-0.11688647695444523,-0.1792198912706226
1761413460702908700,8.37290869140625,-0.00480710802078247,-0.0724208008274436,-0.19396540578603744
1761413460712921600,8.382921630859375,-0.013796470162272452,-0.03169986418671906,-0.1887048549093306
1761413460722935600,8.392935546875,-0.022592355558276177,0.0017770196098834275,-0.15298822936192155
1761413460732948500,8.402948486328125,-0.0026665888607501982,0.030171923967078327,-0.1147894316099584
1761413460742961700,8.412961669921875,0.047478959533572195,0.041693581065163014,-0.08582586051933466
1761413460752975600,8.4229755859375,0.0537485413223505,0.038837972438335415,-0.032961554685607554
1761413460762988500,8.432988525390625,0.08525660926401615,0.03003828765004873,-0.024515870966762304
1761413460773001700,8.443001708984376,0.10520400327146052,0.034523397174850104,-0.00716492319330573
1761413460783015700,8.453015625,0.11315934619009495,0.044080841527879236,0.010931874511390924
1761413460793028600,8.463028564453126,0.13620470621287822,0.03286035933345556,0.051161228242889045
1761413460803042600,8.47304248046875,0.1562140595406294,0.043584801639243956,0.08036248054690659
1761413460813055700,8.4830556640625,0.14464754038751124,0.055621933978796,0.05111826588399708
1761413460823068700,8.493068603515624,0.09030746291279793,0.0645310704909265,0.03458002273291349
1761413460833082600,8.50308251953125,0.04992985981702804,0.07239844286516309,0.006921542891487479
1761413460843095600,8.513095458984376,-0.012577157500386238,0.07730426202006638,0.025701062163338062
1761413460853109500,8.523109619140625,-0.013553309056162833,0.07793905279226601,0.04279672000147402
1761413460863122700,8.533122802734376,-0.004824059155583382,0.09002499270960689,0.058608329378440974
1761413460873135600,8.543135498046874,0.026264322069287298,0.05921791264414787,0.07719488336145877
1761413460883149600,8.553149658203125,0.058770168876647946,0.012110051445290445,0.06989654304683209
1761413460893162800,8.563162841796874,0.03360767056941986,-0.03262187440246343,0.03751768362000584
1761413460903175700,8.57317578125,0.03282207314968109,-0.06907755481414496,-0.006098389940336346
1761413460913189600,8.583189697265626,0.009630582654476165,-0.07701974599026143,-0.026992928604781627
1761413460923202800,8.593202880859375,-0.01247545069158077,-0.10381970930621028,-0.053336453390121455
1761413460933216500,8.603216552734375,-0.02691080327928066,-0.091906568672508,-0.05547120039649307
1761413460943229700,8.613229736328124,-0.022459084567427633,-0.06726750971749425,-0.03681589202620089
1761413460953242600,8.62324267578125,-0.013466799816489218,-0.07204488018713891,-0.055415305490791794
1761413460963256600,8.633256591796876,-0.004142506632208824,-0.051139381737262006,-0.04792100421264767
1761413460973269800,8.643269775390625,-0.0064817632347345345,-0.03872757086642086,-0.03264627819135785
1761413460983282700,8.65328271484375,0.018521160596609115,-0.03915134923644364,-0.03016403292156756
1761413460993296600,8.663296630859374,0.05697334858775138,-0.05041472072452306,-0.03934782165661454
1761413461003309800,8.673309814453125,0.04163958585560321,-0.06121807348541915,-0.057979237694665786
1761413461013323500,8.683323486328124,0.04972527715563774,-0.06932166576832532,-0.04180719750747084
1761413461023336700,8.693336669921875,0.06373100615441799,-0.06860021962597966,-0.061562283813208336
1761413461033349600,8.703349609375,0.0751502257913351,-0.06071012396328151,-0.057677259073406456
1761413461043363600,8.713363525390625,0.09350830478072165,-0.055843467774987214,-0.0474857546005398
1761413461053376800,8.723376708984375,0.06928747123777866,-0.05709441768415272,-0.08909107286036014
1761413461063389400,8.733389404296876,0.06201543440818786,-0.07043598368577658,-0.11495441291332244
1761413461073403600,8.743403564453125,0.02028115600645542,-0.08569595052935182,-0.1131536471016705
1761413461083416600,8.75341650390625,0.01530453663766384,-0.07947758747115731,-0.09756072197668254
1761413461093430800,8.7634306640625,0.032742578172683716,-0.07383592832237482,-0.07933211458586156
1761413461103443700,8.773443603515625,0.02777005045711994,-0.030793709127232432,-0.0711436204984784
1761413461113456600,8.78345654296875,0.03648760991990566,-0.02140672597028315,-0.07008081357255577
1761413461123470600,8.793470703125,0.04497662132382393,-0.01887611151412129,-0.04349449300728738
1761413461133483800,8.80348388671875,0.04078150772154331,-0.03569624034650624,-0.04964863172285258
1761413461143496700,8.81349658203125,0.01273614745438099,-0.043517727752402424,-0.04488032134249806
1761413461153510700,8.8235107421875,-0.009973112481832504,-0.028052082268893715,-0.050314182959496974
1761413461163523600,8.833523681640624,0.022523381975293157,-0.03676189681664109,-0.02889320926815271
1761413461173537800,8.843537841796875,0.06150105514526367,-0.011319997046142815,0.04034355469569564
1761413461183550700,8.85355078125,0.13585866925418377,0.009345701298490166,0.05812259168811142
1761413461193563600,8.863563720703125,0.19814298373162745,0.00030307459980249404,0.08570712951049209
1761413461203577900,8.873577880859376,0.22264204969406126,-0.00686484426818788,0.13379632989689708
1761413461213590500,8.883590576171875,0.2470271338880062,-0.014788184613361954,0.1542078342847526
1761413461223603700,8.893603759765625,0.22083120087981223,-0.05011274210326373,0.15523016306981444
1761413461233617700,8.90361767578125,0.16435820302963255,-0.057811187651380894,0.15322313409633934
1761413461243630600,8.913630615234375,0.121025841781497,-0.026182489004731177,0.13976831697858869
1761413461253644800,8.923644775390626,0.06938917804658412,-0.018022490359470247,0.16256569358967243
1761413461263657500,8.933657470703125,0.013635726642608642,-0.004526318318024278,0.15543416120931505
1761413461273670700,8.943670654296875,-0.04156125992238521,0.010529504255577922,0.16388905114792288
1761413461283684600,8.9536845703125,-0.05529577076435089,0.020678411695733666,0.160773768671602
1761413461293697500,8.963697509765625,-0.08411328444778919,0.0037326837223023174,0.15398805405423044
1761413461303710700,8.973710693359376,-0.09582534955143927,-0.027233094036206603,0.11707359702438115
1761413461313724700,8.983724609375,-0.10494330650866031,-0.02536335464157164,0.10788922376744449
1761413461323737600,8.993737548828125,-0.0886830765813589,-0.03851400118097663,0.10538286696970463
1761413461333751600,9.00375146484375,-0.06786825208961964,-0.04667809147946536,0.09674779815860092
1761413461343764500,9.013764404296875,-0.024312603479623794,-0.0457973631221801,0.10051986404322087
1761413461353777700,9.023777587890624,0.006604512831568717,-0.041675826212763785,0.08908215890154242
1761413461363791600,9.03379150390625,0.03313128522932529,-0.04453326147049665,0.09052307842485606
1761413461373804500,9.043804443359376,0.04148293398916721,-0.050144014024361964,0.07616736694462597
1761413461383817700,9.053817626953125,0.0478401940613985,-0.05750402139835059,0.0686909666493535
1761413461393831700,9.063831787109375,0.0013876549661159514,-0.06382810985334217,0.05283507973924279
1761413461403844600,9.0738447265625,-0.026734862190484997,-0.06758614721260965,0.025202976448088884
1761413461413858600,9.083858642578125,-0.051509237962961196,-0.05450761606134474,-0.011617007231339812
1761413461423871700,9.093871826171876,-0.04706687160134315,-0.047688437565788624,-0.05030417302213609
1761413461433884700,9.103884765625,-0.04304126934707164,-0.03923201325722039,-0.06937193465083837
1761413461443898600,9.113898681640626,-0.017962942191958427,-0.0059526247940957545,-0.05535042356103658
1761413461453911600,9.12391162109375,0.00497661936879158,-0.0033021102853119373,-0.042762525470927355
1761413461463924700,9.1339248046875,0.03472644546627998,-0.005133344300463795,-0.045849312505126
1761413461473938700,9.143938720703124,0.07763327477872371,-0.008059022488817572,-0.052343058438599106
1761413461483951600,9.15395166015625,0.13089140223562717,-0.030315862482413646,-0.0566291382599622
1761413461493965600,9.163965576171876,0.13107669567465782,-0.04801533143259585,-0.06537007859833538
1761413461503978800,9.173978759765625,0.1594160704523325,-0.058241614957898855,-0.09144019326977432
1761413461513991700,9.18399169921875,0.17094050402939318,-0.07989449770897626,-0.10487740166559814
1761413461524005600,9.194005615234374,0.16838088267445564,-0.09245821120589971,-0.09223609288781881
1761413461534019600,9.20401953125,0.12140636553168296,-0.09027925973162054,-0.07282799338884652
1761413461544032300,9.2140322265625,0.09916881476044655,-0.08181231402903795,-0.07422609668374061
1761413461554046500,9.22404638671875,0.053776598373055456,-0.07647665208950638,-0.1003877620961517
1761413461564059400,9.234059326171876,-0.023199673801660537,-0.05731755891554057,-0.1219845307458192
1761413461574073300,9.2440732421875,-0.09597031098008155,-0.03170388277471065,-0.10584295876212417
1761413461584086500,9.25408642578125,-0.11845686807632445,-0.002208469829708338,-0.11417904462665318
1761413461594099200,9.26409912109375,-0.09950082319378853,0.018785218360275028,-0.09644202014505862
1761413461604113400,9.274113525390625,-0.04065291290581226,0.030734672416374086,-0.03771057584360241
1761413461614126300,9.284126220703126,0.044774961271882054,0.02306793718077242,0.005028276490792632
1761413461624139300,9.29413916015625,0.09952595763504504,0.022672142796218393,0.05190408249944448
1761413461634153500,9.304153564453125,0.10084522354006767,0.02229118065461516,0.06525229743756353
1761413461644166400,9.31416650390625,0.09397942942380905,0.019422493350505828,0.048452480740845204
1761413461654180400,9.324180419921875,0.10193184973299503,0.007237550038099288,0.02700038125887513
1761413461664193300,9.334193359375,0.07844459116160869,-0.024943229533359406,0.030525705840811133
1761413461674206500,9.34420654296875,0.06959259166419506,-0.03999444899708032,0.024340295204147697
1761413461684220400,9.354220458984376,0.0734773241430521,-0.038671091438829894,0.019344898069649934
1761413461694233300,9.3642333984375,0.08008826671540736,-0.040084246172383424,0.02323167637512088
1761413461704246300,9.374246337890625,0.0694207422286272,-0.017054083718732,0.032577742999792096
1761413461714260200,9.38426025390625,0.04643208082914352,0.014587693605199455,0.04096249031163752
1761413461724273400,9.3942734375,0.050593876683712,0.009546484567597508,0.07692395746558904
1761413461734287600,9.40428759765625,0.03648760991990566,-0.005167027374356985,0.0894890592020005
1761413461744300300,9.41430029296875,0.07690671406984328,0.006809387753903866,0.09067088939771055
1761413461754313500,9.4243134765625,0.10704466270208358,0.00017849837206304072,0.12189626794047653
1761413461764327200,9.4343271484375,0.12945757004022598,-0.023394684917107222,0.1301698830280453
1761413461774340400,9.44434033203125,0.13717851968109607,-0.029608079539239406,0.09702968383990228
1761413461784353500,9.454353515625,0.12070084761083125,-0.03569024899713695,0.07812186201326549
1761413461794367200,9.4643671875,0.1239192251354456,-0.04474968070015311,0.059848611763119695
1761413461804380400,9.47438037109375,0.11032850667834282,-0.05652691999450326,0.034384792421758174
1761413461814394400,9.484394287109374,0.09332885656058788,-0.08274711066111921,0.034249256408587093
1761413461824407300,9.4944072265625,0.04793021043241024,-0.07939743490703403,0.022491014075651763
1761413461834420500,9.50442041015625,0.0034019173979759213,-0.06860906051956117,0.029530849584564565
1761413461844434400,9.514434326171875,-0.03207037799954414,-0.06735518800094724,0.011748159330338239
1761413461854447400,9.524447265625,-0.10111819526255131,-0.05328048541918397,0.01202792611978948
1761413461864460500,9.53446044921875,-0.13916180245280266,-0.027599077804386613,0.015321926163882017
1761413461874474200,9.54447412109375,-0.12238719326257705,-0.007538651876524091,0.008072247296571732
1761413461884487400,9.5544873046875,-0.09736147307753562,-0.006405702323839068,0.012901567149162291
1761413461894500600,9.56450048828125,-0.08409925592243671,0.0031520342901349067,0.02433715339899063
1761413461904514300,9.574514404296876,-0.08439093234539032,-0.0032820904105901718,0.017055691153928635
1761413461914527500,9.584527587890625,-0.07206278117001057,-0.003996303094550967,0.024442951861023902
1761413461924541400,9.59454150390625,-0.03856207810640335,-0.02232661729417741,0.010563771851360797
1761413461934554400,9.604554443359374,0.014392097967863083,-0.03268083804808557,-0.027021131785959003
1761413461944567600,9.614567626953125,0.06285656140744686,-0.03850150702558457,-0.04671959253363311
1761413461954581500,9.62458154296875,0.09202186561524868,-0.047158349277079105,-0.04899944709911942
1761413461964594400,9.634594482421875,0.10579203229248522,-0.04534450478814542,-0.05961867546476424
1761413461974607400,9.644607421875,0.14963292758464813,-0.024256124052032826,-0.058090662179887294
1761413461984621300,9.654621337890624,0.10037059176564216,-0.03781571671850979,-0.05543466777838766
1761413461994634500,9.664634521484375,-0.019039631512761116,-0.05697035291306674,-0.08252681897394358
1761413462004648400,9.6746484375,-0.03936345761716366,-0.03351283189281821,-0.16022066483348607
1761413462014661400,9.684661376953125,0.09978723891973496,-0.037389965587109324,-0.14204904832690954
1761413462024674300,9.69467431640625,0.2426607553720474,-0.03531505900919437,-0.07475545432008802
1761413462034688500,9.7046884765625,0.30429917316138744,-0.04155899490006268,0.0022035013936460017
1761413462044701400,9.714701416015625,0.26088322528302665,-0.04359912242554128,0.01253653322905302
1761413462054714400,9.72471435546875,0.11060907718539237,-0.00477598223015666,-0.017456088648363947
1761413462064728600,9.734728515625,0.017315876460075378,-0.007620484941080212,-0.056621685605868693
1761413462074741200,9.7447412109375,-0.021361352458596227,-0.03193725313916802,-0.05011361888609826
1761413462084755500,9.75475537109375,-0.009582651859521864,-0.03298639686591923,-0.05105659882463515
1761413462094768400,9.764768310546875,0.02381692891716957,-0.006090645025297999,-0.043661958528682585
1761413462104781300,9.77478125,0.14655541983544826,0.014943009848892687,0.007990633427724242
1761413462114795500,9.78479541015625,0.2393020925939083,-0.014882073441892862,0.030056700089573857
1761413462124808200,9.79480810546875,0.12246201206445693,-0.06363762878254056,-0.057701297536119814
1761413462134821400,9.8048212890625,0.07155190903842448,-0.08442651511542498,-0.0478010310947895
1761413462144835600,9.814835693359376,0.06185293732285499,-0.04904065589234233,-0.03179046507962048
1761413462154848300,9.82484814453125,-0.050287002691626545,0.024336641942337155,-0.016347031427919864
1761413462164861400,9.834861328125,-0.10721592761576175,0.0647268487913534,0.05233947824202478
1761413462174875400,9.84487548828125,-0.09337854092121124,0.12183719469700008,0.03393814463280141
