time,seconds_elapsed,z,y,x
1761413674349884400,0.021884521484375,0.36796880451738834,0.017523600926622748,-0.201788062235713
1761413674359898600,0.031898681640625,0.27977029658257957,0.021265344738215206,-0.20062997824177145
1761413674369911600,0.04191162109375,0.15795359668433664,0.07568674382083118,-0.15968721554391085
1761413674379925500,0.051925537109375,0.04201718699634075,0.08707965997271239,-0.14621552035659552
1761413674389938700,0.061938720703125,-0.051045712104439735,0.09461970008872449,-0.14017689777947961
1761413674399952400,0.071952392578125,-0.10243103142678738,0.06885813990980387,-0.13860950233228503
1761413674409965600,0.081965576171875,-0.09623451487421988,0.05201148839667439,-0.1007556455604732
1761413674419979500,0.0919794921875,-0.0391132822483778,0.018126754451543093,-0.07208228958807886
1761413674429992400,0.101992431640625,0.05130933147668838,-0.03652677288651466,-0.04175809766873717
1761413674440006400,0.11200634765625,0.13582710507214069,-0.07366605164818466,0.01906571580208838
1761413674450019600,0.12201953125,0.18211422447264194,-0.1104020833712071,0.07129201599322259
1761413674460032500,0.132032470703125,0.17755320016741752,-0.14680574133470653,0.13298873984105886
1761413674470046500,0.14204638671875,0.11542612207829951,-0.2129818756189197,0.13631569230668247
1761413674480059400,0.152059326171875,-0.004252981269359589,-0.2236994497925043,0.1361398973483592
1761413674490073300,0.1620732421875,-0.15971066948473453,-0.21507665594108402,0.13084171787500382
1761413674500086500,0.17208642578125,-0.34807284843623637,-0.18867402137964961,0.12302059579528868
1761413674510100500,0.1821005859375,-0.5357628272145987,-0.11207944199889898,0.11068543035723269
1761413674520113400,0.192113525390625,-0.6897410905271768,0.03162906397283077,0.08169270623736083
1761413674530127600,0.202127685546875,-0.7931839293450117,0.15306202525049448,0.08021773831397294
1761413674540140300,0.212140380859375,-0.824731744775176,0.285260126170516,0.10079305496141314
1761413674550154500,0.222154541015625,-0.7856184625267982,0.370303531075269,0.15570216449573634
1761413674560167400,0.23216748046875,-0.6838917799770832,0.41471440827511247,0.1607358478140086
1761413674570181600,0.242181640625,-0.537690580406785,0.39025772014968096,0.17213387853242457
1761413674580194600,0.252194580078125,-0.29427637631893155,0.3659622139353305,0.20252887066565453
1761413674590208500,0.26220849609375,-0.04152560408711433,0.2762145037971437,0.24099245683364567
1761413674600221400,0.272221435546875,0.15500702183842657,0.17454006289131938,0.24856289208792148
1761413674610235400,0.2822353515625,0.2255284187853336,0.09115721160992979,0.22853066934123634
1761413674620248600,0.29224853515625,0.2282359241783619,0.05236307831332087,0.19943506936877964
1761413674630262300,0.30226220703125,0.23579554577767847,-0.0057804100323468445,0.1551321095228195
1761413674640275500,0.312275390625,0.25057927341163155,-0.10141842031814158,0.13723434152156114
1761413674650289400,0.322289306640625,0.2641764216095209,-0.1513535408321768,0.10251242609992622
1761413674660302300,0.33230224609375,0.29943244390785695,-0.17756131040863693,0.08444361238069832
1761413674670316500,0.342316650390625,0.30258477045893667,-0.17946100655011832,0.09928688818216323
1761413674680329500,0.35232958984375,0.29996202073991296,-0.1691880343388766,0.09188377231881022
1761413674690342400,0.36234228515625,0.31975159383714197,-0.1310043610908091,0.12197072141617536
1761413674700356600,0.372356689453125,0.37147535133361814,-0.12179251530505716,0.1333672177646309
1761413674710369500,0.38236962890625,0.3676432258248329,-0.12202318225577473,0.1240739042405039
1761413674720383500,0.392383544921875,0.3166062815487385,-0.12066752986311911,0.0962831763215363
1761413674730396400,0.402396484375,0.28004502187073227,-0.11407565731741487,0.09576514379680157
1761413674740410600,0.41241064453125,0.25859248399734497,-0.1271130527406931,0.08915193620212375
1761413674750423000,0.422423095703125,0.21417115846872328,-0.17000811855010686,0.08508037591427564
1761413674760437000,0.43243701171875,0.15148293936550616,-0.2050421686608344,0.07206219664812087
1761413674770450000,0.442449951171875,0.13234978435039518,-0.20411014850772916,0.09600216742306947
1761413674780463900,0.4524638671875,0.12973404889404774,-0.22544285939373074,0.10760879939086734
1761413674790477000,0.46247705078125,0.1542962432205677,-0.2660984757132828,0.15165237764827907
1761413674800491000,0.472490966796875,0.13149872047901154,-0.24403328583426773,0.18635237349905073
1761413674810504000,0.48250390625,0.07130991697609425,-0.26841837002821267,0.23156477634012698
1761413674820518100,0.49251806640625,0.026555413970351216,-0.25555530825853345,0.25808183106146754
1761413674830530800,0.50253076171875,-0.010883797585964201,-0.18540961275622247,0.27215697203464806
1761413674840545000,0.512544921875,-0.0688064097225666,-0.1258433250658214,0.2825694257818162
1761413674850558000,0.522557861328125,-0.05305296027362346,-0.0767906864747405,0.30089879013337195
1761413674860572200,0.532572265625,-0.0634556963443756,-0.05567001090422272,0.3204761817846447
1761413674870585000,0.542585205078125,-0.08572656486332415,-0.059343730980902905,0.29741832760646936
1761413674880599000,0.55259912109375,-0.11452712741196155,-0.061643020899221294,0.27833398016914723
1761413674890612000,0.562612060546875,-0.1209428396731615,-0.06944463456086813,0.26067469709888097
1761413674900626000,0.5726259765625,-0.11703706440627575,-0.0672111033551395,0.21315065631456673
1761413674910639000,0.58263916015625,-0.07200549802482127,-0.07917093267478048,0.22194880673289297
1761413674920653000,0.592653076171875,-0.04090308827459812,-0.11028400994949042,0.21337708548158407
1761413674930666000,0.602666015625,0.0010007014751434325,-0.09427673186995089,0.2601204972822219
1761413674940679200,0.61267919921875,0.03569908989071846,-0.09138422529883682,0.27937260250188406
1761413674950692900,0.62269287109375,0.03769932379722595,-0.07751900074928998,0.2549664755199104
1761413674960706000,0.6327060546875,0.03498655770719051,-0.07564728859327734,0.28223887865319847
1761413674970720000,0.642719970703125,0.05869476555287838,-0.07088014725670218,0.30408399604074654
1761413674980733000,0.65273291015625,0.09095920481979847,-0.10026106697656213,0.3067360449194908
1761413674990747000,0.662746826171875,0.1053489647001028,-0.12386603364348411,0.29398528441786764
1761413675000760000,0.672760009765625,0.07339256846904754,-0.14545754159614444,0.24315336119458078
1761413675010774000,0.68277392578125,0.0071007719159126275,-0.15837269887924194,0.22274178374148904
1761413675020787000,0.692786865234375,0.0013064064234495163,-0.10253617230169475,0.22646504204832016
1761413675030801200,0.70280126953125,0.006721417209506034,-0.054710299026593565,0.24127836110293863
1761413675040813800,0.712813720703125,0.029261750319600103,-0.03461713987290859,0.2657092571999878
1761413675050828000,0.722828125,0.0200859256953001,-0.012391644865646957,0.2687819426435977
1761413675060841000,0.732841064453125,-0.00886310541331768,0.003906725114956498,0.23073497445248067
1761413675070855000,0.74285498046875,0.004353519034385681,0.021922128146514296,0.21106084442846476
1761413675080868000,0.7528681640625,0.054930444583296774,0.008029723329097032,0.18463022588156164
1761413675090882000,0.762882080078125,0.1271042849123478,-0.016086261599883436,0.1724298658043146
1761413675100895000,0.77289501953125,0.2025245598167181,-0.059327802759408944,0.19071078790426252
1761413675110909000,0.782908935546875,0.274001065531373,-0.07598134285323321,0.1890046415735036
1761413675120922000,0.792922119140625,0.39540684654116626,-0.11868161674290895,0.20462978846766053
1761413675130935800,0.802935791015625,0.4502613032788038,-0.14085128990970552,0.2013663296923041
1761413675140949000,0.812948974609375,0.44203824933469293,-0.15120536453314123,0.20164120111092923
1761413675150963000,0.822962890625,0.4074579343408346,-0.175211240151152,0.20286299799084662
1761413675160976000,0.832975830078125,0.3952671458095312,-0.19612170703709125,0.1555903016190976
1761413675170990000,0.842989990234375,0.37948739287555217,-0.21998598222732543,0.12321385334506631
1761413675181003000,0.8530029296875,0.3094149087399244,-0.21539332067482173,0.08476765670329332
1761413675191017000,0.863016845703125,0.22612463111281395,-0.15998948642611502,0.046500689085945485
1761413675201030000,0.87302978515625,0.13381459620594977,-0.1047603511571884,0.0027609891459345814
1761413675211044000,0.883044189453125,0.07158171965479851,-0.024458441691100594,-0.014995616818964481
1761413675221057000,0.89305712890625,0.013892331752181053,0.04226750849559903,-0.02988704261109233
1761413675231070000,0.903070068359375,0.019944471397995947,0.0707486298315227,-0.030947657579928636
1761413675241084200,0.913084228515625,0.12351473598778247,0.10198343378975987,-0.04636281498521566
1761413675251097000,0.92309716796875,0.21792028186917303,0.09163739634230732,-0.04328274995274842
1761413675261111000,0.933111083984375,0.2832774279206991,0.07937646518424153,-0.009024871846288442
1761413675271124000,0.9431240234375,0.3161550306499004,0.04647811192795634,-0.033395050732046364
1761413675281138000,0.953137939453125,0.3403688499301672,0.021085896518081425,-0.036263591905683276
1761413675291151000,0.963151123046875,0.3066606415957212,0.011376549538969993,-0.020879779486730695
1761413675301165000,0.9731650390625,0.23355624241828918,0.017414222268015145,-0.0013624474596232174
1761413675311178000,0.983177978515625,0.1816927841901779,0.05749576502665877,-0.015527823999524116
1761413675321192000,0.99319189453125,0.1176665944814682,0.1175714635439217,-0.02464183543398976
1761413675331204900,1.003204833984375,0.017494740158319474,0.16008447123318909,-0.024889526584744453
1761413675341219000,1.013218994140625,-0.06200374397039413,0.16599866371303795,-0.0368234177455306
1761413675351232000,1.02323193359375,-0.1285813717275858,0.18355149073414503,-0.05123758141472935
1761413675361246200,1.03324609375,-0.16048925264179706,0.23770116020329296,-0.07638773169703782
1761413675371259000,1.0432587890625,-0.17748598015010356,0.25049459080286324,-0.09862316357642412
1761413675381273000,1.053273193359375,-0.1628928066521883,0.3014088585473597,-0.11392660423554479
1761413675391286000,1.0632861328125,-0.15559212825000285,0.33614407184198497,-0.09899155849739909
1761413675401300000,1.073300048828125,-0.15017010320127008,0.3541293719962239,-0.056615401995554565
1761413675411313200,1.083313232421875,-0.15353461119830608,0.3402724768836051,-0.019574249846115707
1761413675421326800,1.093326904296875,-0.19813187781572342,0.3463851876102388,-0.006356091028451919
1761413675431340000,1.103340087890625,-0.2706885799825191,0.349536637378484,0.010954232473671435
1761413675441354000,1.11335400390625,-0.3039168958455324,0.31313882463388143,-0.019827055563405156
1761413675451367000,1.123366943359375,-0.3236445096224546,0.2935625289611518,-0.06606726708225906
1761413675461380000,1.133380126953125,-0.36780221577882766,0.2592252289429307,-0.10608246660642326
1761413675471394000,1.14339404296875,-0.3828109843403101,0.24163966869600115,-0.09618629181832075
1761413675481407000,1.153406982421875,-0.3771376148790121,0.1921060416549444,-0.08406177345626056
1761413675491421000,1.1634208984375,-0.394116806730628,0.15556326748169957,-0.06737710757181048
1761413675501434000,1.17343408203125,-0.3699585170298815,0.14033566853776575,-0.006633008273690939
1761413675511447800,1.18344775390625,-0.35176351964771746,0.12592515813037752,0.04310067138411104
1761413675521461000,1.1934609375,-0.304286898201704,0.13004618358314038,0.05845430786050856
1761413675531475000,1.203474853515625,-0.27155893307626244,0.13318981537111102,0.08608538823835551
1761413675541487900,1.21348779296875,-0.25938100402653214,0.12036876611225306,0.06445318294912576
1761413675551502000,1.223502197265625,-0.276475931212306,0.11003967979960143,0.026868535040132698
1761413675561515000,1.233514892578125,-0.2609691500008106,0.09780395614802836,-0.022738924422115087
1761413675571529000,1.243529052734375,-0.21331541842222213,0.08594495685435831,-0.06563479394912719
1761413675581542000,1.2535419921875,-0.14637421804964543,0.0435500225868076,-0.09741769677679986
1761413675591556000,1.26355615234375,-0.06492518437504768,-0.021510040214285254,-0.14563910870812832
1761413675601569000,1.273569091796875,0.01513502528965473,-0.048970367135107516,-0.14164799324534832
1761413675611583000,1.2835830078125,0.1235743572205305,-0.09893778248354793,-0.17492730864323675
1761413675621596200,1.29359619140625,0.23100772697925567,-0.15308080301620064,-0.16331727914195507
1761413675631609900,1.30360986328125,0.34216099404394623,-0.1678818471111357,-0.1426448222629726
1761413675641623000,1.313623046875,0.4375894532322883,-0.2119442031342536,-0.11526172529682516
1761413675651637000,1.323636962890625,0.4577233097225427,-0.2071785961676389,-0.07110387300997972
1761413675661650000,1.33364990234375,0.3835241010457277,-0.19491196592114865,-0.04607702031377703
1761413675671663900,1.343663818359375,0.2683376329421997,-0.1917908382259309,-0.06257544291112571
1761413675681677000,1.353677001953125,0.15456512328982352,-0.15115743373818694,-0.03761347214467823
1761413675691691000,1.36369091796875,0.06783259625434875,-0.1472700709108263,-0.01377769239656627
1761413675701704000,1.373703857421875,0.0317716873139143,-0.14685703313052653,-0.0018367504404857753
1761413675711718100,1.38371826171875,0.034145430707931516,-0.14778620373941956,0.01922715344149619
1761413675721731000,1.39373095703125,0.06278758782446384,-0.1562763841871172,0.027893603771552443
1761413675731745000,1.4037451171875,0.06964227602481841,-0.1375960875060409,0.02609703921098262
1761413675741758200,1.41375830078125,0.09949556249678135,-0.11213504464365541,0.04235752486661076
1761413675751771100,1.423771240234375,0.13536591730117797,-0.11345043809115886,0.02442282238844782
1761413675761785300,1.433785400390625,0.17127718863785266,-0.09774228908866643,0.021524141804873942
1761413675771798000,1.443798095703125,0.23592355607151982,-0.11943228897973894,0.029850290797278283
1761413675781812200,1.453812255859375,0.25646540884077546,-0.11909348547942936,0.045127427971363064
1761413675791825200,1.4638251953125,0.2638333072602749,-0.11439867872670292,0.07161437981538474
1761413675801839000,1.473839111328125,0.2527560329288244,-0.08044884365610779,0.0678849474960938
1761413675811852300,1.483852294921875,0.20523557234108447,-0.04913447165563702,0.0423868240263313
1761413675821866200,1.4938662109375,0.1560685135900974,-0.01816051059067249,0.04545180108752101
1761413675831879200,1.503879150390625,0.14226853629648684,0.005855886421352625,0.05158000164423138
1761413675841893000,1.51389306640625,0.12568038958907127,0.0056014732688665385,0.029972748133167623
1761413675851906000,1.523906005859375,0.11786942357718944,-0.009853139363974332,-0.01435414057765156
1761413675861920000,1.533919921875,0.1279091715544462,-0.01707987574711442,-0.0501833961866796
1761413675871933200,1.54393310546875,0.12402268550992011,-0.022585852752253412,-0.0553411077434197
1761413675881947100,1.553947021484375,0.11738660849630832,-0.008442395783215761,-0.026110848540626466
1761413675891960000,1.5639599609375,0.08565291510522365,0.023692791080847382,0.009378690252639352
1761413675901974300,1.573974365234375,0.018387889605760575,0.039385742514207955,0.014939429652318358
1761413675911987000,1.583987060546875,-0.0409083489716053,0.05972396247014403,0.022324936793744563
1761413675922001200,1.594001220703125,-0.09906886151731013,0.061353098041936754,0.005398424977436662
1761413675932014300,1.604014404296875,-0.13085282379090785,0.047468292009085415,-0.01747771595828235
1761413675942028000,1.614028076171875,-0.1570925959408283,0.01779094662591815,-0.023835925878584383
1761413675952041200,1.624041259765625,-0.1405325062841177,-0.012051380060613154,-0.006685213384963572
1761413675962055200,1.63405517578125,-0.07912263655364513,-0.03619344927892089,-0.015231946325488388
1761413675972068000,1.644068115234375,0.0014478607207536697,-0.0669836512748152,-0.01866626815572381
1761413675982082000,1.65408203125,0.012951251509785652,-0.08669146437272429,-0.005110255685821175
1761413675992095200,1.66409521484375,0.026066753670573234,-0.06769698717594147,-0.033752668530680235
1761413676002108200,1.674108154296875,0.04930266782939434,-0.04478248699121177,-0.029977899232320485
1761413676012122000,1.6841220703125,0.08603986859619617,-0.06084682902023196,-0.00047908875383436675
1761413676022135300,1.69413525390625,0.0935930604547262,-0.08191986605674027,0.002989792933128774
1761413676032149000,1.70414892578125,0.05535130034387111,-0.08194258934520185,0.0022996917771175504
1761413676042162200,1.714162109375,-0.00234627086520195,-0.03153590579666197,0.007743417201004922
1761413676052176100,1.724176025390625,-0.006963993793725967,-0.021869740372151135,0.022992899183183906
1761413676062189000,1.73418896484375,-0.0014876082092523575,-0.024160627788305283,0.0786653943054378
1761413676072203300,1.744203369140625,0.003042436435818672,-0.0038091099593788383,0.08584460175242274
1761413676082216200,1.75421630859375,0.017518705555796623,-0.0057372284777462475,0.09196575151383876
1761413676092230100,1.764230224609375,-0.024784312644600865,0.015244294350408017,0.09545377629268914
1761413676102243000,1.7742431640625,-0.08506605512797832,0.01923489835653454,0.07693093519564717
1761413676112257300,1.78425732421875,-0.14263386247754095,0.05429576340895146,0.05552146927900612
1761413676122270200,1.794270263671875,-0.15603110418915747,0.04977518071196973,0.06698657388426363
1761413676132284200,1.8042841796875,-0.1410071380585432,0.040034634876996274,0.07811093876045197
1761413676142297300,1.81429736328125,-0.12228665549755095,0.011424115007743239,0.06910645211506634
1761413676152311000,1.82431103515625,-0.08803133467435836,-0.010437003666535018,0.10533939315415919
1761413676162324200,1.83432421875,-0.01999707836806774,-0.024105098208785057,0.13140037467107177
1761413676172338200,1.844338134765625,0.04945288995504379,-0.051802558353729544,0.15531656271163374
1761413676182351000,1.85435107421875,0.057582420396804807,-0.08929222145564854,0.1997128633968532
1761413676192365000,1.864364990234375,0.024266426250338553,-0.09099551824219525,0.18089356010388583
1761413676202378200,1.874378173828125,-0.033897008904814716,-0.08195190516281872,0.1456645354103297
1761413676212392200,1.88439208984375,-0.06814589998722076,-0.09206577782221138,0.12835830356143413
1761413676222405000,1.894405029296875,-0.08801438353955746,-0.10370057643856853,0.12004965369310229
1761413676232419300,1.90441943359375,-0.06713409259617328,-0.11019724498149007,0.11063391936570405
1761413676242432000,1.914431884765625,-0.03957797715067863,-0.14127638345398008,0.09077972006704657
1761413676252445200,1.924445068359375,-0.003171615773439407,-0.15493030334040522,0.07306666098292916
1761413676262459100,1.934459228515625,0.02414543021917343,-0.15443981640972196,0.09614500995986162
1761413676272472000,1.94447216796875,0.012598784810304641,-0.14643997676223516,0.12490246401913463
1761413676282486300,1.954486328125,-0.00610942279100418,-0.12793277162574232,0.15246986804362386
1761413676292499000,1.9644990234375,-0.06371697762906552,-0.13491488559804857,0.1454586375746876
1761413676302513200,1.97451318359375,-0.11188275038301944,-0.1455363789860159,0.1226029183724895
1761413676312526300,1.9845263671875,-0.13837795859873295,-0.1468331407982856,0.1426058784920722
1761413676322540000,1.9945400390625,-0.16238661069571972,-0.13334434834569692,0.13893372931797057
1761413676332553200,2.00455322265625,-0.13845160835683346,-0.08325213757380842,0.16587251658271998
1761413676342567200,2.014567138671875,-0.1313870767980814,-0.0434608829986304,0.20752419473491607
1761413676352580000,2.024580078125,-0.12969254783988,0.01486417245902121,0.20875194643158465
1761413676362594000,2.034593994140625,-0.0957943698912859,0.05031739782989025,0.21738964559119192
1761413676372607200,2.044607177734375,-0.07795943799316883,0.10302300597056746,0.17672157164886593
1761413676382621000,2.054620849609375,-0.055196986564993854,0.09664346100129187,0.14322631194535643
1761413676392634000,2.064634033203125,-0.0027677111476659775,0.11745273253507911,0.12193206990621984
1761413676402648300,2.0746484375,0.03561316517293453,0.11586875127926469,0.09798314863983541
1761413676412661000,2.084660888671875,0.03496376135349274,0.11405052287615836,0.07994286689534782
1761413676422675200,2.09467529296875,0.039300329253077505,0.1111857810948044,0.07902772481180727
1761413676432688000,2.104688232421875,0.03610007190704345,0.12355470267198979,0.06066829411555081
1761413676442702000,2.1147021484375,0.03292144187092781,0.1726931929156184,0.05638539263196289
1761413676452715300,2.12471533203125,0.038761400070786475,0.21953495052419603,0.06724953566938638
1761413676462729200,2.134729248046875,0.07042378179132938,0.2549018127858639,0.07564980934392661
1761413676472742100,2.1447421875,0.09791910696029663,0.28000352081656454,0.08861008441038429
1761413676482756000,2.154756103515625,0.15408932247161863,0.27443090831600125,0.07774868131931871
1761413676492769300,2.164769287109375,0.18533786269426344,0.27155615659728644,0.07337331577930599
1761413676502783000,2.174782958984375,0.19909224728047847,0.2683192935679108,0.09618070232775061
1761413676512796200,2.184796142578125,0.18452596178948877,0.2532422090105712,0.07887911012135446
1761413676522809300,2.194809326171875,0.18460078059136867,0.24044804775863884,0.07010032199062406
1761413676532823000,2.204822998046875,0.19660452211797236,0.24282690571919083,0.06485621079206466
1761413676542836200,2.214836181640625,0.19544190807938575,0.2317073996812105,0.03354351929202676
1761413676552850200,2.22485009765625,0.21745675601065156,0.21851371771767733,0.023254874587617814
1761413676562863000,2.234863037109375,0.22564532316327093,0.21882482949346302,0.014096183761209248
1761413676572877000,2.244876953125,0.22033844892680643,0.2223108449783176,0.01129106321260333
1761413676582890200,2.25489013671875,0.17971768472492694,0.22537483565881847,0.015744462424889204
1761413676592904200,2.264904296875,0.12309914092421531,0.20128077030070124,0.0035896219898015258
1761413676602917000,2.274917236328125,0.05797288101911544,0.19449732070565223,-0.015501630112342535
1761413676612931300,2.284931396484375,0.014781389546394347,0.1984916510388255,-0.03604684388246387
1761413676622944000,2.294944091796875,-0.0194803610175848,0.18205146143473683,-0.04421217628996819
1761413676632958200,2.304958251953125,-0.006622048488259315,0.1508763517744839,-0.060434594957530494
1761413676642971100,2.31497119140625,0.026302900514006612,0.12844678556248545,-0.049649362375214695
1761413676652985000,2.324985107421875,0.0907663125962019,0.08278590830154717,-0.0325480785138905
1761413676662998300,2.334998291015625,0.1555459510207176,0.043440936189144845,-0.028599779279530047
1761413676673012200,2.34501220703125,0.19141630582511424,0.013686799242720007,0.0048867491282522674
1761413676683025200,2.355025146484375,0.20867431461811065,0.001185921848937869,0.013780030484125017
1761413676693039000,2.3650390625,0.2143365781635046,-0.012097922616079448,0.036741255887411534
1761413676703052000,2.375052001953125,0.2471697572290897,-0.026777020831778645,0.053723479946330185
1761413676713066000,2.38506591796875,0.26095745956301686,-0.025649624237045643,0.050147923014499246
1761413676723079200,2.3950791015625,0.2496457919538021,-0.03829042155817151,0.018264044030383227
1761413676733093400,2.40509326171875,0.21165420721173286,-0.04711640983149409,0.00826342248711735
1761413676743106000,2.41510595703125,0.17488018156588075,-0.044126653430983424,-0.02035743611305952
1761413676753120000,2.4251201171875,0.1202501812338829,-0.03036138212457299,-0.01589863007329404
1761413676763133000,2.4351328125,0.09392974506318569,-0.02392170446589589,0.027848011064156887
1761413676773147000,2.44514697265625,0.06924480113983154,0.012232289585471153,0.03803147836104035
1761413676783160000,2.45516015625,0.01933481506705284,0.05095847221240401,0.02033650292288512
1761413676793173800,2.465173828125,-0.047131753531098365,0.07653831914886831,0.033115393540449435
1761413676803187000,2.47518701171875,-0.08300912259817123,0.07151165009327233,0.04869662822764367
1761413676813200000,2.485199951171875,-0.07346154205203057,0.06734057495370507,0.03289513838589191
1761413676823213800,2.4952138671875,-0.043350481426715846,0.03951850204840302,0.037024529808200896
1761413676833227000,2.50522705078125,-0.06015665479898452,0.0438463751848787,0.059441273071244353
1761413676843241000,2.515240966796875,-0.08470598964393139,0.05126688057444989,0.04702577240597457
1761413676853254000,2.52525390625,-0.1276040511280298,0.05164864643365145,0.03797894445620477
1761413676863267800,2.535267822265625,-0.1671966413259506,0.0536945461127907,0.019092055819742382
1761413676873280800,2.54528076171875,-0.15869944661557672,0.06269874049723148,0.005626315449178219
1761413676883294700,2.555294677734375,-0.15427344686686992,0.04273461455069482,0.020773688763752577
1761413676893308000,2.565307861328125,-0.1254787295371294,0.0429707613941282,0.03265416923686862
1761413676903321900,2.57532177734375,-0.10799860242605208,0.014282865439727902,-0.0014234569318592547
1761413676913334800,2.585334716796875,-0.10457096606492995,0.0031523996163159607,0.025065832999721167
1761413676923349000,2.595348876953125,-0.06280395443737506,0.0406106081340462,0.0425339774120599
1761413676933361700,2.605361572265625,-0.030799627411365507,0.0467350823637098,0.07174604337103664
1761413676943376000,2.6153759765625,0.0007552022814750671,0.04946311908811331,0.10003010776489972
1761413676953389000,2.62538916015625,0.03149754654765129,0.04000387441255152,0.1162407994620502
1761413676963402800,2.63540283203125,0.04072480909824371,0.006435001483559608,0.12110310826878994
1761413676973416000,2.645416015625,0.05684241568446159,0.0028950638543814417,0.12254665814060717
1761413676983430000,2.655429931640625,0.06963058558702469,-0.0321821678109467,0.10543050550371408
1761413676993442800,2.66544287109375,0.09941665204167366,-0.03807086052335799,0.10163370703663677
1761413677003456800,2.675456787109375,0.09683715694248676,-0.05528619921840727,0.12241207197550684
1761413677013470000,2.685469970703125,0.09646598554253577,-0.043367067235335705,0.11314509846903383
1761413677023483600,2.695483642578125,0.10955284613072871,-0.05799019748009741,0.1309935109032318
1761413677033496800,2.705496826171875,0.1112877070993185,-0.04866546590439975,0.1413352009691298
1761413677043511000,2.715510986328125,0.07937164287865162,-0.046200537095591424,0.13829137629382313
1761413677053523700,2.725523681640625,0.030740006178617475,-0.025280352533236145,0.09589180238377303
1761413677063538000,2.735537841796875,0.009393266767263412,0.013602335829660295,0.08540460289996117
1761413677073550800,2.74555078125,0.021295301485061643,-0.008776523108407855,0.10037095709182321
1761413677083564800,2.755564697265625,0.04099135107994079,-0.03201872087754309,0.08426244712751359
1761413677093578000,2.765577880859375,0.05021569102108478,-0.04664155886135995,0.09616590661741793
1761413677103591000,2.7755908203125,0.036973932132124895,-0.038468043147400016,0.12170607913061976
1761413677113604900,2.78560498046875,0.04449965146183967,-0.046018348929099735,0.14068229001834986
1761413677123617800,2.79561767578125,0.04566401906609535,-0.036000703185796734,0.1391642501382157
1761413677133632000,2.805632080078125,0.04656593634188175,-0.05289824463594705,0.16429861832950263
1761413677143645000,2.81564501953125,0.018324761241674422,-0.03553008999936282,0.14699691652525215
1761413677153659000,2.825658935546875,-0.005886719951033592,-0.027137853500805793,0.12178440506383775
1761413677163672000,2.835672119140625,-0.042514030602574346,-0.04449585206955671,0.09153115948885679
1761413677173685800,2.845685791015625,-0.033440497308969495,-0.049931576850079,0.07291965372767299
1761413677183699000,2.855698974609375,-0.035652328139543533,-0.04871547905858606,0.015205533242598174
1761413677193713000,2.865712890625,-0.01887245825231075,-0.06838065859116614,-0.006213577285222709
1761413677203725800,2.875725830078125,0.019780805268883705,-0.08876019693817942,-0.03934785818923264
1761413677213739800,2.88573974609375,0.06460837351083755,-0.10626323000080883,-0.056550666196271776
1761413677223753000,2.8957529296875,0.08342354861795902,-0.11350563887711614,-0.0775001499183476
1761413677233767000,2.905766845703125,0.06039455520808697,-0.1106281106794253,-0.07871423841584474
1761413677243779800,2.91577978515625,0.033203181421756746,-0.08417085985392332,-0.06838829390835016
1761413677253794000,2.9257939453125,0.01841594665646553,-0.08088909823689609,-0.06707268126513809
1761413677263806700,2.935806640625,-0.0013578443497419357,-0.075877297956869,-0.05912559471819549
1761413677273821000,2.945821044921875,-0.00485679238140583,-0.05173643431495875,-0.06954864292461424
1761413677283833900,2.955833740234375,-0.02228898869752884,-0.0474202881488949,-0.09907664296496659
1761413677293847800,2.965847900390625,-0.05557341866195201,-0.008333272852934897,-0.10150927693936973
1761413677303861000,2.975861083984375,-0.058311903715133666,0.0021619272742420433,-0.10836787412986158
1761413677313875000,2.985875,-0.0054787236720323556,-0.021985256510600446,-0.10630641155540943
1761413677323887900,2.995887939453125,0.05534662416875362,-0.04519088512901216,-0.0961177931593731
1761413677333901800,3.00590185546875,0.08377133914232253,-0.03176083712633699,-0.09849730870705098
1761413677343914800,3.015914794921875,0.14936463203728198,-0.05628043442014605,-0.10417593886535614
1761413677353928700,3.0259287109375,0.1955617350667715,-0.08161993326209485,-0.0812415649363771
1761413677363942000,3.03594189453125,0.20739771881103514,-0.09716664462517946,-0.06637231444343925
1761413677373955800,3.045955810546875,0.1833750381886959,-0.10015026354584843,-0.04379007842037826
1761413677383968800,3.05596875,0.15772329505980015,-0.09637754007410257,-0.011724705389514565
1761413677393983000,3.06598291015625,0.13619652290642262,-0.08923987021390348,0.01895615448039025
1761413677403995600,3.07599560546875,0.13835750033259392,-0.09949980028048157,0.02511621148008853
1761413677414008800,3.0860087890625,0.11043898131549358,-0.12644465195983648,0.017805011683888733
1761413677424023000,3.09602294921875,0.0169184015750885,-0.16305234459545462,-0.043031222877092656
1761413677434035700,3.10603564453125,-0.1438344704389572,-0.1653798742275685,-0.12980985407661647
1761413677444050000,3.1160498046875,-0.3143827602803707,-0.11318433450087904,-0.20643449980206785
1761413677454062800,3.126062744140625,-0.4539683411031961,-0.08289532349277287,-0.258585579332523
1761413677464076800,3.136076904296875,-0.5037351193130016,-0.06439297719448804,-0.2800415878046304
1761413677474090000,3.146090087890625,-0.46168286100327965,-0.03320716347713023,-0.2961239038817584
1761413677484104000,3.15610400390625,-0.42953649515807624,-0.03543864885624498,-0.29704481811895966
1761413677494116900,3.166116943359375,-0.3514151446014642,-0.01854476066790521,-0.23229462498463688
1761413677504130800,3.176130859375,-0.2580897951722145,-0.0031411110373213884,-0.2228926634542644
1761413677514144000,3.18614404296875,-0.15525836625099182,-0.005086655614525079,-0.18540073533002285
1761413677524157700,3.19615771484375,-0.018045944300293923,-0.03175046186279505,-0.1517153598818928
1761413677534171000,3.2061708984375,0.12218377964496611,-0.07487151844780891,-0.10372348239012062
1761413677544184800,3.216184814453125,0.27457097437381744,-0.06340155500434339,-0.038380109135620295
1761413677554197800,3.22619775390625,0.34653672491014004,-0.1348698408799246,-0.012330014338903128
1761413677564212000,3.2362119140625,0.4032920468330383,-0.15976002505179493,-0.02425769495461136
1761413677574225000,3.246224853515625,0.44100539915561676,-0.1484676466649398,-0.006965418565832078
1761413677584238800,3.25623876953125,0.4819985038012266,-0.14449983901251107,0.048124381297640496
1761413677594251800,3.266251708984375,0.5463783292531967,-0.13426548177860675,0.09428641301374882
1761413677604266000,3.276265869140625,0.5951315465062856,-0.12624211512506006,0.14968162556458264
1761413677614279000,3.28627880859375,0.6065455054461956,-0.09658014997411518,0.2300602169960737
1761413677624292900,3.29629296875,0.5847697269678116,-0.10300784493405371,0.25108605388998984
1761413677634306000,3.30630615234375,0.5164964012086392,-0.12425543481986968,0.2471256258264184
1761413677644319700,3.31631982421875,0.4256576078981161,-0.11931304651424288,0.23293657614998517
1761413677654333000,3.3263330078125,0.280828865724802,-0.09346508669350295,0.22452355259172618
1761413677664347000,3.336346923828125,0.15259469999969005,-0.09794351074919104,0.22991620541550217
1761413677674359800,3.34635986328125,0.03269172476828098,-0.07524495487008244,0.2395262567386031
1761413677684373800,3.356373779296875,-0.08254910387098789,-0.03801379657387733,0.24751469820924102
1761413677694387000,3.366386962890625,-0.1368856742143631,0.01439005214124918,0.28519918976351616
1761413677704401000,3.37640087890625,-0.18373744176030157,0.04244969666209072,0.2947167404975742
1761413677714413800,3.386413818359375,-0.17140402988791464,0.039066776225529606,0.28751046238057315
1761413677724428000,3.396427978515625,-0.15371522846221922,0.02096110109463334,0.2956578207399696
1761413677734440700,3.406440673828125,-0.12436813794672488,0.01966028416175395,0.29543073398582637
1761413677744454000,3.416453857421875,-0.10807517479360103,0.011749255308881401,0.3150377901230007
1761413677754467800,3.4264677734375,-0.11763736838698387,0.034412666809372605,0.3241162187874317
1761413677764481000,3.43648095703125,-0.11305588581562041,0.036380569348856806,0.3266107390169054
1761413677774495200,3.4464951171875,-0.10310790777504443,0.05452540744636208,0.3678700933832675
1761413677784508000,3.4565078125,-0.08829904569983482,0.05674812499713152,0.37192616384103894
1761413677794522000,3.466522216796875,-0.0904518398195505,0.05796634168047458,0.3815520703203976
1761413677804535000,3.47653515625,-0.11401157910525798,0.06444909129589796,0.39843043214604257
1761413677814549000,3.486549072265625,-0.10597089599072933,0.09487798569872975,0.36349151297286153
1761413677824562200,3.496562255859375,-0.0860819541722536,0.12273366861268878,0.3618169308241457
1761413677834576100,3.506576171875,-0.06176642808318138,0.13522588777597994,0.37563079051263626
1761413677844589000,3.516589111328125,-0.006828384715318679,0.15102964264005422,0.3565369445946067
1761413677854603000,3.52660302734375,0.0520797313272953,0.13962814132291823,0.32434951608665286
1761413677864616000,3.536615966796875,0.09639701195955276,0.10895984867364168,0.29558782424367963
1761413677874630000,3.5466298828125,0.1162760169059038,0.05998389204796403,0.22939495802037416
1761413677884643000,3.55664306640625,0.1198275719076395,0.05584500214494764,0.18782412655204533
1761413677894657000,3.566656982421875,0.07357961547374725,0.0583600537057966,0.18172471369840204
1761413677904670000,3.576669921875,0.017540332865715026,0.0732140700969845,0.15932868442982434
1761413677914684200,3.58668408203125,-0.04379354901909828,0.09697028180286288,0.10801789164841175
1761413677924696800,3.59669677734375,-0.10051087701916694,0.0990301734747365,0.07107230882793665
1761413677934711000,3.6067109375,-0.13480360724329948,0.1003425347149372,0.03977401117943227
1761413677944724000,3.616723876953125,-0.15310440308749676,0.08672361307665705,-0.036968233043700456
1761413677954738200,3.62673828125,-0.12881751857101917,0.027692564774118363,-0.07643990027569234
1761413677964751000,3.636751220703125,-0.08279401854276656,-0.05138692675754428,-0.09159918322376906
1761413677974765000,3.64676513671875,-0.014993570992350578,-0.07930259623043238,-0.08378551379814743
1761413677984778000,3.656778076171875,0.004824643677473068,-0.08407368308976292,-0.06289638196118176
1761413677994792000,3.6667919921875,0.04119534921944141,-0.0718408455150202,-0.07541888666488229
1761413678004805000,3.67680517578125,0.03197276284396648,-0.028585750754177568,-0.067402242013067
1761413678014819000,3.686819091796875,0.03653203358352184,-0.008937010899744927,-0.0726645464554429
1761413678024832000,3.69683203125,0.05632862094342708,-0.020902320112101733,-0.030768355490267275
1761413678034846000,3.706845947265625,0.0842524006575346,-0.00034665801320224996,0.023389716481044886
1761413678044859000,3.71685888671875,0.10382102448046207,0.014942096533440053,0.06051474752165377
1761413678054873000,3.726873046875,0.10431143834590911,0.024845797040872274,0.06614771190732717
1761413678064886000,3.736885986328125,0.10855448274314403,0.03652958589810878,0.06200593592748046
1761413678074900200,3.746900146484375,0.10391513250470161,0.046107378919422626,0.08019501502551138
1761413678084913000,3.756912841796875,0.09504676639437674,0.02040989695265889,0.08257650333456694
1761413678094927000,3.766927001953125,0.10043547369539738,0.018672990157455206,0.07730901126042009
1761413678104940000,3.77693994140625,0.10513502968847752,0.016648206331580876,0.035126404569298025
1761413678114954000,3.7869541015625,0.09270108005106449,0.0066853595154359935,0.03333608708642423
1761413678124967200,3.79696728515625,0.10321312171518802,0.004822780513949692,0.01447897253371775
1761413678134980900,3.80698095703125,0.12889292189478874,0.008431983987055719,0.011707023602351546
1761413678144994000,3.816994140625,0.13274492114782332,0.026868571572750806,0.04021693264134228
1761413678155007200,3.82700732421875,0.16095511658787726,0.04443294290117919,0.08285952152702956
1761413678165021000,3.83702099609375,0.20535072315335273,0.04708046173527836,0.1166925252849236
1761413678175034000,3.8470341796875,0.255140297716856,0.0816992821086198,0.14632639685254542
1761413678185048000,3.857048095703125,0.2510305243104696,0.06507065726034343,0.08189710623566061
1761413678195061000,3.86706103515625,0.2307096208155155,0.04471453632153571,0.034540129113942386
1761413678205075000,3.877074951171875,0.21483575985729694,0.012952603216655551,-0.05097966113090515
1761413678215088000,3.887088134765625,0.17652736425101756,-0.03614376491829753,-0.1341720313414931
1761413678225101800,3.897101806640625,0.1462181507050991,-0.03978175609447062,-0.1888196403954178
1761413678235115000,3.907114990234375,0.1124421378314495,-0.06450239238571376,-0.232970478419587
1761413678245129200,3.917129150390625,0.13811726183593273,-0.08573814570326357,-0.24641813514418898
1761413678255142000,3.927141845703125,0.1267722764790058,-0.10819540363978594,-0.23285993071720001
1761413678265156000,3.937156005859375,0.11183423506617546,-0.09710413731560111,-0.24201953485906122
1761413678275169000,3.9471689453125,0.10618073934912681,-0.08161690105479211,-0.19219189330749212
1761413678285183000,3.957182861328125,0.10954466282427311,-0.07011208549365401,-0.1365320384711027
1761413678295196200,3.967196044921875,0.09030863195657729,-0.04585647289827466,-0.08871047604493797
1761413678305210000,3.977210205078125,0.05159925433397293,-0.013219473991915583,-0.03131860978417098
1761413678315223000,3.98722314453125,0.007861234894394874,0.007378164085187018,0.007943652480840682
1761413678325237000,3.997237060546875,-0.031983284237980844,0.017068660233356056,0.06890585150904953
1761413678335250200,4.007250244140625,-0.07276128482818603,0.0432758818205446,0.11744513375051319
1761413678345263900,4.017263916015625,-0.12349310867786406,0.07155877717062831,0.15373510220646858
1761413678355277000,4.027277099609375,-0.1749392182767391,0.09138064510226249,0.19282946055866776
1761413678365291000,4.037291015625,-0.21484102055430412,0.09519315259512513,0.21990970212072133
1761413678375304000,4.047303955078125,-0.2204448319107294,0.08642284003179519,0.22565072999075053
1761413678385318100,4.057318115234375,-0.22297698073685168,0.0908129647495225,0.2317452474735677
1761413678395331000,4.0673310546875,-0.19962474672198294,0.05814747040104121,0.2215554235011339
1761413678405345000,4.077344970703125,-0.15037234777510164,0.016847272567637264,0.20383250061012803
1761413678415358000,4.08735791015625,-0.09417933591008186,-0.010549451065063477,0.1770380902521312
1761413678425372200,4.0973720703125,-0.05870470242500305,-0.024549627105891703,0.1712422634549439
1761413678435385000,4.107385009765625,-0.04721826277077198,-0.03611987258605659,0.1621516328960657
1761413678445399000,4.11739892578125,-0.049880175456404684,-0.013765052110701798,0.13658026152700184
1761413678455412200,4.127412109375,-0.08929799360930919,0.0005275675380602479,0.12147044374383985
1761413678465426000,4.137426025390625,-0.10865911216139792,0.009258424873836338,0.1185800560645759
1761413678475439000,4.147439208984375,-0.13206336862444876,0.01102609213348478,0.12512070987969637
1761413678485453000,4.157453125,-0.13497545667886734,0.005483728640712797,0.1076449666827917
1761413678495466000,4.167466064453125,-0.10797639059424399,-0.0036149390941485763,0.09996332613900304
1761413678505480000,4.17747998046875,-0.056873979866504665,-0.028741123978979884,0.09318294528387486
1761413678515492900,4.187492919921875,-0.0060369420766830445,-0.03130666361805051,0.09630553428381682
1761413678525507000,4.197507080078125,0.04158288723230362,-0.0351916883578524,0.06870411839187145
1761413678535520000,4.20752001953125,0.0559095187485218,-0.0571084827421233,0.05780395419299602
1761413678545534200,4.2175341796875,0.06550853722095488,-0.05296363802235573,0.04104753824658692
1761413678555547000,4.227546875,0.08396715397536754,-0.04671166495550424,0.013250015260651707
1761413678565560000,4.23756005859375,0.09668635029494761,-0.03813007989730686,0.0428762149784714
1761413678575574000,4.247573974609375,0.09375263493061065,-0.04648377448376268,0.053667767703719435
1761413678585587000,4.2575869140625,0.07440437586009502,-0.019251886023953557,0.029366781596653162
1761413678595601200,4.26760107421875,0.03895838394761085,0.008571502055600285,0.03921056861039251
1761413678605613800,4.27761376953125,0.045370589077472684,0.0242384057322517,0.03585544949620962
1761413678615628000,4.2876279296875,0.06014554888308048,0.029855186168104408,0.05604037858657539
1761413678625641200,4.29764111328125,0.08198036407232284,0.02883205366544425,0.05715067791603505
1761413678635655000,4.307655029296875,0.11953706452846527,0.029029585531540215,0.05001614986099302
1761413678645668000,4.317668212890625,0.13779460575282573,0.03152067169491202,0.03076616353318095
1761413678655682000,4.32768212890625,0.14435937109589575,0.02635689572356641,0.0061082902798429125
1761413678665695000,4.337695068359375,0.13903671476840973,0.022965828513167797,0.003593823240883648
1761413678675709000,4.347708984375,0.1157014318883419,0.013583704194426536,0.00882233501151204
1761413678685722000,4.35772216796875,0.11742752502858637,0.025748992958292364,0.009516089429333805
1761413678695735800,4.36773583984375,0.13213760290443896,0.04606069023348391,-0.010065905331820248
1761413678705749000,4.3777490234375,0.12693185095489024,0.04516911168862134,-0.010189239450544119
1761413678715763200,4.38776318359375,0.13896189596652983,0.03407755310349166,-0.020284443942084906
1761413678725776000,4.39777587890625,0.12755845842063426,0.042682445972040295,-0.028549145070835946
1761413678735790000,4.4077900390625,0.08826572795212269,0.0549677809190005,-0.03351166284903884
1761413678745803000,4.417802978515625,0.07647533691525459,0.051537733405083413,-0.049578416030853986
1761413678755816700,4.427816650390625,0.05530161598324775,0.06703264151569456,-0.06624810354188085
1761413678765829600,4.43782958984375,0.02113338892161846,0.08991294716987758,-0.060672751094959676
1761413678775843600,4.447843505859375,-0.008426467561721801,0.11053151843715459,-0.003478855091705918
1761413678785856800,4.457856689453125,-0.04424012374281883,0.12901738852467387,0.019247355979308486
1761413678795870500,4.467870361328125,-0.060489832276105875,0.1582691654395312,0.028005868506990373
1761413678805883600,4.477883544921875,-0.04928104051947593,0.17452205231059342,0.0568762448888272
1761413678815897600,4.487897705078125,-0.013970657685399054,0.1857885290712118,0.08292663194648921
1761413678825910500,4.49791064453125,0.0014653963774442671,0.1741404691144824,0.0896429711220786
1761413678835924700,4.5079248046875,0.048637481918931004,0.1424072871800512,0.11476111883092671
1761413678845937700,4.517937744140625,0.06760229462981224,0.12152864020448177,0.1214883081940934
1761413678855951600,4.52795166015625,0.08470598964393139,0.1002155838670209,0.08080967632513493
1761413678865964500,4.537964599609375,0.0936982743948698,0.07408617675639688,0.08600004804246127
1761413678875978800,4.547978759765625,0.09786591546833515,0.05620868435818702,0.05941621169522404
1761413678885991700,4.55799169921875,0.09380582642257213,0.033768596752174196,0.0112017409613356
1761413678896005600,4.568005615234375,0.04612169970571994,0.019674203089252114,-0.02419748919997364
1761413678906018800,4.578018798828125,0.02365092470049858,0.03273534471429884,-0.025196729370392856
1761413678916032500,4.588032470703125,0.02248889518380165,0.029294958469457923,-0.001749547081068158
1761413678926045700,4.598045654296875,0.03573299216032028,0.012554178483597933,0.0028820947749540206
1761413678936059600,4.6080595703125,0.012611059769988059,-0.007162037116475403,0.0033909210799261927
1761413678946072600,4.618072509765625,0.04558218600153923,0.004918422908149659,0.005816906117834151
1761413678956086500,4.62808642578125,0.029548750567436218,0.011327230504527688,0.030088191206380722
1761413678966099700,4.638099609375,0.037490064960718154,-0.014762830976396798,0.01864924395568669
1761413678976113700,4.64811376953125,0.037698154753446574,0.0025188874857500192,0.01575034417640418
1761413678986126600,4.658126708984375,0.04786357493698597,-0.031125425299629566,0.02116802184358239
1761413678996140800,4.668140869140625,0.05696984145641327,-0.03099021808002144,0.012734905345365404
1761413679006153500,4.678153564453125,0.009445289215445518,-0.029976620590686797,-0.005209807070158422
1761413679016167700,4.688167724609375,0.014699556481838225,-0.030962709018588063,-0.026185046287998556
1761413679026180900,4.698180908203125,0.021553660160303113,-0.0356142976840958,-0.003993124756775796
1761413679036194600,4.708194580078125,0.04911211369335651,-0.025675745058991013,0.046190746353939174
1761413679046207700,4.718207763671875,0.05715630393922329,-0.01491115340590477,0.05126191213838756
1761413679056220700,4.728220703125,0.052560208320617675,-0.014380480595305561,0.04915438193250447
1761413679066234600,4.738234619140625,0.0037660745352506636,-0.020165018813498317,-0.009722681384719907
1761413679076247800,4.748247802734375,-0.03722878367602825,0.016602357895858583,-0.003553564295731485
1761413679086261800,4.75826171875,-0.04482172302305698,0.06306081527527421,0.027537593408115207
1761413679096274700,4.768274658203125,-0.04463058436512947,0.0036748160552233454,0.013775536972098051
1761413679106288600,4.77828857421875,-0.038503041395545,-0.023914836333692072,0.009279065803065896
1761413679116301800,4.7883017578125,0.01232347500026226,-0.037767493662610646,0.03766618871260434
1761413679126315500,4.7983154296875,0.011968670213222503,-0.05480827950835228,0.04735602727364748
1761413679136328700,4.80832861328125,0.05906769051849842,-0.055267384920082985,0.06382197237350046
1761413679146342700,4.8183427734375,0.10679857898652553,-0.05828136244639754,0.10215261634420603
1761413679156355600,4.82835546875,0.12361235114336012,-0.07275226127151399,0.11762717578653245
1761413679166369800,4.838369873046875,0.10979016201794146,-0.08574961694534868,0.11192827002517879
1761413679176382500,4.848382568359375,0.08160919267237186,-0.08604169522710144,0.1036875342939049
1761413679186396700,4.858396728515625,0.0593470919817686,-0.09378920408133416,0.10888247258849441
1761413679196409600,4.86840966796875,-0.028235329881310462,-0.07731368743553757,0.1032089204641059
1761413679206423800,4.878423828125,-0.10166238514184951,-0.05312631777077913,0.10731997251212597
1761413679216436700,4.888436767578125,-0.12517536267638205,-0.02591711606681347,0.08529953509029001
1761413679226450700,4.89845068359375,-0.14077917452156544,-0.0045627778708934785,0.0839493625903502
1761413679236463600,4.908463623046875,-0.10743687689006327,0.014939831511117517,0.09446282902657985
1761413679246477600,4.9184775390625,-0.08889818063676357,0.013859525461122393,0.13504863151293248
1761413679256490800,4.92849072265625,-0.07618833666741848,0.039803456469625235,0.14609247849881649
1761413679266504700,4.938504638671875,-0.0845569365620613,0.05922974921241402,0.15281404183879493
1761413679276517600,4.948517578125,-0.07777823620736599,0.07592102750074117,0.13866243809591977
1761413679286531600,4.958531494140625,-0.0883352860569954,0.07810151334498078,0.10894625853970646
1761413679296544500,4.96854443359375,-0.10096680409312248,0.09233988205585628,0.0719982645664364
1761413679306558700,4.978558837890625,-0.10609013845622539,0.10014445485956966,0.07436159616429358
1761413679316571600,4.988571533203125,-0.05437807139754295,0.12718363375887273,0.05255801636353135
1761413679326585900,4.9985859375,-0.011452537384629249,0.11201035881806164,0.03233323018681258
1761413679336598500,5.0085986328125,0.010319149440526962,0.13829261840283869,0.008569894620403647
1761413679346612700,5.01861279296875,0.14577742120027543,0.14791096263024955,-0.027648396838828918
1761413679356625700,5.028625732421875,0.12063596568107604,0.0726618430417031,-0.02326375201381743
1761413679366639600,5.0386396484375,0.0741565385788679,0.04477532659806311,-0.09844769741166383
1761413679376652800,5.04865283203125,0.0744008687287569,0.05396112462710589,-0.11962247778959571
1761413679386666800,5.058666748046875,0.06613456016480922,0.01861402651183307,-0.08609759013280271
1761413679396679700,5.0686796875,0.10949497846364974,0.010126111086457968,-0.057738414676114916
1761413679406693600,5.078693603515625,0.13911562522351742,-0.002402275368757546,-0.03223524970505386
1761413679416706600,5.08870654296875,0.15615385378599167,-0.009948014573194086,-0.02192161668986082
1761413679426720500,5.098720458984375,0.17403496291339396,-0.024460779778659344,0.005292882243730128
1761413679436733700,5.108733642578125,0.19693068533241748,-0.020323241582512853,0.013041194815561175
1761413679446747600,5.11874755859375,0.14896423454284666,-0.02375058568269014,0.03581946486737579
1761413679456760600,5.128760498046875,0.13410276549756525,-0.012045498309098183,0.037417438115924594
1761413679466774800,5.13877490234375,0.07445230665504932,-0.04043433825168758,0.001855272477865219
1761413679476787500,5.148787353515625,0.02126373730301857,-0.05355637975111603,-0.006208974175341427
1761413679486801700,5.1588017578125,-0.002974631896615028,-0.052618623976968225,-0.03504961300604045
1761413679496814800,5.16881494140625,-0.019677929416298864,-0.057906318588927384,-0.051737712956592435
1761413679506828500,5.17882861328125,-0.021856442499160765,-0.08678849500641227,-0.05692497940137982
1761413679516841700,5.188841796875,-0.002214168918132782,-0.07869589904155581,-0.05408851386643946
1761413679526855700,5.198855712890625,0.02216214744746685,-0.0871857141630724,-0.012070778880827129
1761413679536868600,5.20886865234375,0.03868482770323753,-0.09241239930279552,0.0259510914016515
1761413679546881800,5.2188818359375,0.08009352741241454,-0.11759729210492223,0.029417744598910212
1761413679556895700,5.228895751953125,0.10152268441021442,-0.12637337682191283,0.01282810005415231
1761413679566908700,5.23890869140625,0.1155617311567068,-0.14931491114404052,-0.002520166127383709
1761413679576922600,5.248922607421875,0.13857552699744702,-0.16197309799138457,-0.015911891413666307
1761413679586935800,5.258935791015625,0.17103227396607398,-0.1602884693726897,-0.02354677020628005
1761413679596949500,5.268949462890625,0.18182547065913676,-0.17941873831097035,-0.04302672936506569
1761413679606962700,5.278962646484375,0.19297171857357023,-0.1591387513482943,-0.05230170351490378
1761413679616976600,5.2889765625,0.1522141762495041,-0.14870350124742834,-0.058005723842792206
1761413679626989600,5.298989501953125,0.08664718683958053,-0.14441924805697054,-0.07851674308236688
1761413679637003800,5.309003662109375,0.046537294769287106,-0.13653028490543365,-0.07648041494917124
1761413679647016700,5.3190166015625,0.00003682487905025482,-0.10572247418761253,-0.07064564438108355
1761413679657030700,5.32903076171875,-0.030856910556554793,-0.08617737737074493,-0.05293970915749669
1761413679667043600,5.339043701171875,-0.05362579172551631,-0.053042511944845314,-0.06458966881036758
1761413679677057800,5.349057861328125,-0.05438157852888107,-0.0235639770694077,-0.07403517722152173
1761413679687070700,5.35907080078125,-0.09449614677429198,-0.000004931903444230556,-0.06625109921656548
1761413679697084700,5.369084716796875,-0.11454174045920372,0.003028955899737775,-0.059468562936969095
1761413679707097900,5.379097900390625,-0.1055319200515747,0.033418833466432984,-0.052111733900755644
1761413679717111600,5.389111572265625,-0.04427285696864128,0.06365187650360167,-0.011706402547843754
1761413679727124700,5.399124755859375,0.039597850894927976,0.051171786169521505,0.05712119609322398
1761413679737138700,5.409138671875,0.10462415755689143,0.053019021471403534,0.0857842498673126
1761413679747151600,5.419151611328125,0.13840776921510695,0.0616450667258352,0.13124383240249007
1761413679757166000,5.429166015625,0.17844751865863798,0.04909300713408738,0.1294515786908567
1761413679767179300,5.43917919921875,0.20301322011649608,0.02893014374505728,0.15210940070077775
1761413679777193000,5.44919287109375,0.2083493204474449,0.03689480248130858,0.1567414444155991
1761413679787206100,5.4592060546875,0.16855039402246474,0.026264687395468354,0.173048984083347
1761413679797220400,5.469220458984375,0.13105448384284973,0.0020924422346055506,0.18208740953095257
1761413679807233000,5.47923291015625,0.09126432524621486,0.003393514895811677,0.14388360681030898
1761413679817247200,5.489247314453125,0.06551788957118988,0.005746398164890706,0.17710114555098116
1761413679827260200,5.49926025390625,0.05054711493253707,0.0193014607867226,0.16818525050450114
1761413679837274000,5.509274169921875,0.01423486157953739,0.04543357131108641,0.1430595405437052
1761413679847287300,5.519287353515625,0.010336100575327873,0.05795308034010231,0.14024473885130137
1761413679857301200,5.52930126953125,0.003059387570619583,0.07811612639222294,0.14182839131355285
1761413679867314200,5.539314208984375,0.009440028518438339,0.05803191772997379,0.1504758812148124
1761413679877328100,5.549328125,-0.004486205503344535,0.056649085069447755,0.1426537362217903
1761413679887341300,5.55934130859375,-0.03534370058178901,0.035752610176242886,0.10498371158428489
1761413679897355000,5.56935498046875,-0.07525719329714775,0.014923209169879555,0.07902114894054829
1761413679907368200,5.5793681640625,-0.09147942930161952,-0.018735095608234404,0.0601504077212885
1761413679917382100,5.589382080078125,-0.10059212556183338,0.00031523996163159606,0.05045556419156492
1761413679927395000,5.59939501953125,-0.10867138712108135,0.017459924573265014,0.04508391762319952
1761413679937409300,5.6094091796875,-0.10268822105824947,0.005202390948683023,0.05487129827458411
1761413679947422200,5.619422119140625,-0.10702069730460644,-0.01795000964514911,0.03095733872372657
1761413679957436200,5.629436279296875,-0.09665946228802204,-0.041511465963907535,0.02233476406801492
1761413679967449000,5.639448974609375,-0.061926587080955504,-0.05577285022418946,0.0038484555890783666
1761413679977463300,5.64946337890625,-0.03677519468963146,-0.06434300057291985,0.007029094919189811
1761413679987476200,5.659476318359375,0.020846973195672035,-0.05435052580349147,0.003887983881868422
1761413679997490200,5.669490234375,0.07354162155091762,-0.07449077550191432,0.021662015905603765
1761413680007503400,5.67950341796875,0.13912965374886987,-0.1040845707874745,0.012462664275243878
1761413680017516000,5.68951611328125,0.15684592770338057,-0.11115100204236805,-0.015181604377739131
1761413680027530200,5.6995302734375,0.15780980429947375,-0.13411617296840994,-0.007028437332063913
1761413680037543200,5.709543212890625,0.13574936366081236,-0.13292900901045648,-0.022733919453434646
1761413680047557000,5.71955712890625,0.08198737833499908,-0.11212594802174716,-0.020111133201792836
1761413680057570300,5.7295703125,0.043974166283011436,-0.04758267563637346,0.019120697392337023
1761413680067584300,5.739584228515625,0.02213467491865158,-0.01604929059036076,0.044926790832728145
1761413680077597200,5.74959716796875,0.005401566782593727,0.01666902992390096,0.0713130222486332
1761413680087611100,5.759611083984375,0.006936521264910698,0.04183485269937664,0.1093670777676627
1761413680097624000,5.7696240234375,0.015222703573107718,0.049816024179011584,0.1073040808232501
1761413680107638000,5.779637939453125,0.03534954580068588,0.051924211972020566,0.10885649789702147
1761413680117651200,5.789651123046875,0.07612754639089107,0.02168769833613187,0.1091179253121838
1761413680127665200,5.7996650390625,0.1122550908267498,0.0007517682153731584,0.09898637086562811
1761413680137678000,5.809677978515625,0.10932429807186127,-0.0016341770730912684,0.10372351892273872
1761413680147692300,5.8196923828125,0.11448621087968348,-0.006232866507582366,0.12125636260174213
1761413680157705000,5.829705078125,0.11519055975675582,0.0041853959258645775,0.1411428202021867
1761413680167719200,5.83971923828125,0.11143676018118857,0.02166797072235495,0.1594640012472868
1761413680177732400,5.849732421875,0.13042612281143665,0.04550528484042734,0.19139745499417185
1761413680187746000,5.85974609375,0.09836509716212749,0.04320460668262094,0.19436847016159445
1761413680197759200,5.86975927734375,0.07838263184130191,0.057326545939594506,0.18643986911941318
1761413680207773200,5.879773193359375,0.05057108033001423,0.07335976217798888,0.16306874774098395
1761413680217786000,5.8897861328125,0.0305254866451025,0.048250455362722273,0.14973079846855253
1761413680227800000,5.899800048828125,0.029184593430161474,0.028323665751889347,0.1362396679284051
1761413680237813200,5.909813232421875,0.04684884493649005,0.013125512098148464,0.12673603612184522
1761413680247827000,5.919826904296875,0.06466799474358559,-0.018101875738613306,0.10485511676855384
1761413680257840000,5.929840087890625,0.05378711976706981,-0.014452997842244804,0.08412314825467765
1761413680267854300,5.939854248046875,0.04142623536586761,-0.01703073937576264,0.07231211628858
1761413680277867000,5.949866943359375,0.057819736284017556,-0.02524864222072065,0.056178289219923315
1761413680287881200,5.959881103515625,0.032300679624080654,-0.012548990851826964,0.0359295741783455
1761413680297894100,5.96989404296875,-0.0037310032218694686,-0.015828852772712707,-0.002488492347486317
1761413680307908000,5.979908203125,-0.024534721797704696,0.009074921533092856,-0.029584260272234677
1761413680317921300,5.98992138671875,-0.0315928236156702,0.00697893563453108,-0.0725187082439661
1761413680327935200,5.999935302734375,-0.015447159978747366,0.01704959020670503,-0.11471030195914209
1761413680337948200,6.0099482421875,0.048933249995112414,0.026985950874723493,-0.14191219713948666
1761413680347962000,6.019962158203125,0.1042553242444992,0.017708821300417184,-0.1729747132707387
1761413680357975300,6.029975341796875,0.1718161178201437,-0.042629546741023656,-0.21994543102122843
1761413680367989000,6.039989013671875,0.19120704698860644,-0.08733863970246165,-0.269068321836926
1761413680378002200,6.050002197265625,0.19817980861067772,-0.09412084718849509,-0.28142876784671095
1761413680388016000,6.06001611328125,0.2171019512236118,-0.07343319274038076,-0.23733170583639293
1761413680398029000,6.070029052734375,0.22236732440590856,-0.03406573480153456,-0.21332013112995774
1761413680408043300,6.080043212890625,0.23052082024514675,0.002280767880938947,-0.1526956030908972
1761413680418056200,6.09005615234375,0.21018647274672983,0.024070684482529758,-0.048680700006149706
1761413680428070100,6.100070068359375,0.1659685608357191,0.06185912960162386,0.003488974626921117
1761413680438083000,6.1100830078125,0.1346452018111944,0.060282034744322296,0.02533979110289365
1761413680448097300,6.12009716796875,0.08613222305476664,0.06899658026611433,0.06042235653046518
1761413680458110200,6.130110107421875,0.04018178826272487,0.09105495681185274,0.07542454922068864
1761413680468124200,6.140124267578125,0.009967267262935639,0.06810775993391871,0.07830624213684349
1761413680478137300,6.150137451171875,0.002542085698246956,0.0752379771400243,0.08232424560654908
1761413680488151000,6.160151123046875,-0.007509937238693237,0.05476429423615336,0.1004423783602193
1761413680498164200,6.170164306640625,-0.008198504024744034,0.0488170397369191,0.11833254757691174
1761413680508178200,6.18017822265625,-0.013873042529821395,0.03458164843441918,0.1344480352712795
1761413680518191000,6.190191162109375,-0.0054500820994377135,0.03807853237316012,0.12492149751316756
1761413680528204300,6.200204345703125,-0.020747604474425314,0.005475125209148973,0.09860047682058065
1761413680538218200,6.21021826171875,-0.0035129765570163724,-0.019361246416252104,0.10889482061341405
1761413680548231200,6.220231201171875,-0.002852466821670532,-0.032289774637576193,0.11013568751998246
1761413680558245000,6.2302451171875,-0.06980477311015129,-0.049847661426290865,0.10548683880083262
1761413680568258000,6.240258056640625,-0.1164116259843111,-0.041553916866146026,0.10568075393773614
1761413680578272000,6.25027197265625,-0.11681962226331233,-0.02454988283421844,0.13837485332619398
1761413680588285200,6.26028515625,-0.12835048558115958,-0.017854020191077142,0.14146167689301073
1761413680598299400,6.27029931640625,-0.0814157159268856,0.012123915573861449,0.13874445382356643
1761413680608312000,6.28031201171875,-0.06097556996643543,0.008145166402310132,0.13662461212538182
1761413680618326300,6.290326171875,-0.03540449085831642,-0.027678152656275778,0.07709569730330258
1761413680628339000,6.3003388671875,-0.008718143984675407,-0.05876514564165845,0.03440751571021974
1761413680638353200,6.310353271484375,0.05559270788431167,-0.11432577788727358,0.004034260484762489
1761413680648366300,6.320366455078125,0.1097673656642437,-0.13311431158264167,-0.022136391951702535
1761413680658380300,6.33038037109375,0.1545452495455742,-0.14365013598115184,-0.023671821358054877
1761413680668393200,6.340393310546875,0.15323533599078654,-0.13834473218256607,-0.039461182370595635
1761413680678407200,6.3504072265625,0.1306686993956566,-0.10387928487318568,-0.03595598726123571
1761413680688420000,6.360420166015625,0.08888064498007298,-0.07171680814339779,0.017309848578087983
1761413680698434000,6.37043408203125,0.05030161573886871,-0.030693920280877498,0.05138024128843099
1761413680708447200,6.380447265625,0.010759878945350645,0.008386939268931746,0.04698511160202324
1761413680718461200,6.390461181640625,-0.01899111619591713,0.03916953334710561,0.0510738422203809
1761413680728474000,6.40047412109375,0.005789104795455933,0.04430723416227847,0.03710782417748123
1761413680738488300,6.41048828125,0.0022235212683677672,-0.004346057247137651,0.052108920889161525
1761413680748500200,6.420500244140625,0.015068974316120146,-0.036567963413428516,0.04491791340652853
1761413680758514400,6.430514404296875,-0.0037929625421762466,-0.06158145430455915,0.020091478653252122
1761413680768527400,6.44052734375,-0.042194297128915786,-0.07785311894132756,0.02232457146756351
1761413680778541300,6.450541259765625,-0.061928340646624565,-0.03952737034144811,0.0486982356628403
1761413680788554500,6.460554443359375,-0.06122165368199348,-0.018578964331606402,0.06092950233500451
1761413680798568200,6.470568115234375,-0.0644756870418787,0.01653012377670966,0.09668591190353035
1761413680808581400,6.480581298828125,-0.0647059886664152,0.049477887398982415,0.1038773212449625
1761413680818595300,6.49059521484375,-0.09623334583044052,0.02657694994872436,0.10456460938937961
1761413680828608300,6.500608154296875,-0.11327566604614257,0.04688665619622916,0.11033734757192432
1761413680838622200,6.510622314453125,-0.0770674575895071,0.021947545715561137,0.11890117777772247
1761413680848635400,6.520635498046875,-0.03024140900671482,-0.00397806418496184,0.08299571512732655
1761413680858649300,6.5306494140625,0.043991117417812343,-0.028658879922470078,0.0876238133193925
1761413680868662300,6.540662353515625,0.0926660087376833,-0.07114295377819799,0.08902228194046766
1761413680878676500,6.550676513671875,0.1340443133085966,-0.09070377788715996,0.09571447305548936
1761413680888689200,6.560689208984375,0.17335925560891627,-0.0714333150268998,0.10945698454082012
1761413680898703400,6.570703369140625,0.14386603462100028,-0.09041604698696173,0.04868588763792067
1761413680908716500,6.580716552734375,0.13856442108154296,-0.11710472281500696,0.01258406216520816
1761413680918730200,6.590730224609375,0.11759060663580893,-0.10800166203281841,0.029242972553893923
1761413680928743400,6.600743408203125,0.09125964907109736,-0.09500670837862417,0.030456987986154854
1761413680938757400,6.61075732421875,0.050125674650073046,-0.08919665212668478,0.025571334836445747
1761413680948770300,6.620770263671875,0.04522445860505104,-0.08787682909923605,0.04192662263605743
1761413680958783500,6.630783447265625,0.041430327019095416,-0.10233887789761648,0.06173694626037031
1761413680968797400,6.64079736328125,0.013523498439788818,-0.10683234425880946,0.04309910048153251
1761413680978810400,6.650810302734375,0.005398059651255607,-0.09627643605349585,0.023232772353664038
1761413680988824300,6.66082421875,0.008110241219401359,-0.08194353006011806,0.029885617838986217
1761413680998837500,6.67083740234375,0.01970832455456257,-0.08143854881320148,0.030674649324826893
1761413681008851200,6.680851318359375,-0.005451835665106773,-0.059200029927585274,0.02535809394456446
1761413681018864400,6.690864501953125,-0.039402620583772655,-0.014901170868007465,0.050892019380070264
1761413681028878300,6.70087841796875,-0.06584639087319373,0.02251744542485103,0.08143522434495389
1761413681038891300,6.710891357421875,-0.10902911451756954,0.053745828775456174,0.06744155111014842
1761413681048905500,6.720905517578125,-0.1275391691982746,0.11132772858245298,0.08978636164814233
1761413681058918400,6.73091845703125,-0.15461130051910876,0.12408095503579825,0.08854856348149479
1761413681068932400,6.740932373046875,-0.1816939532339573,0.13074181943079455,0.056709254291467365
1761413681078945300,6.7509453125,-0.14575053319334982,0.14601243553254753,0.0755816394785419
1761413681088959500,6.76095947265625,-0.10391454798281193,0.15078238074756226,0.07074965274482965
1761413681098972400,6.770972412109375,-0.04373801943957805,0.17192642806051298,0.0924729338509962
1761413681108986400,6.780986328125,0.040948096460103986,0.165425795728527,0.10950809367354959
1761413681118999600,6.79099951171875,0.12269582082033156,0.11962054156083612,0.06332498263679444
1761413681129013200,6.80101318359375,0.18329554321169853,0.06702644923692569,0.05476469609495252
1761413681139026400,6.8110263671875,0.21688567812442777,0.07565236662719399,0.064319144773297
1761413681149040400,6.821040283203125,0.2602157012850046,0.05491986839035526,0.061719227940589184
1761413681159053300,6.83105322265625,0.26641630949079986,0.03428284815093502,0.06378248061332852
1761413681169067300,6.8410673828125,0.22340543528199194,0.043699203532841055,0.03668199998084456
1761413681179080200,6.851080078125,0.17160861254930496,0.0622836934229359,-0.006984452059864998
1761413681189094400,6.861094482421875,0.16715572479367255,0.08101520883459597,-0.029516017341613767
1761413681199107300,6.871107421875,0.19434768310189246,0.06525823398800566,-0.04209744915831834
1761413681209121500,6.88112158203125,0.18973346730470655,0.05972655628602951,-0.04042619147785008
1761413681219134200,6.89113427734375,0.18934242216050623,0.06600638547418639,-0.03759078538883477
1761413681229148400,6.9011484375,0.16772154198288916,0.07652602592287584,-0.04117050703912973
1761413681239161300,6.911161376953125,0.13082242865264415,0.08195237095369957,-0.03791081112343818
1761413681249175300,6.92117529296875,0.13302607617676257,0.08611458693337626,-0.028971754397079347
1761413681259188500,6.9311884765625,0.11716332113444805,0.08969134944160469,-0.0511561867415905
1761413681269202400,6.941202392578125,0.11957739653885364,0.10731707730214111,-0.02280471966732293
1761413681279215400,6.95121533203125,0.09117781600654125,0.12911177967670373,0.025972316852770745
1761413681289229300,6.961229248046875,0.06282908887863159,0.14753040234744547,0.02684274301175028
1761413681299242200,6.9712421875,0.029341245296597478,0.14186960923993028,0.026181064232625065
1761413681309256200,6.981256103515625,0.006632569882273674,0.13175521599072962,0.003900624167732894
1761413681319269400,6.991269287109375,-0.013652677777409552,0.0823589059279766,-0.03197875419333577
1761413681329283600,7.00128369140625,-0.024755086550116538,0.07850016640690155,-0.054033532276190815
1761413681339296300,7.011296142578125,-0.012578911066055297,0.06823115798472426,-0.05238065050262958
1761413681349310500,7.021310546875,-0.032492402803897855,0.05549593297895044,-0.01984729463383555
1761413681359323100,7.0313232421875,-0.029316695377230643,0.08758327124645002,0.022351094148308038
1761413681369337300,7.04133740234375,-0.03166881146132946,0.07413221698836422,0.04476407455168664
1761413681379350500,7.0513505859375,-0.04438040899634361,0.07455447925473563,0.039837029945664106
1761413681389364500,7.061364501953125,-0.05357143118977546,0.06740374898356385,0.01593318993002176
1761413681399377400,7.07137744140625,-0.07480828048586845,0.059333753009582865,-0.007776186959445476
1761413681409391400,7.081391357421875,-0.06289338628649711,0.01610403471859172,-0.06949676660690456
1761413681419404300,7.091404296875,-0.039485038170218464,-0.038556726077850906,-0.09818930220380424
1761413681429417500,7.10141748046875,0.03708323772549629,-0.09175752472379245,-0.11909702914338559
1761413681439431400,7.111431396484375,0.11926409280598163,-0.12517435802938415,-0.12618976388331501
1761413681449444400,7.1214443359375,0.21677754157483575,-0.14310057580699212,-0.13643358306530862
1761413681459458300,7.131458251953125,0.306565949049592,-0.14324055966641752,-0.096793573529087
1761413681469471500,7.141471435546875,0.3122773124337196,-0.16060191923603415,-0.09292944544684141
1761413681479485200,7.151485107421875,0.27681436938643456,-0.15922452993560582,-0.09568447977602482
1761413681489498400,7.161498291015625,0.2518956167072058,-0.14442134868251158,-0.09932079045176505
1761413681499512300,7.17151220703125,0.17344284223914144,-0.14294702007994056,-0.07617503879442811
1761413681509525200,7.181525146484375,0.06347557008862495,-0.12630924381082878,-0.06280534267686307
1761413681519539500,7.19153955078125,-0.02123275764286518,-0.09762355807982384,-0.06202679605241865
1761413681529552400,7.201552490234375,-0.08453998542726039,-0.06307340076221153,-0.04410049607641995
1761413681539566300,7.21156640625,-0.1137193181604147,-0.06963723452351987,-0.04118007858507335
1761413681549579300,7.221579345703125,-0.10445698429644107,-0.07590770222828723,-0.02857307393569499
1761413681559593500,7.231593505859375,-0.10000468106269836,-0.0916544388086535,0.011967537702061236
1761413681569606400,7.2416064453125,-0.10091653521060943,-0.0845749562759418,0.043930765532702205
1761413681579620400,7.251620361328125,-0.10718553247749806,-0.080410968464287,0.07048303769789636
1761413681589633500,7.261633544921875,-0.11402443858683109,-0.056210483589628706,0.09836064018271863
1761413681599647200,7.271647216796875,-0.153327690449357,-0.04741676275124773,0.08837868680730461
1761413681609660400,7.281660400390625,-0.1791793400645256,-0.010965916061599273,0.10816091684829443
1761413681619674400,7.29167431640625,-0.20833821453154086,0.004052944350223697,0.11057181391492485
1761413681629687300,7.301687255859375,-0.22794424775540828,0.0048323366476950465,0.13110446046441793
1761413681639701200,7.311701171875,-0.24035540103912353,0.05328226181773934,0.12248984991945326
1761413681649714400,7.32171435546875,-0.23087036433517932,0.05777261377323884,0.13965817113500087
1761413681659728400,7.331728271484375,-0.1878057141125202,0.07320327014175709,0.15661489542648196
1761413681669741300,7.3417412109375,-0.1660907259106636,0.06167846210536081,0.16866576403044165
1761413681679755500,7.351755615234375,-0.1250333238571882,0.05234035502485931,0.16683515106979757
1761413681689768200,7.361768310546875,-0.04805354455113411,0.025111188245099038,0.16527981138657777
1761413681699782400,7.371782470703125,0.06140460903346538,0.003683296189201064,0.18353954456802457
1761413681709795600,7.381795654296875,0.13584113359749317,-0.019824927538400514,0.18842965469714254
1761413681719809300,7.391809326171875,0.19560382064282894,-0.04549029276727233,0.20952278467360883
1761413681729822500,7.401822509765625,0.20196108071506022,-0.052246356598474084,0.16842983638271689
1761413681739836400,7.41183642578125,0.2004027453571558,-0.059248787273024205,0.15056063688881693
1761413681749849600,7.421849609375,0.17385376112759113,-0.05350746257547289,0.17184227517470715
1761413681759863600,7.431863525390625,0.16118308012485502,-0.013026992760272697,0.16483941067531704
1761413681769876700,7.441876708984375,0.12452654337882994,0.0045945475489133965,0.16180358664337544
1761413681779890400,7.451890380859375,0.08093523893356323,0.017170010849134994,0.19022760749720036
1761413681789903600,7.461903564453125,0.05644026462435722,0.020137085060379468,0.18010774348843842
1761413681799916500,7.47191650390625,0.02546177351474762,0.02053547782739624,0.14866441134605557
1761413681809930500,7.481930419921875,0.0279722950309515,0.0018412622188217938,0.08955642534978688
1761413681819943700,7.491943603515625,0.05111527020931243,-0.002384392652194947,0.04721110237762332
1761413681829957600,7.50195751953125,0.07438684020340443,-0.03574433553824201,0.012662936087697743
1761413681839970600,7.511970458984375,0.08298106554746627,-0.02814946909560822,-0.00811166599150747
1761413681849984800,7.52198486328125,0.03757482063472271,-0.013306960479123517,-0.028444442587345835
1761413681859997400,7.53199755859375,-0.0047884033203125,0.01155205223634839,-0.04258231006581336
1761413681870011600,7.54201171875,-0.03975625632703304,0.02432798371184617,-0.05886855121720582
1761413681880024600,7.552024658203125,-0.03785772922933101,0.028470837403927,-0.059772477786988014
1761413681890038800,7.562038818359375,-0.03367430606484413,0.054441044498002154,-0.0698028734140098
1761413681900051700,7.5720517578125,-0.015995441511273384,0.04785109904790297,-0.0464960494434461
1761413681910065700,7.582065673828125,-0.02586217100918293,0.050129437509737904,-0.04811130262035876
1761413681920078600,7.59207861328125,-0.03306874138712883,0.06218164868741296,-0.05536288118381053
1761413681930092500,7.602092529296875,-0.0461409889280796,0.056825857275305314,-0.05550755035150796
1761413681940105700,7.612105712890625,-0.054449383068084715,0.06594361330312676,-0.024011172847636042
1761413681950119700,7.62211962890625,-0.029534137520194053,0.06523541936799883,-0.028054493421688673
1761413681960132600,7.632132568359375,0.01515548355579376,0.0595843530700542,-0.008944390488602221
1761413681970146600,7.642146484375,0.038057635715603826,0.04979865291910246,-0.011331285625137388
1761413681980159500,7.652159423828125,0.06839782892167567,0.054014535314776,-0.002267725736275315
1761413681990173700,7.662173583984375,0.10137596941590309,0.05181218469860032,0.016988507669232784
1761413682000186600,7.6721865234375,0.11509703625440597,0.041118100998457516,0.049212834121473134
1761413682010200600,7.68220068359375,0.13852701168060302,0.03904056407203898,0.07621409216318278
1761413682020213500,7.692213623046875,0.15217676684856413,0.03320332755222916,0.09078172936104237
1761413682030227700,7.702227783203125,0.1268377429306507,0.030346294153295456,0.09216160287950187
1761413682040240600,7.71224072265625,0.11159867274463176,0.0370839683778584,0.10793309944178908
1761413682050254600,7.722254638671875,0.09226093506813049,0.031066662583407012,0.10110285156294703
1761413682060267800,7.732267822265625,0.118707627967,0.021088051942549646,0.08539459296260028
1761413682070281500,7.742281494140625,0.1535778658181429,0.02947342030890286,0.07257244772519916
1761413682080294700,7.752294677734375,0.19256722942590712,-0.004345116532221437,0.06171984899509698
1761413682090308600,7.76230859375,0.22070435962975024,0.002546597476582974,0.04670954606365412
1761413682100321500,7.772321533203125,0.24590485185980795,-0.004093826918583363,0.008546513744816183
1761413682110335500,7.78233544921875,0.27860183732509614,-0.03177636348903179,0.02442384530175477
1761413682120348700,7.7923486328125,0.2885270190119743,-0.0371241359914653,0.021016484543681144
1761413682130362600,7.802362548828125,0.29613749401569367,-0.031138997167255728,0.017033442789502442
1761413682140375600,7.81237548828125,0.23737667748928068,-0.02929278477868065,0.016244411303661763
1761413682150389800,7.8223896484375,0.17582827607095242,-0.021298899947945028,0.00766826960556209
1761413682160402400,7.83240234375,0.0966828431636095,-0.03809698134530336,-0.030705519387125967
1761413682170416600,7.842416748046875,-0.017677695509791373,-0.0380265373244416,-0.03852203835695982
1761413682180429800,7.852429931640625,-0.09835516029000281,-0.02459160308409482,-0.045427689559571445
1761413682190443500,7.862443603515625,-0.15323182885944842,-0.010688612940581516,-0.030687874132581054
1761413682200456700,7.872456787109375,-0.20157997244298456,0.007590893520414829,-0.03375756390150636
1761413682210469600,7.8824697265625,-0.18864216493666172,0.018315153163112698,-0.0345827992118895
1761413682220483600,7.892483642578125,-0.18204408184587956,0.022745244565047323,-0.00884352393001318
1761413682230496800,7.902496826171875,-0.1466489433377981,0.04050891959154978,-0.011659385068342088
1761413682240510700,7.9125107421875,-0.12907529272437096,0.03312987872352823,0.01345573043320328
1761413682250523600,7.922523681640625,-0.1436117675989866,0.044022471537301315,0.012092990712635218
1761413682260537600,7.93253759765625,-0.15152677850723265,0.05594488232284784,0.039076092043146486
1761413682270550800,7.94255078125,-0.14157237072587012,0.05763304547234438,0.06557564764041453
1761413682280564500,7.952564453125,-0.11250526619553565,0.07389876442551613,0.05697093743495643
1761413682290577700,7.96257763671875,-0.10334756174981594,0.06488643240039237,0.042206389425508674
1761413682300591600,7.972591552734375,-0.11408581338524817,0.06133026515562087,0.03179112266674638
1761413682310604500,7.9826044921875,-0.09624562079012393,0.06588654022049159,0.026300672024302182
1761413682320618800,7.99261865234375,-0.06015314766764641,0.0645938700614497,0.01893704792112112
1761413682330631700,8.002631591796876,-0.004319616764783859,0.07225468701291829,0.007970321292057632
1761413682340645600,8.012645751953125,0.07919219465851783,0.05600936239380389,0.05410809534974396
1761413682350658600,8.022658447265625,0.14997019671499728,0.03381349533982575,0.07139836244452745
1761413682360672800,8.0326728515625,0.20996026277542112,0.025590605792496352,0.057069867764785884
1761413682370685700,8.042685791015625,0.2174211001753807,0.0022604557452723384,0.05807827762234956
1761413682380699600,8.05269970703125,0.2072305455505848,0.009434420761559158,0.055947476138733326
1761413682390712600,8.062712646484375,0.1861380731612444,-0.016668372336775063,0.050779827709868545
1761413682400726500,8.0727265625,0.12196633750200271,-0.007802892303280532,0.031730624651163816
1761413682410739700,8.08273974609375,0.08192483449280262,0.005163392378855497,0.03732007868867367
1761413682420753700,8.092753662109375,0.05017477448880672,0.0366491936897859,0.046334136880002916
1761413682430766600,8.1027666015625,0.01428805307149887,0.055996356781758364,0.042477424919232724
1761413682440780500,8.112780517578125,0.02676759541630745,0.06716415894087403,0.06505239095129073
1761413682450793500,8.12279345703125,0.05932195754051208,0.06559212385118007,0.05164320307355374
1761413682460807700,8.1328076171875,0.10368775348961352,0.05262713607698679,0.0811024121940136
1761413682470820600,8.142820556640626,0.15488953293859958,0.00936544717857614,0.06296396730467677
1761413682480834800,8.152834716796875,0.1668400829732418,-0.009624225978925824,0.06122150755152106
1761413682490847500,8.162847412109375,0.15302257002294062,-0.024004012454487383,0.0658124520709738
1761413682500861700,8.17286181640625,0.10808452714383601,-0.01543232773579657,0.06404277551732956
1761413682510874600,8.18287451171875,0.012447393640875815,-0.02513213970158249,0.07889719376731663
1761413682520888600,8.192888671875,-0.07028466558158397,0.00689414342790842,0.07030702354386449
1761413682530901800,8.20290185546875,-0.09345452876687049,0.04298510044673458,0.04523735461924225
1761413682540915700,8.212915771484376,-0.14068857362866402,0.040360514963651076,0.08274031559415161
1761413682550928600,8.2229287109375,-0.1630576418250799,0.038917211687006056,0.09064359953198581
1761413682560941800,8.23294189453125,-0.08817980323433876,0.03999220224106684,0.10154971854761242
1761413682570955500,8.24295556640625,0.009846855753660202,0.01222713848631829,0.10506671369262038
1761413682580968700,8.25296875,0.04091068705916404,-0.005842424151580781,0.10769797551166266
1761413682590982700,8.262982666015626,0.07326514269709587,-0.03393341365875676,0.10677289655599742
1761413682600995600,8.27299560546875,0.07399287244975566,-0.0816219242897816,0.08325056667122989
1761413682611009500,8.283009521484376,0.038297289690375325,-0.10819710240652784,0.05630257318671793
1761413682621022700,8.293022705078124,-0.023268647384643553,-0.11024256369424983,0.055327261881157754
1761413682631036400,8.303036376953125,-0.07772796732485295,-0.08828211283134296,0.04223638270497322
1761413682641049600,8.313049560546874,-0.12373393169641494,-0.04182434957167133,0.028138262715004383
1761413682651063800,8.323063720703125,-0.1592412984073162,-0.02965476822517812,0.03223802618402988
1761413682661076500,8.333076416015626,-0.21163082633614538,-0.02046714356523007,0.04858377897031605
1761413682671090700,8.343090576171875,-0.22704349952340125,-0.013170995207689702,0.03912164821792394
1761413682681103600,8.353103515625,-0.18097616035342215,0.016236410660296678,0.054514484193548554
1761413682691117600,8.36311767578125,-0.11610358294844626,-0.003905775266885757,0.07498758257552982
1761413682701130800,8.373130859375,-0.053800563770532606,-0.020597601544484496,0.05485529698785394
1761413682711144700,8.383144775390624,0.008636895442008971,-0.04708627042155713,0.05305734418779611
1761413682721157600,8.39315771484375,0.05445931994020939,-0.09412132211253046,0.06194255183506757
1761413682731171600,8.403171630859376,0.08365852641761302,-0.09605718554593622,0.049221163558401164
1761413682741184800,8.413184814453125,0.10896247902214526,-0.07558039736952632,0.05194821390211582
1761413682751198500,8.423198486328126,0.12607727995216847,-0.08257610147576779,0.05553768976144492
1761413682761211600,8.433211669921874,0.10003741428852081,-0.04712705908967182,0.02484382427949458
1761413682771225600,8.4432255859375,0.09289046514332294,-0.04013084352677688,0.03413041580189019
1761413682781238500,8.453238525390624,0.07917465900182724,-0.021871512204129247,0.0763396913042292
1761413682791252700,8.463252685546875,0.08414543315172195,0.010060809031594543,0.07973444830905646
1761413682801265700,8.473265625,0.09552899695336818,0.028569859065301715,0.06439414623826742
1761413682811279600,8.483279541015625,0.0713987643033266,0.03373520593922585,0.09230722189527005
1761413682821292500,8.49329248046875,0.11056932969689369,0.03190826450670138,0.05538805215768516
1761413682831306800,8.503306640625,0.15216682997643946,0.028317875331919637,0.06914565161429345
1761413682841319700,8.513319580078125,0.18857436039745806,0.0368814680757001,0.06566562747880816
1761413682851333600,8.523333740234374,0.23371347880661486,0.02604094337588176,0.04362056707236916
1761413682861346800,8.533346923828125,0.24895137994885444,0.01841534386826679,0.020772994644008575
1761413682871360500,8.543360595703126,0.25699323210716246,0.026151180551014837,0.055134881114214655
1761413682881373700,8.553373779296875,0.21933248675465583,0.030574623016454278,0.05762779390849173
1761413682891387600,8.5633876953125,0.1778887157320976,0.040499165382515634,0.047296844432316715
1761413682901400600,8.573400634765624,0.1403138950973749,0.0545751831385307,0.04997245684973895
1761413682911414500,8.58341455078125,0.1370119309425354,0.04326903195464983,0.034757461659051476
1761413682921427700,8.593427734375,0.12864040843844413,0.06812704915627837,0.016471607655659318
1761413682931440600,8.603440673828125,0.09994330626428127,0.08773273532027379,0.0064967050755396485
1761413682941454600,8.61345458984375,0.07964578364491462,0.08274723852528258,0.030233737156912684
1761413682951467500,8.623467529296875,0.06773615014255047,0.04873493267772719,0.0030427652293816207
1761413682961481500,8.6334814453125,0.06390168654620647,0.0271780576470308,0.008630648364312946
1761413682971494700,8.64349462890625,0.04840542672872543,0.005521813895087688,-0.012006846799142658
1761413682981508600,8.653508544921875,0.04192483253777027,-0.0012976203287951647,-0.017038265095092354
1761413682991521500,8.663521484375,0.06032441258132457,0.012052950963191688,-0.014423150693252682
1761413683001535700,8.67353564453125,0.052263855722546576,-0.003522018379997462,0.013169643500819802
1761413683011548400,8.68354833984375,0.03925532106757164,0.007638897380605339,0.026453451433219016
1761413683021562600,8.693562744140625,0.039677345871925354,0.02750979208573699,0.030839447965100405
1761413683031575600,8.703575439453125,0.03047054158747196,-0.0020504297237843275,0.017891557456180453
1761413683041589500,8.713589599609374,0.06701368108689784,-0.026584366070199757,0.005221241779625415
1761413683051602700,8.723602783203125,0.11251403402388095,-0.07135476076481863,0.006080963881500065
1761413683061616600,8.73361669921875,0.13842530487179755,-0.10532476184060796,0.0069803604066371915
1761413683071629600,8.743629638671875,0.12111176649928092,-0.13018712642379104,-0.012721132548339665
1761413683081643500,8.7536435546875,0.07160626957416534,-0.1355710296855308,0.005146970967017114
1761413683091656700,8.76365673828125,0.011602759510278702,-0.09087010176423936,0.04345620682351291
1761413683101670400,8.77367041015625,-0.08223580013811588,-0.06564135155407712,0.033849626099132
1761413683111683600,8.78368359375,-0.14272913954555988,-0.0756900774222333,-0.011077164733596146
1761413683121697800,8.79369775390625,-0.13456979848742484,-0.07978920157044195,-0.027776516730524597
1761413683131710500,8.80371044921875,-0.11191022291183471,-0.07998436794951558,0.01473232624027878
1761413683141724700,8.813724609375,-0.09582301146388053,-0.07851208517355844,0.035009609789215024
1761413683151737600,8.823737548828126,-0.10471358940601348,-0.06888511011512018,0.05098079364206642
1761413683161751600,8.83375146484375,-0.08232757007479667,-0.04515711985672824,0.06445932042896747
1761413683171764700,8.8437646484375,-0.04486848477423191,-0.06982124932091682,0.07811667438149451
1761413683181778700,8.85377880859375,0.0015185878694057465,-0.0952623545069713,0.11023688287213444
1761413683191791600,8.86379150390625,-0.0013408932149410247,-0.09353042528098449,0.09953216818012296
1761413683201805600,8.8738056640625,-0.008507716104388236,-0.10420439777486026,0.09087386462390422
1761413683211818800,8.88381884765625,0.012794599643349646,-0.1119469564593397,0.08152714041210711
1761413683221832400,8.89383251953125,0.019743980389833448,-0.0666431490077637,0.08511592215169221
1761413683231845600,8.903845703125,-0.00367255103290081,-0.02020783504191786,0.08199008174873888
1761413683241859600,8.913859619140625,-0.04217851503789424,0.031427787513379005,0.12328834335338323
1761413683251872500,8.92387255859375,-0.056745969572663306,0.0737750284479931,0.14378084055557847
1761413683261885700,8.9338857421875,-0.06534428656995296,0.07774855345515534,0.12071209965720772
1761413683271899600,8.943899658203126,-0.05165478391349315,0.0673911178308539,0.11759590386543423
1761413683281912600,8.95391259765625,-0.027476035946607587,0.043850978294759986,0.10877020785305648
1761413683291926500,8.963926513671876,-0.03845160346925258,0.04259467635704204,0.0805765616890043
1761413683301939700,8.973939697265624,-0.020991934624314305,0.04354289872627705,0.07176522299554199
1761413683311953700,8.98395361328125,0.007989829710125922,0.061603985796775666,0.07708937716037034
1761413683321966600,8.993966552734374,-0.0014817629903554916,0.05346258225413039,0.06892988997176289
1761413683331980800,9.003980712890625,0.016743045008182526,0.059604172015376385,0.0642528746040538
1761413683341993500,9.013993408203126,0.04978139125704765,0.05743877414241433,0.057014813109301024
1761413683352007700,9.024007568359375,0.09148293643295764,0.04669332558121532,0.08089282456394284
1761413683362020600,9.0340205078125,0.13423077579140663,0.053474619751796126,0.07556439608279615
1761413683372034600,9.04403466796875,0.1565922452032566,0.04169191883103922,0.05862385574113577
1761413683382047700,9.0540478515625,0.15960019484758375,0.030161840964481233,0.04767459170352667
1761413683392061700,9.064061767578124,0.16494798561632631,0.0018365129784680902,0.018827596197277308
1761413683402074600,9.07407470703125,0.17608254309296606,-0.026164058298896998,0.010514745077863335
1761413683412088600,9.084088623046876,0.16357786630690097,-0.04789628989649936,-0.016780089082941412
1761413683422101500,9.0941015625,0.15848258899450302,-0.07743853765791281,-0.027678938107565044
1761413683432115500,9.104115478515626,0.16263561702072618,-0.06398748339982703,-0.04015040674377233
1761413683442128600,9.114128662109374,0.15578794308304786,-0.08490600572805851,-0.05892009874135255
1761413683452142600,9.124142578125,0.16049392881691454,-0.07720714005483315,-0.04409213010687381
1761413683462155500,9.134155517578124,0.14347498947679996,-0.06165083887949586,-0.023247093139961362
1761413683472169700,9.144169677734375,0.09753507607877254,-0.05415741438418627,-0.00378529069237411
1761413683482182400,9.154182373046876,0.06729600515961646,-0.052902208425011484,-0.011935133269801735
1761413683492196600,9.164196533203125,0.02659457693696022,-0.040512919913232324,-0.002340681374631822
1761413683502209500,9.17420947265625,0.008215455159544945,-0.05579142706049606,-0.017077610724791883
1761413683512223700,9.1842236328125,-0.019256489133834837,-0.06363494363510981,-0.02531564304232597
1761413683522236700,9.194236572265625,-0.019486206236481667,-0.05328969163894653,0.015751768948510287
1761413683532250600,9.204250732421874,-0.031681086421012875,-0.030915125283505766,0.031147417935729026
1761413683542263600,9.214263671875,-0.06002922902703285,-0.02001686078077182,0.02619122030045837
1761413683552277500,9.224277587890626,-0.07475041281878948,0.0010539112334139644,0.05970971474908292
1761413683562290700,9.234290771484375,-0.04562836323082447,-0.004135693298932165,0.04967522746883332
1761413683572303600,9.2443037109375,-0.039110944160819054,-0.025074984420556574,0.04914404320158064
1761413683582317600,9.254317626953124,-0.03261865953207016,-0.016729692336264996,0.06475059499312191
1761413683592330800,9.264330810546875,-0.022990999487042425,-0.002192304146196693,0.08140442734789102
1761413683602344400,9.274344482421874,-0.01843640492260456,0.03502833275599405,0.11333667551837862
1761413683612357600,9.284357666015625,-0.03256780612766742,0.038926198711059984,0.11970076719019561
1761413683622371600,9.29437158203125,-0.0013397241711616515,0.029055669820867477,0.12897614319883285
1761413683632384500,9.304384521484375,0.03887187470793724,0.022117047930415717,0.12018961015306412
1761413683642398700,9.314398681640625,0.08222995491921901,0.005085888429544866,0.13997637023869902
1761413683652411600,9.32441162109375,0.13260989659130573,0.002927961476985365,0.14279256017059086
1761413683662425600,9.334425537109375,0.1325461837053299,-0.003951404506899416,0.15322992916330694
1761413683672438500,9.3444384765625,0.10568155765533446,-0.022620997130870818,0.17568989051356912
1761413683682452700,9.35445263671875,0.06381985348165035,0.011729966086521744,0.18385467493180185
1761413683692465700,9.364465576171876,0.0010182371318340302,0.03919469518782571,0.18754720930680632
1761413683702479600,9.374479736328125,-0.034112697482109065,0.056480797564145174,0.18806250188518314
1761413683712492800,9.384492919921875,-0.04994213477671146,0.0944888402506709,0.19014036760516465
1761413683722506500,9.394506591796874,-0.041354339173436165,0.09692920087380334,0.2089838920239359
1761413683732519700,9.404519775390625,-0.038650925433635706,0.11341132992347702,0.1980601277537644
1761413683742533600,9.41453369140625,-0.04312953215241432,0.08786136666862293,0.13951938371881842
1761413683752547600,9.424547607421875,-0.02898819407522678,0.08256455716844648,0.08232683942243456
1761413683762561500,9.4345615234375,-0.036117023041844366,0.05222271999455988,0.08552333390880376
1761413683772574500,9.444574462890625,-0.018905776000022887,0.02717584742363542,0.053940520230494435
1761413683782588400,9.45458837890625,0.0012368483185768127,0.026391766107548027,0.02590780024919659
1761413683792601600,9.4646015625,0.020689152285456657,0.003416585244145244,0.02304758851248771
1761413683802615300,9.474615234375,0.07193652444183826,0.013787793665472418,-0.0494880708662793
1761413683812628500,9.48462841796875,0.11341010608077048,0.016980452226940543,-0.06047496350053697
1761413683822642700,9.494642578125,0.14720423913300038,0.004632025448512286,-0.08830912870243192
1761413683832655400,9.5046552734375,0.13364742294549942,0.008920571221597492,-0.11968315846826881
1761413683842669600,9.514669677734375,0.11209551635086536,0.002785118940193206,-0.14145247067324818
1761413683852682500,9.5246826171875,0.08362345510423183,-0.004989734578691423,-0.19473438086453823
1761413683862696400,9.534696533203125,0.11275310347676276,0.004369154994934797,-0.19312822430953383
1761413683872709600,9.544709716796875,0.12963877182602881,-0.028326953687518832,-0.21001433105021713
1761413683882722300,9.554722412109374,0.12951076153218746,-0.03951934229861945,-0.20918588086944073
1761413683892736500,9.564736572265625,0.14273030858933924,-0.03315623700749129,-0.2178037793500349
1761413683902749400,9.57474951171875,0.11063654971420764,-0.048253414504788816,-0.21992957586497067
1761413683912763600,9.584763671875,0.10148527500927447,-0.058394284768961364,-0.19976316881198436
1761413683922776600,9.594776611328125,0.11634206787943839,-0.056652208608295763,-0.18653171212133018
1761413683932790500,9.60479052734375,0.1530851138651371,-0.04962428273288533,-0.14976148586776106
1761413683942803500,9.614803466796875,0.20089140565693378,-0.05352797564053908,-0.1158499735135585
1761413683952817400,9.6248173828125,0.17923662320971487,-0.04083099115276709,-0.0610570742374286
1761413683962830600,9.63483056640625,0.13526830214560032,-0.03362181782578118,-0.029036015272326767
1761413683972844500,9.644844482421876,0.07614917370080948,-0.009307670843042433,-0.009068710988014936
1761413683982857500,9.654857421875,0.002354454171657562,-0.012108809336274862,0.008500847972184419
1761413683992871400,9.664871337890625,-0.07469546776115894,-0.007879939594864846,0.049250389652885494
1761413684002884400,9.67488427734375,-0.10770751052498817,0.007995263937069102,0.06402465533874929
1761413684012898600,9.684898681640625,-0.10135726471543312,0.022662918310146777,0.10368903213124722
1761413684022911500,9.694911376953126,-0.1110217496395111,0.03696526476847939,0.12432407960928976
1761413684032925700,9.70492578125,-0.11346680470407008,0.027771420430298892,0.1530324338298291
1761413684042938400,9.7149384765625,-0.10328735599517821,0.03942737143253908,0.14604995453134179
1761413684052952600,9.72495263671875,-0.10983984637856482,0.03104520880342461,0.1393592612536624
1761413684062965500,9.734965576171875,-0.08300853807628154,-0.0015009334817063062,0.11566621444448828
1761413684072979500,9.7449794921875,-0.011729016238451004,-0.008407424934534356,0.10902436527721583
1761413684082992600,9.75499267578125,0.026917233020067214,-0.011754707802133633,0.1260316507121548
1761413684093006300,9.76500634765625,0.06867839942872524,-0.0017822529074270276,0.11407737435046583
1761413684103019500,9.77501953125,0.08555120829641819,-0.02077238272265531,0.13174754414092749
1761413684113033500,9.785033447265626,0.08604103763997555,-0.0077448876388836645,0.11790522554293274
1761413684123046400,9.79504638671875,0.10690613101422786,-0.019310164682986214,0.12668390407580882
1761413684133060400,9.805060302734375,0.0774333682924509,-0.022561704691685735,0.10963146432489156
1761413684143073500,9.815073486328124,0.10246727178394793,-0.00713562403358519,0.09985551838297396
1761413684153087500,9.82508740234375,0.15642390289902686,0.013147751329420134,0.09717479139901697
1761413684163100400,9.835100341796876,0.19948796859979628,0.011196489397482946,0.06676715897992253
1761413684173113600,9.845113525390625,0.26356793432235714,0.007214141763048246,0.03322546631880104
1761413684183127300,9.855127197265626,0.2502975338608026,-0.02805535193821415,0.07559395097084343
1761413684193140500,9.865140380859375,0.21644202601015566,-0.0363748154615052,0.011547229930758476
1761413684203154700,9.87515478515625,0.13649229098260401,-0.059868540306296195,-0.0647983796576038
1761413684213167400,9.88516748046875,0.066196519485116,-0.04146779578553978,-0.036570210169441994
1761413684223181600,9.895181640625,-0.03908990137279034,0.016681012622639536,-0.0532347831139341
1761413684233194500,9.905194580078126,-0.0865571704685688,0.03248740240179468,-0.10467351312395184
1761413684243208400,9.91520849609375,-0.04193067775666713,-0.013081467460445128,-0.07105933974850923
1761413684253221600,9.9252216796875,-0.02862228337228298,-0.05921193956108763,-0.05555212014559656
1761413684263235600,9.935235595703125,0.005451835665106773,-0.027504024498653596,-0.070758785899356
1761413684273248500,9.94524853515625,-0.04687573294341564,-0.02679870750720147,-0.11449454031661152
1761413684283262500,9.955262451171874,-0.14231997422277926,0.024659220393630676,-0.09323368909042327
1761413684293275600,9.965275634765625,-0.23015841667354106,0.037884197111148384,-0.05326620116550475
1761413684303289300,9.975289306640626,-0.2500064419597387,-0.00881179535118863,-0.02635433844029903
1761413684313302500,9.985302490234375,-0.14862579636871814,0.021072039239376318,-0.0504001076772809
