time,seconds_elapsed,z,y,x
1761413464137868300,0.069868408203125,0.014461656072735786,0.01787182984240353,0.018640914518758652
1761413464147881500,0.079881591796875,0.07537994289398194,0.038740138087049125,0.07121653960421681
1761413464157894400,0.089894287109375,0.12440613186955451,0.03043408203460276,0.070876274799183
1761413464167908400,0.099908447265625,0.11413432870209217,0.014530629655718802,0.05914418982081115
1761413464177921300,0.10992138671875,0.09944120196104049,0.03065050126425922,0.03977050404809415
1761413464187934500,0.1199345703125,0.04323182348310947,0.017416195029392838,0.04610138757005334
1761413464197948400,0.129948486328125,0.00625146161019802,0.032931744069233534,0.032242154369875785
1761413464207961300,0.13996142578125,-0.025111644902825355,0.05806092462874948,0.028162776101753113
1761413464217975300,0.149975341796875,-0.029489129334688186,0.08121507878825068,0.04065802747234702
1761413464227988500,0.159988525390625,0.0039016836136579513,0.09080123777911066,0.04155563389919698
1761413464238001400,0.17000146484375,0.049179333710670466,0.09270378346480429,0.04185921995565295
1761413464248015400,0.180015380859375,0.1289338384270668,0.08880480326488614,0.04634323350191116
1761413464258028500,0.190028564453125,0.13710779253244398,0.07383154440820217,0.041264907324314114
1761413464268041500,0.20004150390625,0.15708207454681394,0.019969678904488683,0.017686974794790148
1761413464278055400,0.210055419921875,0.15850129369497298,0.011373115472868085,0.011095102249085902
1761413464288068400,0.220068359375,0.1835404578834772,-0.005795461471006274,0.009735285137966275
1761413464298081300,0.230081298828125,0.20247662902176378,-0.019286665076389906,0.013198942660540341
1761413464308095500,0.240095458984375,0.2030477069079876,-0.02363404663093388,0.028707112111523745
1761413464318108400,0.2501083984375,0.21489187395870685,-0.01744754001572728,0.05998224808014929
1761413464328121300,0.260121337890625,0.22276363024711607,-0.010725392153859137,0.10902728788666427
1761413464338135600,0.270135498046875,0.22306465902030467,-0.0291361511785537,0.0887093800663948
1761413464348148200,0.280148193359375,0.2441951253324747,-0.06607033582217992,0.08865238918215036
1761413464358161400,0.290161376953125,0.24398235936462878,-0.11768405707292258,0.08580255270898342
1761413464368175600,0.300175537109375,0.2175689842134714,-0.14392171033099294,0.07620901412926614
1761413464378188300,0.310188232421875,0.1545049175351858,-0.17505436908900737,0.03687529406324029
1761413464388201500,0.320201416015625,0.07159165652692318,-0.15652188338078557,-0.009643222940340637
1761413464398215200,0.330215087890625,-0.02235387062728405,-0.15002916036061942,-0.045295185753703116
1761413464408228400,0.340228271484375,-0.08368950607776642,-0.09726013159491122,-0.023193317126110193
1761413464418241500,0.350241455078125,-0.16120763004422187,-0.0707310941748321,-0.007615808765962719
1761413464428255200,0.360255126953125,-0.259463421612978,-0.05968355739451944,-0.05124006563276052
1761413464438268400,0.370268310546875,-0.2836047601789236,-0.0021110738698393106,0.03129325614720583
1761413464448282400,0.380282470703125,-0.27241467312276363,0.21458412318378686,0.25638715597279366
1761413464458295300,0.39029541015625,-0.3157844437718391,0.14272278287000953,0.21426417051441965
1761413464468308500,0.40030859375,-0.3367442296922207,0.021861557065695522,0.011660115720704196
1761413464478322400,0.410322509765625,-0.18630115476846693,0.020904256340861318,0.01902589524835348
1761413464488335400,0.42033544921875,-0.09428162724077702,-0.06074935999512672,0.08572904908135533
1761413464498348500,0.4303486328125,-0.04066577238738536,-0.12660239980481564,0.04827412849925458
1761413464508362200,0.4403623046875,0.016489362508058547,-0.11851897352710365,-0.012632833210378884
1761413464518375400,0.45037548828125,0.07254910338222981,-0.0967570774435997,0.02549384915344417
1761413464528388600,0.460388671875,0.09214636877775191,-0.09596183541268109,0.04365151019990444
1761413464538402300,0.47040234375,0.02063888340294361,-0.11122392114810645,-0.06793474145457148
1761413464548415200,0.480415283203125,0.010664017355442047,-0.045411578674986956,-0.06748078714199364
1761413464558428200,0.49042822265625,0.05910159278810024,0.0017362492080777883,-0.007796791356056928
1761413464568442400,0.5004423828125,0.05562602563202381,0.009196502086147666,-0.007742357755079865
1761413464578455300,0.510455322265625,0.06274257963895798,0.060207654333859675,-0.034216084791347384
1761413464588468200,0.52046826171875,0.06428396386206149,0.0674156860165298,-0.04619717609472573
1761413464598482400,0.530482421875,0.08198971642255783,0.07140365967415273,-0.0397930812060833
1761413464608495400,0.540495361328125,0.07597732426524162,0.02120966902822256,-0.06489595828056335
1761413464618509300,0.55050927734375,0.08224281440079212,0.019411533565074204,-0.120974549985677
1761413464628522200,0.560522216796875,0.05862696101367473,0.02305536996014416,-0.13066804180853067
1761413464638535200,0.57053515625,0.0322597630918026,0.0005798457145690918,-0.13005853160806
1761413464648549400,0.58054931640625,0.02200140392780304,-0.00035882337503135203,-0.13841865593530236
1761413464658562300,0.590562255859375,0.027579496321082114,0.011113587753847241,-0.1502341083481908
1761413464668575200,0.6005751953125,0.04100947125852108,0.06439714191295207,-0.0699080873541534
1761413464678589400,0.61058935546875,0.013252280282974243,0.01246646366752684,-0.13600962203219533
1761413464688602000,0.62060205078125,-0.02705108853280544,-0.06458133937343954,-0.2035121826145798
1761413464698615300,0.630615234375,-0.0067693480044603346,-0.021823709273338317,-0.13023659158870576
1761413464708629200,0.640629150390625,-0.030211598390340804,-0.04335062755718827,-0.10076024867035448
1761413464718642200,0.65064208984375,-0.09658288992047309,-0.16391206669732927,-0.19824848993271588
1761413464728655400,0.6606552734375,-0.0882516994267702,-0.1197932312466204,-0.22093882597275077
1761413464738669000,0.6706689453125,-0.04746376196444034,-0.07638583200089633,-0.08934570520855487
1761413464748682200,0.68068212890625,-0.05007423672378063,-0.1690671113729477,-0.142820324960351
1761413464758695400,0.6906953125,0.023349895927309988,-0.18796075854375957,-0.1736118421304971
1761413464768709000,0.700709228515625,0.09635434186160564,-0.15033362319990992,-0.10384075209423899
1761413464778722300,0.710722412109375,0.11593524064421654,-0.14432627254389224,-0.04748392796963453
1761413464788735200,0.7207353515625,0.08565992936789989,-0.11236914566047489,-0.02847425320371985
1761413464798749200,0.730749267578125,0.04460544992387294,-0.05027333949245512,-0.017706117886677385
1761413464808762400,0.740762451171875,-0.03445288922190666,0.00959901847243309,0.0281073195874691
1761413464818775300,0.750775390625,-0.08864157552719115,0.04750299799628555,0.04753222409076988
1761413464828789200,0.760789306640625,-0.12082827338278293,0.0775257958162576,0.07084514900855719
1761413464838802400,0.770802490234375,-0.08861118038892746,0.0904058087207377,0.07094225270748138
1761413464848816000,0.780816162109375,-0.03652618836462498,0.10192527386173605,0.11300883180350065
1761413464858829300,0.790829345703125,0.009305003961920738,0.09901274741590023,0.12110124510526657
1761413464868842200,0.80084228515625,0.05278174211680889,0.1194292933050543,0.15556458265595138
1761413464878856200,0.810856201171875,0.04759937104284763,0.15491101411804556,0.17274543455950914
1761413464888869400,0.820869384765625,0.02569265966117382,0.16744915478229522,0.21248817381784318
1761413464898882000,0.830882080078125,-0.077328738874197,0.20378486207611857,0.21633556996099648
1761413464908896300,0.840896240234375,-0.13801204789578914,0.2571595285847783,0.21378120930306613
1761413464918909200,0.8509091796875,-0.12911562473475932,0.24976108889654278,0.2261452355094254
1761413464928922000,0.860922119140625,-0.044237785655260084,0.22239874245747923,0.23156821040622888
1761413464938936300,0.870936279296875,0.09062836543023586,0.20444405663721263,0.22519253789447247
1761413464948949200,0.88094921875,0.1804857464879751,0.17411102382428942,0.23340207476988434
1761413464958962200,0.890962158203125,0.23251520893275737,0.1188905833184719,0.18395364179424942
1761413464968976400,0.900976318359375,0.22911679866611956,0.08281170032992959,0.1001926779154688
1761413464978989300,0.9109892578125,0.18229308817088602,0.03299304580241442,0.05557904468514025
1761413464989002200,0.921002197265625,0.1520867504775524,0.0030278233885765076,0.020016075329482554
1761413464999016200,0.93101611328125,0.12745558256804942,0.02979059649929404,0.0013340250827372072
1761413465009029000,0.941029052734375,0.13239596157968042,-0.016886691262573004,-0.04223258331269025
1761413465019042300,0.951042236328125,0.1724959167778492,-0.06617569589279591,-0.062165583468601106
1761413465029056300,0.96105615234375,0.2147761386245489,-0.07709631835781038,-0.07419014858752489
1761413465039069200,0.971069091796875,0.25861528035104275,-0.09223894243203103,-0.06662292820364236
1761413465049082400,0.981082275390625,0.2999830635279417,-0.09919738326780497,-0.05000226746611297
1761413465059096300,0.991096435546875,0.29141280358135696,-0.12807831757627428,-0.04687785183526575
1761413465069109200,1.001109130859375,0.2792740374982357,-0.14129801076389847,-0.07766578880883752
1761413465079123200,1.011123291015625,0.22742811492681503,-0.15216661078073082,-0.09505750698409975
1761413465089136400,1.021136474609375,0.1769791996717453,-0.18148637489788233,-0.12711071465313434
1761413465099149300,1.0311494140625,0.09849193841218948,-0.1944329502325505,-0.16191146746464072
1761413465109163300,1.041163330078125,0.010787935996055603,-0.1519672157511115,-0.18599135816693305
1761413465119176200,1.05117626953125,-0.061658876055479046,-0.11909976908974348,-0.17457089642100035
1761413465129189400,1.061189453125,-0.14584347217381,-0.09548742283396422,-0.14293416059836744
1761413465139203300,1.071203369140625,-0.18054478319883346,-0.06948533189743757,-0.1051666669357568
1761413465149216300,1.08121630859375,-0.15942659184634683,-0.05270305085740983,-0.1011701446454972
1761413465159229200,1.091229248046875,-0.10970540634393691,-0.04205013941787183,-0.060561874599009746
1761413465169243400,1.101243408203125,-0.0677741440653801,-0.031138430911675095,-0.015008257104828953
1761413465179256300,1.11125634765625,-0.03917348800301552,-0.04583689141497016,0.005697115663066506
1761413465189269200,1.121269287109375,-0.0038309564650058745,-0.016911679573357104,0.04607186921462417
1761413465199283500,1.131283447265625,0.036273090386390684,-0.016048852198943496,0.07318104461021721
1761413465209296100,1.141296142578125,0.04508066622018814,-0.0027148849818855523,0.11508951053507625
1761413465219309300,1.151309326171875,0.06880056450366974,0.01300524671934545,0.15146554983928798
1761413465229323300,1.1613232421875,0.051748891937732695,0.01543853828087449,0.14763349739573894
1761413465239336200,1.171336181640625,0.03228314396739006,0.05020882288888096,0.1507897694695741
1761413465249349400,1.181349365234375,-0.007853051587939261,0.0647512160476297,0.14127579893209039
1761413465259363000,1.191363037109375,0.035221535506844516,0.06465140893496572,0.13040376484915614
1761413465269376300,1.201376220703125,0.10856266604959965,0.054859863565117115,0.12267338979281485
1761413465279389400,1.211389404296875,0.17909750699996949,0.04849778118729591,0.11286766976714134
1761413465289403100,1.221403076171875,0.21259879458546638,0.026094591525569557,0.07697685669660567
1761413465299416300,1.231416259765625,0.18896657458543775,0.01373779877759516,0.034447190133482214
1761413465309429200,1.24142919921875,0.14607669640779494,-0.0018385405387729406,-0.008795373939350247
1761413465319443200,1.251443115234375,0.09542670562267302,0.003640329263731837,-0.009502353164926172
1761413465329456400,1.261456298828125,0.07157178278267383,0.008979936726018786,-0.003130333914980292
1761413465339469300,1.27146923828125,0.062968205088377,0.017913111700862645,-0.0013720190055668353
1761413465349483300,1.281483154296875,0.05718553003370762,0.023989289809390902,0.00871310248337686
1761413465359496400,1.291496337890625,0.05469780487120151,0.019531725878641007,0.02389876198172569
1761413465369509000,1.301509033203125,0.03785246853232384,0.02255195048265159,0.027905732600763438
1761413465379523300,1.3115234375,0.030692659905552862,-0.0028511516474187372,0.012251798003539443
1761413465389536300,1.321536376953125,0.007145195579528808,-0.04593947500661015,-0.029696269279345867
1761413465399550200,1.33155029296875,-0.008694178587198257,-0.07165953413136303,-0.049591494708135724
1761413465409563400,1.3415634765625,-0.0008136544704437256,-0.09323694049343466,-0.03852510709688067
1761413465419576000,1.351576171875,0.0236281283468008,-0.10783932021111249,-0.05670191123522818
1761413465429590300,1.36159033203125,0.026976269730925557,-0.1186604278244078,-0.046111032181233164
1761413465439603500,1.371603515625,0.03351356254518032,-0.1270516048770398,-0.06196713828705251
1761413465449616100,1.3816162109375,0.01814239041209221,-0.15205416338220237,-0.057315366958454246
1761413465459630300,1.39163037109375,-0.00078209028840065,-0.14607004747129976,-0.06561696603149175
1761413465469643300,1.401643310546875,-0.019108605095744132,-0.12441855295971035,-0.06905227424241601
1761413465479656200,1.41165625,-0.028366262784600256,-0.11164382706061005,-0.05915259232297539
1761413465489670400,1.42167041015625,-0.020846973195672035,-0.10630137005411087,-0.028647052487358448
1761413465499683300,1.431683349609375,-0.04141629849374294,-0.09343713924065232,-0.01900017628520727
1761413465509696300,1.4416962890625,-0.03918342487514019,-0.08843414332158862,-0.0395575188845396
1761413465519710200,1.451710205078125,-0.025006430962681767,-0.10429368349350988,-0.016572876073047516
1761413465529723100,1.46172314453125,-0.021772855868935584,-0.11711086029484867,-0.015312793009355664
1761413465539736800,1.47173681640625,-0.007071545821428299,-0.13547288480699063,-0.025066490586847064
1761413465549750800,1.481750732421875,-0.027779402807354924,-0.11478877402283251,-0.04323087363503873
1761413465559764000,1.491763916015625,-0.05842120930850506,-0.0851657891754061,-0.026641119492426514
1761413465569777000,1.50177685546875,-0.048204351198673244,-0.040897608381882306,0.0006895166341215371
1761413465579790800,1.511790771484375,-0.04117605999708175,-0.0197767136156559,0.003582096270471811
1761413465589803800,1.5218037109375,-0.021664719319343564,-0.01617189405672252,0.0003231675397604704
1761413465599816700,1.531816650390625,-0.03017477351129055,-0.020670666780695318,0.005564794520288706
1761413465609831000,1.541830810546875,-0.03764379421770572,-0.017678645357862115,0.020947510960698128
1761413465619843800,1.55184375,-0.05364975712299347,0.002923997687920928,0.005568886173516511
1761413465629856800,1.561856689453125,-0.04914484691917896,0.003477320721745491,0.01565225409679115
1761413465639871000,1.57187109375,-0.04732289218902588,0.002870806195959449,0.03788220608346164
1761413465649883600,1.581883544921875,-0.03129471745193004,0.018299919061362743,0.01759388968385756
1761413465659896800,1.591896728515625,-0.04222586131095886,0.04476224792078137,0.02017024297788739
1761413465669910800,1.601910888671875,0.0007382511466741561,0.04431560013182461,0.023429098643362522
1761413465679923700,1.611923828125,0.03134966250956058,0.058722018885985015,0.014961641484126448
1761413465689937000,1.62193701171875,0.09411153137087822,0.03888743760325014,0.0020181348893791437
1761413465699950600,1.63195068359375,0.1573193904340267,0.024691738990321753,0.028316505358740685
1761413465709963800,1.6419638671875,0.2255430318325758,0.010737228722125292,0.02881839046627283
1761413465719977000,1.65197705078125,0.2722299642056227,-0.02007854610644281,0.03135769968554377
1761413465729990700,1.66199072265625,0.28753566988706586,-0.03759016433432698,0.03640438861586153
1761413465740003800,1.67200390625,0.24508242956101892,-0.06771306152790785,0.030216055369749664
1761413465750017000,1.68201708984375,0.17170038248598574,-0.0744717420078814,0.00827989869788289
1761413465760030700,1.69203076171875,0.07593933034241199,-0.043508813793584705,0.0013736995059996844
1761413465770044000,1.7020439453125,0.017568974438309667,-0.014484087100252509,-0.014544438985362649
1761413465780056800,1.712056884765625,-0.009226678028702735,-0.008270692478120326,0.0028353695563971995
1761413465790070800,1.72207080078125,-0.0501888030141592,0.003992430637031794,-0.00032185236550867554
1761413465800084000,1.732083984375,-0.05698094737231731,0.019353958158940077,-0.020199176811426876
1761413465810096600,1.7420966796875,-0.03293956204950809,-0.004823474633693695,-0.04683949258625507
1761413465820110800,1.75211083984375,-0.003087444621324539,-0.02844108158648014,-0.04686148522235453
1761413465830123800,1.762123779296875,0.005349544334411621,-0.04996420047804713,-0.06676701284945011
1761413465840136700,1.77213671875,0.03025660657584667,-0.06441876922287046,-0.06724011025391519
1761413465850151000,1.78215087890625,0.06311842721402645,-0.07773125526048243,-0.06592676263302565
1761413465860163800,1.792163818359375,0.09149111973941326,-0.10123575722761452,-0.0516321336902678
1761413465870176800,1.8021767578125,0.09949439345300197,-0.11027290403358637,-0.038456279644370074
1761413465880191000,1.81219091796875,0.06631225481927394,-0.10928352767005563,-0.024116715581342575
1761413465890203600,1.82220361328125,0.050780339166522026,-0.09802870481461286,-0.018925065222382544
1761413465900216800,1.832216796875,0.022260347124934195,-0.07113331830017268,-0.027210078486800193
1761413465910230800,1.842230712890625,-0.010425532424449921,-0.05522979285605251,-0.023104396733641622
1761413465920243700,1.85224365234375,-0.005295768320560455,-0.06400163978934288,-0.007959069245681166
1761413465930258000,1.8622578125,0.0048608840346336364,-0.07668459575176238,0.014606179109960794
1761413465940270800,1.872270751953125,0.02491056937277317,-0.07325703245587646,0.05133943435400724
1761413465950283800,1.88228369140625,0.07170154664218426,-0.07075330600664019,0.09561506780162453
1761413465960297700,1.892297607421875,0.082679452252388,-0.07225486967600882,0.1223071868289262
1761413465970311000,1.902310791015625,0.0482674795627594,-0.0687962536547333,0.1370518245615065
1761413465980323800,1.91232373046875,0.033254034826159476,-0.04102401124052703,0.14358685235343874
1761413465990337800,1.922337890625,0.01741349161565304,-0.03181348062902689,0.13339381351061164
1761413466000350700,1.932350830078125,-0.031191841599345207,-0.015887378026917576,0.13453487330451608
1761413466010364000,1.942364013671875,-0.04532733445763588,-0.004288052582740783,0.1125588960789144
1761413466020377900,1.9523779296875,-0.042326399075984955,0.01662358334697783,0.1064553915720433
1761413466030390800,1.962390869140625,-0.03880757730007171,0.02064977012313902,0.11302812102586031
1761413466040404000,1.972404052734375,-0.042567806616425514,0.0361145388238132,0.11782017760798334
1761413466050418000,1.98241796875,-0.0433265160292387,0.032673531524464484,0.12143719906136392
1761413466060430800,1.992430908203125,-0.01869943977296352,0.03197868112809956,0.10828589493483304
1761413466070443800,2.00244384765625,0.004975450325012207,0.031208354342728853,0.10721643907241522
1761413466080458000,2.0124580078125,0.0274058933198452,0.026103870810568332,0.08809950453974306
1761413466090471000,2.022470947265625,0.07272621351480484,0.010407631441578268,0.08933956772871315
1761413466100483800,2.03248388671875,0.13214169455766678,0.007908435036987066,0.06871580882966517
1761413466110497800,2.042497802734375,0.14735563030242918,0.011146978566795586,0.029821210833266377
1761413466120510700,2.0525107421875,0.1461485926002264,-0.0005133563496172428,0.012601634354516862
1761413466130524000,2.06252392578125,0.17159399950206278,-0.0008249795820564031,-0.0370070306841284
1761413466140537900,2.072537841796875,0.15696926182210444,0.011563377347961068,-0.06468195020370185
1761413466150550800,2.08255078125,0.1007002621114254,0.0017187866166234016,-0.06344254460185766
1761413466160563700,2.092563720703125,0.02915653637945652,0.028003201625868675,-0.0938210970569402
1761413466170577700,2.10257763671875,-0.0013566753059625625,0.07188114099279046,-0.05581533765904605
1761413466180590800,2.1125908203125,-0.014859715479612349,0.048345586300268764,-0.030836379225179553
1761413466190603800,2.122603759765625,0.00021919570863246916,0.03983889310918748,-0.007471943315863609
1761413466200617700,2.13261767578125,-0.007765957826375961,0.023368162236362695,-0.020579262170195577
1761413466210631000,2.142630859375,0.016273673930764197,-0.004764291792362928,-0.058867784032225604
1761413466220643800,2.152643798828125,0.006033434945344925,-0.039723742296919225,-0.07234905076548456
1761413466230657800,2.16265771484375,0.011622633254528045,-0.0729926093660295,-0.09351013141162692
1761413466240671000,2.1726708984375,0.01720247921347618,-0.10369747116602956,-0.09931647960282862
1761413466250684000,2.182683837890625,0.038244098198413845,-0.12047748718373477,-0.10404168149381876
1761413466260697900,2.19269775390625,0.030194647255539893,-0.1429480429932475,-0.10102196834646165
1761413466270710800,2.202710693359375,0.015359481695294379,-0.11355053746476769,-0.10181187661513685
1761413466280723700,2.2127236328125,0.012850129222869872,-0.10654197387695312,-0.08097389044351876
1761413466290738000,2.222738037109375,0.014967267507314681,-0.08572517662383615,-0.05549304690212011
1761413466300750800,2.232750732421875,0.005689151552319526,-0.09822919582277535,-0.046347982742264864
1761413466310763800,2.242763671875,0.013265139764547348,-0.0995620518617332,-0.0347299525976181
1761413466320778000,2.252778076171875,-0.00644318479001522,-0.09121968238689004,-0.03550758590660989
1761413466330790700,2.262790771484375,-0.00878770208954811,-0.09162292942553758,-0.0297140241317451
1761413466340803800,2.272803955078125,-0.0008732757031917572,-0.061931409386545413,-0.02478102470897138
1761413466350817800,2.28281787109375,0.004261164575815201,-0.058172787505388256,0.018982275302335618
1761413466360830700,2.292830810546875,-0.011641922476887702,-0.04701199960894882,0.04328391899652779
1761413466370844000,2.302843994140625,-0.012612813335657119,-0.02610292096249759,0.03632262861654162
1761413466380857600,2.312857666015625,0.010575170028209686,-0.03326397169828415,0.03886668707616627
1761413466390870800,2.322870849609375,0.059062429821491236,-0.07023819609135389,0.00926167627684772
1761413466400884000,2.332884033203125,0.09963818583786486,-0.1066194230273366,0.026752251716703174
1761413466410897700,2.342897705078125,0.09879530527293681,-0.1264010320138186,0.05899842467457056
1761413466420910800,2.352910888671875,0.07410919230580329,-0.1023879960026592,0.07112447740659117
1761413466430923800,2.362923828125,-0.009065934509038925,-0.08214490698426961,0.07294592068009079
1761413466440937700,2.372937744140625,-0.061390580508112906,-0.024343656205013393,0.10526669324412942
1761413466450951000,2.382950927734375,-0.11585457662343979,0.007121157116815447,0.10670841648504137
1761413466460963800,2.3929638671875,-0.14914660537242888,0.028758476972579956,0.09699285896085202
1761413466470977800,2.402977783203125,-0.18916531202793122,0.04233136751204729,0.11421901131086051
1761413466480991000,2.412990966796875,-0.1622130076944828,0.04991108205132186,0.07703187481947243
1761413466491003600,2.423003662109375,-0.10895604928135871,0.04244790656380355,0.08148293594419956
1761413466501017900,2.433017822265625,-0.06408230381011963,0.022063070987164972,0.11337525396309793
1761413466511031000,2.443031005859375,-0.0015513210952281952,0.018122443602606654,0.11438998396359383
1761413466521043700,2.453043701171875,0.015551789397001265,0.023594591403380036,0.12393975646682083
1761413466531058000,2.463057861328125,0.04047814086079597,-0.019506518372148274,0.10854381521865725
1761413466541071000,2.473071044921875,0.04701777176260948,-0.033217721403762696,0.11539945326708256
1761413466551084300,2.483084228515625,0.057041737648844716,-0.005649623259529471,0.11880261277407407
1761413466561098000,2.493097900390625,0.08026479232609271,0.021080489690601823,0.12649082918912172
1761413466571111200,2.503111083984375,0.06580956599414348,0.0646762511152774,0.12616283934377134
1761413466581124000,2.5131240234375,0.04270809186995029,0.09746405666917562,0.1466462399240583
1761413466591138000,2.523137939453125,0.012872341054677962,0.1158729890629649,0.12177775612734257
1761413466601151200,2.533151123046875,0.03758592655062675,0.11795922075249254,0.12657909199446438
1761413466611164200,2.5431640625,0.07248948214948177,0.0838419201605022,0.10436689486019313
1761413466621178000,2.55317822265625,0.1295703827649355,0.06123772803395986,0.09923355055972934
1761413466631191300,2.56319140625,0.17402151890993117,0.030367227343469857,0.0803282129511237
1761413466641204200,2.573204345703125,0.19450024331510066,0.008773089042305946,0.06559066254645586
1761413466651218200,2.58321826171875,0.19307693251371383,0.003303352394327521,0.03626256899237632
1761413466661231400,2.5932314453125,0.1997264535307884,0.009933511123806237,0.0570977056197822
1761413466671244000,2.603244140625,0.22938626325726508,0.0006828676976263523,0.05843859883472323
1761413466681258200,2.61325830078125,0.2372930908590555,-0.004180354424566031,0.05370141424499452
1761413466691271200,2.623271240234375,0.2111164470732212,0.002632394330203533,0.04582826971709728
1761413466701284000,2.6332841796875,0.14578443546295164,-0.002067234728112817,0.055226504920423025
1761413466711298300,2.64329833984375,0.08782090679407119,0.01305946112461388,0.035454029088467356
1761413466721311000,2.65331103515625,0.015231471401453017,0.031185631054267287,0.01644881130196154
1761413466731324200,2.66332421875,-0.022765374037623406,0.036219314372539516,0.003269084798544645
1761413466741338400,2.67333837890625,-0.030222119784355163,0.03366225030086934,0.011821516827493906
1761413466751351000,2.68335107421875,-0.025440730726718902,0.05034983879476786,0.0267004484642297
1761413466761364200,2.6933642578125,-0.008338204756379128,0.04089702385999262,0.06263415082842111
1761413466771378200,2.703378173828125,0.025439561682939527,0.03544263091161847,0.06476246809400618
1761413466781391000,2.71339111328125,0.04575637352466583,0.03472629933580756,0.08434438978992402
1761413466791404300,2.723404296875,0.0749409669548273,0.015545798047631978,0.10703757537417113
1761413466801418000,2.73341796875,0.10088146389722824,-0.006373772815614938,0.10636588665768504
1761413466811431200,2.74343115234375,0.11786357835829257,-0.012830182413384317,0.09818374924585223
1761413466821444400,2.7534443359375,0.08785656262934208,-0.0410325598731637,0.09979206122532486
1761413466831458000,2.7634580078125,0.064279287686944,-0.03792597215995192,0.08675327756255864
1761413466841471200,2.77347119140625,0.051930093723535534,-0.03734576111920178,0.06959010744616388
1761413466851484400,2.783484375,0.0491647206634283,-0.022836685708165168,0.07071472756192088
1761413466861498000,2.793498046875,0.04611176283359527,-0.03727890642806887,0.08537088329344987
1761413466871511300,2.80351123046875,0.03695931908488274,-0.03790704826377332,0.08062675750628114
1761413466881524000,2.81352392578125,0.02560907303094864,-0.05368826250247657,0.08380378010720015
1761413466891538200,2.8235380859375,-0.002756605231761932,-0.07474193725138903,0.0556036676697433
1761413466901551400,2.83355126953125,-0.02948328411579132,-0.08682188581936061,0.03814962484799325
1761413466911564000,2.84356396484375,-0.02976034749150276,-0.07500007673092186,0.0272506296928972
1761413466921578200,2.853578125,-0.020704934376478194,-0.08811514050029218,0.049800972740352153
1761413466931591200,2.863591064453125,-0.000006429740786552429,-0.0829805540908128,0.05704670608490705
1761413466941604000,2.87360400390625,0.04319909025728702,-0.09633607555255293,0.04063515805341303
1761413466951618300,2.883618408203125,0.09246201059818267,-0.11469970749989152,0.046462256771698594
1761413466961631200,2.89363134765625,0.08545826931595801,-0.13883447019457817,0.052101431702449914
1761413466971644200,2.90364404296875,0.03339841173291206,-0.1505650938682258,0.05556406631171703
1761413466981658000,2.913658203125,-0.007454407659173011,-0.11977043489292263,0.0676169076770544
1761413466991671000,2.923671142578125,-0.03481061661839485,-0.08689356281608343,0.050556467282772063
1761413467001684200,2.933684326171875,-0.05321721092462539,-0.09761289055533706,0.028408056099712847
1761413467011698200,2.9436982421875,-0.02404956862926483,-0.10956365978568791,0.05341894404180347
1761413467021711000,2.953711181640625,0.035354221975803374,-0.10193046149350703,0.07649243418052792
1761413467031724300,2.963724365234375,0.09733341602683067,-0.11152334248609841,0.12335545377284288
1761413467041738200,2.97373828125,0.11957973462641239,-0.11966573240943253,0.13258863460756837
1761413467051751200,2.983751220703125,0.07932312756180762,-0.126417106365785,0.11195113944411277
1761413467061764400,2.993764404296875,-0.005310965889692306,-0.12536014465875922,0.0963230699405074
1761413467071778300,3.0037783203125,-0.07874328184723854,-0.1367588329643011,0.053270256286114454
1761413467081791200,3.013791259765625,-0.08059972336888313,-0.11188874173238873,0.034994594883173705
1761413467091804200,3.02380419921875,-0.08022270675003527,-0.07335267485007643,0.061826779968291515
1761413467101818000,3.033818115234375,-0.12991349711418151,-0.10027334193624556,0.022758359774947164
1761413467111831300,3.043831298828125,-0.11984569208621978,-0.060250178301334376,0.0036463206131011248
1761413467121844200,3.05384423828125,-0.13062544477581978,-0.04922850661464035,0.014117884136363864
1761413467131858200,3.063858154296875,-0.12752806328237057,-0.026670418652147053,0.04741546584330499
1761413467141871000,3.07387109375,-0.09298457316756248,-0.02455817573852837,0.02441262978799641
1761413467151884000,3.083884033203125,0.004518938729166984,-0.023487258571386335,0.056136642035283145
1761413467161898200,3.093898193359375,0.033897593426704405,-0.005012494399771094,0.09860621244162321
1761413467171911200,3.1039111328125,0.01471066239774227,0.028197701284661886,0.10136128330342471
1761413467181924000,3.113924072265625,-0.008749123644828796,0.06773512722924352,0.09910787835344671
1761413467191938000,3.12393798828125,0.0061871642023324964,0.07343553082793951,0.11866459254287183
1761413467201951200,3.133951171875,0.03358487421572208,0.08538564247116447,0.12368548944480716
1761413467211964200,3.143964111328125,0.051285366079211234,0.11149543156586587,0.08278704081270843
1761413467221978000,3.15397802734375,0.056088382446765894,0.12282923794165253,0.022627317273803054
1761413467231991300,3.1639912109375,0.04149930060207844,0.10377075559794902,-0.027107750623486936
1761413467242004200,3.174004150390625,0.051398178803920745,0.08745755337439477,-0.0649185719711706
1761413467252017200,3.18401708984375,0.05277823498547077,0.08048259979523718,-0.09740746764373033
1761413467262031000,3.194031005859375,0.09831775088906287,0.052267508984357114,-0.14218560725338755
1761413467272044300,3.204044189453125,0.1559866805255413,0.0446078610766679,-0.12030998512972145
1761413467282058200,3.214058349609375,0.18889818552434443,0.05952515196241438,-0.08391458353791385
1761413467292071200,3.2240712890625,0.1864846946418285,0.07281747199483216,-0.07085187101028859
1761413467302084000,3.234083984375,0.17483751146793364,0.08652699452601373,-0.04781706891413778
1761413467312097000,3.244096923828125,0.15023849226236344,0.09400777873545885,-0.038678178766742344
1761413467322111200,3.254111328125,0.1225765783548355,0.08267411849014461,-0.06755366971511394
1761413467332124200,3.264124267578125,0.09247370103597641,0.09301328780539334,-0.1001750326609239
1761413467342137000,3.27413720703125,0.08090425927340984,0.07433386790715157,-0.10567447032742201
1761413467352151000,3.284151123046875,0.11559329533874987,0.06473178069479762,-0.14726718483399598
1761413467362164200,3.294164306640625,0.15648644674122333,0.06835033651813864,-0.15792404179628938
1761413467372177200,3.30417724609375,0.21030454616844652,0.0383355758741498,-0.16389372732304036
1761413467382191000,3.314191162109375,0.2508294487804174,-0.01180588086694479,-0.15330061977934092
1761413467392204300,3.324204345703125,0.24960721350908277,-0.06150280871093273,-0.19114921585414557
1761413467402217200,3.33421728515625,0.1799772124439478,-0.09524163137935102,-0.24963055785205213
1761413467412231200,3.344231201171875,0.06467383996248245,-0.104011615149118,-0.3018025340400636
1761413467422244000,3.354244140625,-0.010875029757618903,-0.0544256368663162,-0.3090610172683373
1761413467432257300,3.36425732421875,-0.04863222122192382,-0.02938241755720228,-0.29326756460256875
1761413467442271200,3.374271240234375,-0.06641688423752784,0.02794482250213623,-0.30038967156745494
1761413467452284200,3.3842841796875,-0.08426876727044581,0.06338562678284942,-0.2792985143523663
1761413467462297000,3.394297119140625,-0.11115092897713184,0.04638385777324438,-0.28480942326094955
1761413467472311300,3.404311279296875,-0.10172259089648723,0.03918649361506104,-0.2773892101323232
1761413467482324200,3.41432421875,-0.11028934371173381,0.022755473698116837,-0.27185309371724725
1761413467492337200,3.424337158203125,-0.10586392848491669,0.016358941061422227,-0.2502435386512428
1761413467502351400,3.434351318359375,-0.051630818516016,-0.0007158566517755389,-0.1989372759144753
1761413467512364000,3.444364013671875,-0.010828268006443978,-0.03859419027771801,-0.1823711949083954
1761413467522377200,3.454377197265625,0.010294014999270438,-0.05619008925557136,-0.1666281207229942
1761413467532391200,3.46439111328125,0.0442284333050251,-0.08629442787915467,-0.16322006584517657
1761413467542404000,3.474404052734375,0.07794482494592667,-0.09212167272791266,-0.13107764552272855
1761413467552417300,3.484417236328125,0.139250649780035,-0.09317739232592284,-0.105527170811221
1761413467562431200,3.49443115234375,0.16569500459134578,-0.09193411426655948,-0.04872479487620294
1761413467572444200,3.504444091796875,0.16641922721266744,-0.09775069159083068,-0.012120718969777226
1761413467582457300,3.514457275390625,0.1433469791829586,-0.09318152051176876,0.00006013268940150738
1761413467592471300,3.52447119140625,0.1343582015633583,-0.08354783258475362,0.028845643799379466
1761413467602484200,3.534484130859375,0.1514244871765375,-0.06948299380987882,0.07422785024940967
1761413467612497400,3.544497314453125,0.16502631154954434,-0.03919679581336677,0.09288001681454479
1761413467622511000,3.554510986328125,0.19006606025993822,0.009589373861253261,0.11947189033776522
1761413467632524300,3.564524169921875,0.18714286628961563,0.0385786639150232,0.15512414541207253
1761413467642537500,3.574537353515625,0.13301497026085854,0.01382562319152057,0.15070282183848321
1761413467652551200,3.58455126953125,0.03853051392436027,0.011770553825236856,0.11246792985983192
1761413467662564400,3.594564453125,-0.07564823844134808,0.014525113230384886,0.05332154808193445
1761413467672577300,3.604577392578125,-0.08655541690289974,0.014993534459732472,0.016205942456796765
1761413467682591200,3.61459130859375,-0.077172087007761,0.03909687910284847,0.017222352957725524
1761413467692604400,3.6246044921875,-0.06694763011336326,0.057041445387899875,0.05779306747280061
1761413467702617000,3.6346171875,-0.07677344307899475,0.07800156010184436,0.09370141620002687
1761413467712631300,3.64463134765625,-0.14313538225889205,0.07184194149356335,0.09178257696665823
1761413467722644200,3.654644287109375,-0.17254092496335505,0.09579053396638482,0.0856255156416446
1761413467732657200,3.6646572265625,-0.14126023603677748,0.1014138902734965,0.08244798158407211
1761413467742671400,3.67467138671875,-0.07865443452000617,0.07513342078700662,0.10885120066739618
1761413467752684300,3.684684326171875,0.015541852524876594,0.0740680931104347,0.10093063680119813
1761413467762697200,3.694697265625,0.07472644742131233,0.05357044480908662,0.09353475439622998
1761413467772710400,3.70471044921875,0.05904372512102127,0.0021748963536694643,0.03323094621151686
1761413467782724400,3.714724365234375,0.01958674400150776,-0.001303629944473505,-0.013616364355012773
1761413467792737300,3.7247373046875,-0.0030599720925092696,-0.03358374170456081,-0.06015760464705527
1761413467802751200,3.734751220703125,-0.004354103556275368,-0.06006996289622038,-0.09004844665043056
1761413467812764200,3.74476416015625,0.046260231393575664,-0.03213405435290188,-0.1168288284830749
1761413467822777300,3.75477734375,0.15196107827126978,-0.02145560661330819,-0.07675736872702836
1761413467832790300,3.764790283203125,0.22846038058400153,-0.02697944806870073,-0.04550700187347829
1761413467842804200,3.77480419921875,0.3264046219855547,-0.0538518555663526,-0.018133841779455543
1761413467852817400,3.7848173828125,0.3485778753489256,-0.0886310906657949,0.007965937377884983
1761413467862830000,3.794830078125,0.3291442760825157,-0.09842972336355596,-0.007705459810793399
1761413467872844300,3.80484423828125,0.247148714441061,-0.07556311744116247,-0.03315400851778686
1761413467882857200,3.814857177734375,0.1713093373417854,-0.058637445875070984,0.0071804130233824245
1761413467892870100,3.8248701171875,0.07580255222022533,-0.029742008117213843,0.027833690277859566
1761413467902884400,3.83488427734375,0.017690554991364477,-0.03813687496427447,0.03957140127941966
1761413467912897300,3.844897216796875,0.04511749109923839,-0.023645079481601713,0.045221609060838816
1761413467922910200,3.85491015625,0.08752981489300728,-0.01635280358158052,0.05534742788635194
1761413467932924200,3.864924072265625,0.09900924028456211,-0.04698533079773187,0.07599778253138065
1761413467942937300,3.874937255859375,0.118746790933609,-0.06107607119884342,0.08959661122970282
1761413467952950300,3.8849501953125,0.11681026991307734,-0.07393317815177142,0.08439370882436632
1761413467962964200,3.894964111328125,0.16974281867742538,-0.08770579251442104,0.1043714249048382
1761413467972977200,3.90497705078125,0.2584270643025636,-0.10073116870634258,0.13814451516903936
1761413467982990300,3.914990234375,0.3050648968368769,-0.10162676583919673,0.19214732351340352
1761413467993004300,3.92500439453125,0.27277123147547244,-0.10694240790400654,0.22392164117582142
1761413468003017200,3.935017333984375,0.183788879686594,-0.08573661133330315,0.21125052178166806
1761413468013030400,3.945030517578125,0.05513794985413551,-0.07102989445831626,0.19205511518530546
1761413468023044400,3.95504443359375,-0.07184826163649559,-0.058741052380017936,0.16102642825841904
1761413468033057300,3.965057373046875,-0.17010288416147232,-0.05648362884204834,0.12332739672213792
1761413468043070200,3.9750703125,-0.22420739931464195,-0.030739056330546737,0.020856837002560497
1761413468053084400,3.98508447265625,-0.14155834220051763,-0.053358884417638176,-0.04489325388930738
1761413468063097300,3.995097412109375,-0.03500935406088829,-0.11898399722296744,-0.10115648144632577
1761413468073110300,4.0051103515625,0.03295885127186775,-0.12567925707791,-0.1270193100426346
1761413468083124200,4.015124267578125,0.08197977955043316,-0.1261766486734152,-0.14333675004988908
1761413468093137200,4.02513720703125,0.10645897176861763,-0.16216887629181145,-0.14919702038541435
1761413468103150300,4.035150390625,0.08529343414306641,-0.17927359421923755,-0.11994133448041974
1761413468113164300,4.045164306640625,0.0454699577987194,-0.13584449459835887,-0.09712466864697634
1761413468123177200,4.05517724609375,-0.008069324687123298,-0.10974566528908908,-0.09019603842757641
1761413468133190100,4.065190185546875,-0.07538052741587162,-0.10543441449385135,-0.08854067243598401
1761413468143204000,4.0752041015625,-0.09414835624992847,-0.0834639536935836,-0.10523600584492086
1761413468153217300,4.08521728515625,-0.08359189092218876,-0.08552318777833133,-0.12084376321285963
1761413468163230200,4.095230224609375,-0.06663549542427062,-0.0896929112110287,-0.12128354286961257
1761413468173243400,4.105243408203125,-0.03868541222512722,-0.08027845552526414,-0.1135080865625292
1761413468183257300,4.11525732421875,-0.007928454911708831,-0.06346212608516216,-0.1052510572835803
1761413468193270300,4.125270263671875,-0.00852583628296852,-0.0654890288028866,-0.0569106586150825
1761413468203283200,4.135283203125,0.010579846203327178,-0.06926496714502572,-0.05056633108966052
1761413468213297400,4.14529736328125,0.002235211706161499,-0.03777659028451889,0.002249970883876085
1761413468223310300,4.155310302734375,-0.055989598247408866,-0.014337335573323071,0.01870988810174167
1761413468233323300,4.1653232421875,-0.06479191338419914,0.024358744176290928,0.037784371732175345
1761413468243337200,4.175337158203125,-0.09540332474708557,0.04510243966057896,0.0805361566133797
1761413468253350100,4.18535009765625,-0.10835223816931247,0.0731350865766406,0.10731595392413437
1761413468263363300,4.19536328125,-0.0824094031393528,0.08999448797348886,0.11482830231562256
1761413468273377300,4.205377197265625,-0.06093816056549549,0.08153992682844399,0.13749854541569947
1761413468283390200,4.21539013671875,-0.008446925827860831,0.06942483388185501,0.12022796940207481
1761413468293403100,4.225403076171875,0.03326923239529132,0.06501355677824468,0.1356814129911363
1761413468303417000,4.2354169921875,0.05170855992734432,0.0252084928734228,0.12554185790121555
1761413468313430300,4.24543017578125,0.03569266014993191,-0.04856131141018122,0.07978029674477875
1761413468323443200,4.255443115234375,0.10269289723336696,-0.07171725566796958,0.06386829573325813
1761413468333457200,4.26545703125,0.09817162041664124,-0.08915547986607998,0.04197919307351112
1761413468343470300,4.27547021484375,0.09383154538571833,-0.07220686581581831,0.03863280525505543
1761413468353483300,4.285483154296875,0.05382160655856132,-0.11463234135210514,0.019058920735120773
1761413468363497200,4.295497314453125,0.012555530190467833,-0.12130959062632173,-0.003143631787970662
1761413468373510400,4.305510498046875,-0.026056232276558875,-0.13311967274434863,-0.00034822891578078266
1761413468383523300,4.3155234375,-0.04331248750388622,-0.1316518652141094,0.018758476483821868
1761413468393537300,4.325537353515625,-0.01578033745586872,-0.13339443456511943,0.014217325922846793
1761413468403550200,4.33555029296875,0.021606851652264593,-0.12985840592607856,0.060350935262069104
1761413468413563100,4.345563232421875,0.0025046762973070145,-0.09513722115680574,0.08157404829375445
1761413468423577300,4.355577392578125,-0.0201730194568634,-0.06885956468190997,0.07233341480493545
1761413468433590300,4.36559033203125,-0.051827802392840384,-0.05394899579789489,0.06051416299976408
1761413468443603200,4.375603271484375,-0.043936172360181804,-0.08193546548467129,0.07358253808319568
1761413468453616400,4.385616455078125,-0.029650457376241682,-0.0984130644896999,0.05867788748331368
1761413468463630000,4.395630126953125,-0.008563245683908462,-0.1351318528169766,0.03880019771121442
1761413468473643300,4.405643310546875,-0.025780922466516493,-0.12352865491528063,0.017458572866395114
1761413468483656200,4.41565625,-0.027857728740572928,-0.0988572645932436,0.017617562820389867
1761413468493670100,4.425670166015625,-0.06251344705820083,-0.046760655196383595,0.03339687736295163
1761413468503683300,4.435683349609375,-0.0850625479966402,0.012186185421422123,0.08572196175344288
1761413468513696300,4.4456962890625,-0.048943771389126776,0.07074428244996815,0.14499277362860738
1761413468523710200,4.455710205078125,0.005061375042796135,0.11179258788153529,0.21474267474636435
1761413468533723400,4.465723388671875,0.09695464584231377,0.11652812850344925,0.23573855489343404
1761413468543736300,4.475736328125,0.13799042058587074,0.09026994391400367,0.23310725654177367
1761413468553750300,4.485750244140625,0.08813245696127414,0.06980736692603677,0.17882687336504458
1761413468563763500,4.495763427734375,-0.00017944822013378142,0.06488773844148964,0.10039660298973321
1761413468573776100,4.505776123046875,-0.07531272287666797,0.05699377032127231,0.04658778284750879
1761413468583790300,4.515790283203125,-0.1495429112136364,0.06539020807091146,-0.0037272038295865055
1761413468593803500,4.525803466796875,-0.15750000769793987,0.06158434951454401,-0.03201923233419657
1761413468603816200,4.535816162109375,-0.1316214700758457,0.10511121042147278,-0.014604790870472789
1761413468613830400,4.545830322265625,-0.04797638766169548,0.17933562660478056,-0.00910721636749804
1761413468623843000,4.555843017578125,0.01697100854516029,0.18375486781913786,-0.00022394494898617267
1761413468633856300,4.565856201171875,0.06991524774730205,0.15023443714175372,0.020518837219849227
1761413468643870500,4.575870361328125,0.11997720951139926,0.11364263619501143,-0.02966806609816849
1761413468653883100,4.585883056640625,0.16220657795369625,0.07757369007859378,-0.07833039019741117
1761413468663896300,4.595896240234375,0.19162147300839422,0.030268114350549876,-0.10121551815718412
1761413468673909500,4.605909423828125,0.22675240762233734,-0.004882620942406356,-0.12063881522528827
1761413468683923200,4.615923095703125,0.23475042063891885,-0.03975651205535978,-0.14496683546975253
1761413468693936400,4.625936279296875,0.22354981218874453,-0.03697068072911352,-0.149487673895061
1761413468703949300,4.63594921875,0.16639818442463875,-0.02787873499598354,-0.15111534816212951
1761413468713963300,4.64596337890625,0.0918985314965248,-0.04562087404411286,-0.15574220424517987
1761413468723976400,4.6559765625,0.043106735798716544,-0.037335093594715,-0.17337876402698457
1761413468733989000,4.665989013671875,0.02996960632801056,-0.030141930687613783,-0.15324761095046996
1761413468744003300,4.67600341796875,0.04613981988430023,-0.046549314000643785,-0.11850194932706654
1761413468754016500,4.6860166015625,0.04443009335696697,-0.028752558688446877,-0.07694302749224007
1761413468764029200,4.696029296875,0.041620296633243556,-0.023880422607436776,-0.031458237450569866
1761413468774043400,4.70604345703125,0.014656886383891106,-0.033368856844864785,-0.019165742110460994
1761413468784056300,4.716056396484375,0.001575286492705345,-0.036523704146593804,0.004960325821116566
1761413468794069200,4.7260693359375,-0.03307166399657726,-0.043030455692112446,0.019438786898180842
1761413468804083500,4.73608349609375,-0.06022796646952629,-0.0116803913237527,0.007376885443553328
1761413468814096100,4.74609619140625,-0.04112637563645839,0.028607597259804603,0.02117320947535336
1761413468824109300,4.756109375,-0.02234685636460781,0.03580178308021277,0.060680605607852336
1761413468834123300,4.766123291015625,-0.0175327340811491,0.0531179883338511,0.07017492159679532
1761413468844136200,4.77613623046875,-0.005438976183533668,0.05276522937342524,0.06916567148901522
1761413468854149400,4.7861494140625,-0.01014145478606224,0.0570787451909855,0.05089958163201808
1761413468864163300,4.796163330078125,0.014941548544168471,0.06534169275406748,0.021959318351745603
1761413468874176300,4.80617626953125,0.03523731759786606,0.052990416431427,0.030262524859979746
1761413468884189400,4.816189453125,0.031032851645350454,0.0896727086732164,0.03973068349435925
1761413468894202000,4.8262021484375,0.06145896956920623,0.08858958961162716,0.06398593076355755
1761413468904216300,4.83621630859375,0.05764204162955284,0.08947839167751372,0.053163873302191494
1761413468914229500,4.8462294921875,0.08227145597338675,0.10138459111377596,0.010864216102659701
1761413468924242200,4.8562421875,0.11081307532489298,0.10113416001666337,-0.006829699889570474
1761413468934256400,4.86625634765625,0.14145195921659467,0.0854196908712387,-0.005796192123368382
1761413468944269300,4.876269287109375,0.14709668710529802,0.04859181614629924,0.00847702870517969
1761413468954282200,4.8862822265625,0.1325719026684761,0.04339768156930804,-0.001253287996724248
1761413468964296400,4.89629638671875,0.10343991620838641,0.04537285409979522,-0.006671586718410253
1761413468974309000,4.90630908203125,0.06220481950044632,0.05035009452309459,-0.010112374822050333
1761413468984322300,4.916322265625,0.03741992233395576,0.056450749485753474,-0.0008397387597709893
1761413468994336300,4.926336181640625,0.04281798198521137,0.051162470351904625,0.00022664836272597312
1761413469004349200,4.93634912109375,-0.005525485423207283,0.04818637715056538,0.0032219577211886645
1761413469014362400,4.9463623046875,-0.05405307722687721,0.04266308368444442,-0.011862214164063333
1761413469024376300,4.956376220703125,-0.08239829722344875,0.0424786304956302,-0.05759155355133116
1761413469034389200,4.96638916015625,-0.10971242060661315,0.012622238751128315,-0.08648607799373567
1761413469044402400,4.97640234375,-0.08703706294000148,-0.011044577638246119,-0.08327982929833233
1761413469054416400,4.98641650390625,-0.0490647674202919,-0.017485789666883647,-0.06421462495289743
1761413469064429300,4.99642919921875,-0.015227964270114898,-0.03953085007332265,-0.0595171878516674
1761413469074442500,5.0064423828125,0.02447393152117729,-0.06485259406287222,-0.03270860283784568
1761413469084456200,5.016456298828125,0.06776303814947605,-0.07281403792873024,-0.011781184817105531
1761413469094469400,5.026469482421875,0.08502923024892807,-0.07500953867901117,0.010676949902251362
1761413469104482300,5.036482421875,0.06081015027165412,-0.07484539762586355,0.024259704248607156
1761413469114495200,5.0464951171875,0.03807341780662536,-0.06483111288342625,0.030073212832957504
1761413469124509400,5.056509521484375,0.039105098941922184,-0.05389817892611026,0.01068564466536045
1761413469134522000,5.066522216796875,0.04314239163398743,-0.06552355212699622,0.02613214705698192
1761413469144535300,5.076535400390625,0.03701777127385139,-0.04815221915263682,0.02586509361863136
1761413469154549200,5.08654931640625,0.04273088822364807,-0.0230914276542142,0.03568608427867293
1761413469164562200,5.096562255859375,0.07324643799662589,-0.010501849063672125,0.04922017717771232
1761413469174575400,5.106575439453125,0.07016074694097042,0.011222528021037579,0.08275580542422831
1761413469184589300,5.11658935546875,0.021786299872398374,0.047815899870358405,0.08118928675986826
1761413469194602200,5.126602294921875,-0.02679448342323303,0.0499032275384292,0.08335742457918822
1761413469204615400,5.136615478515625,-0.060600306913256644,0.033404110821336506,0.07026420731544494
1761413469214629400,5.14662939453125,-0.01744330223202705,0.02065426363516599,0.05370521363727748
1761413469224642300,5.156642333984375,0.030858079600334164,0.007667904279381036,0.04178330517522991
1761413469234655500,5.166655517578125,0.07460252878069877,-0.003202851161919534,0.055216714178770776
1761413469244669200,5.176669189453125,0.14537059396505356,-0.017073628669418393,0.059438496592268346
1761413469254682400,5.186682373046875,0.1442570797652006,-0.02814838225021958,0.030590587770566342
1761413469264695300,5.1966953125,0.1295966862499714,-0.0510940812908113,0.018952683881670235
1761413469274709200,5.206709228515625,0.13816928428411482,-0.064890295724757,0.025356048117950558
1761413469284722400,5.216722412109375,0.11890461184382438,-0.07556688030082732,-0.016565788745135066
1761413469294735000,5.226735107421875,0.07612345473766327,-0.062418900642544024,-0.012141615627333522
1761413469304748300,5.236748291015625,0.040374680486321445,-0.0019881416099146007,-0.012646204148605466
1761413469314762200,5.24676220703125,0.0011707973450422286,0.025629129438288507,-0.00018938509225845335
1761413469324775200,5.256775146484375,-0.003941431102156639,0.05106354002207517,0.012181874572485684
1761413469334788400,5.266788330078125,0.01588672043979168,0.039217144481651485,-0.01119067157804966
1761413469344802300,5.27680224609375,0.00019523031115531922,0.03944803062807768,-0.021360256480053064
1761413469354815200,5.286815185546875,-0.0638309593975544,0.03183266025353223,-0.032289135316759345
1761413469364828400,5.296828369140625,-0.08310790679752826,0.0356399801146239,-0.07147197567000985
1761413469374842400,5.30684228515625,-0.07159808626770973,0.02386467704903334,-0.047119332440942525
1761413469384855300,5.316855224609375,-0.03194529031515121,0.027066432232409714,-0.04791757014654577
1761413469394868500,5.326868408203125,0.0023491934746503827,0.025479857160709798,-0.04065137853585184
1761413469404882200,5.336882080078125,0.05416355186402797,0.008150025240518152,-0.0401968397013843
1761413469414895400,5.346895263671875,0.09117781600654125,-0.023318295212648808,-0.061191843065619464
1761413469424908300,5.356908203125,0.12534545854628085,-0.049491797193326054,-0.07304170920476317
1761413469434922200,5.366922119140625,0.12414601962864398,-0.05851012970097363,-0.11222118855714798
1761413469444935400,5.376935302734375,0.13385901986956594,-0.07229432490356266,-0.11882000230029224
1761413469454948400,5.3869482421875,0.13790566491186618,-0.045505430970899756,-0.1211116203688085
1761413469464961300,5.396961181640625,0.17582886059284208,-0.041214455778710544,-0.14634060804098845
1761413469474975200,5.406975341796875,0.2247615260660648,-0.026293402033299208,-0.13027626601196823
1761413469484988200,5.41698828125,0.24359306778609752,-0.05237831241507083,-0.121001584123075
1761413469495001300,5.42700146484375,0.22182781070172786,-0.05385298807751387,-0.14683467516824603
1761413469505015300,5.437015380859375,0.183984694519639,-0.05827862250003964,-0.11896065287999807
1761413469515028200,5.4470283203125,0.1575596289306879,-0.04427245510984212,-0.09466215099096298
1761413469525041400,5.45704150390625,0.11812953581809997,-0.022740056933276354,-0.027007176325842736
1761413469535055400,5.467055419921875,0.09769874220788478,-0.0028751170448958873,0.029532822345942258
1761413469545067500,5.477067626953125,0.09667758246660232,-0.011742642905004323,0.03516439849212766
1761413469555080400,5.48708056640625,0.06613748277425766,-0.024548019670695066,0.0338753085296601
1761413469565094400,5.497094482421875,0.05529635528624057,-0.06656878686361015,0.0520878415685147
1761413469575107600,5.507107666015625,0.04362988288998604,-0.08335636513326317,0.03408383671380579
1761413469585120500,5.51712060546875,0.030848142728209495,-0.08077277838084847,0.02436930210292339
1761413469595134500,5.527134521484375,-0.010821253743767738,-0.06071721129119396,0.041048561159893866
1761413469605147600,5.537147705078125,-0.04451777164041996,-0.033825478038564324,0.040343262434750796
1761413469615160600,5.54716064453125,-0.08429448623359202,-0.007589066889509558,0.049872138280421495
1761413469625174500,5.557174560546875,-0.11907003153860568,-0.004777589665353298,0.051542701841145754
1761413469635187700,5.567187744140625,-0.12613748570680616,-0.004058773871511221,0.06813786281123757
1761413469645200400,5.577200439453125,-0.12678338239490985,-0.017561887110397217,0.07423267255499959
1761413469655213600,5.587213623046875,-0.10292553694546222,-0.01872351476829499,0.07619571625627578
1761413469665227500,5.5972275390625,-0.06581073503792285,-0.04359093911908567,0.08871288719773292
1761413469675240400,5.607240478515625,-0.05432955608069896,-0.04905979898422956,0.10532383025884627
1761413469685253600,5.617253662109375,-0.014800678768754004,-0.050416328159719706,0.1119946132596582
1761413469695267300,5.627267333984375,0.01745265458226204,-0.06599997399970889,0.10228205141015351
1761413469705280500,5.637280517578125,0.05558686266541481,-0.09252839036528021,0.11172054555863141
1761413469715293400,5.64729345703125,0.07954758396744728,-0.13194346857182682,0.09060461922846734
1761413469725307400,5.657307373046875,0.04660626835227012,-0.14969660393800585,0.060266764109954234
1761413469735320600,5.667320556640625,0.028950784674286842,-0.13714549419432878,0.03767923085726797
1761413469745333500,5.67733349609375,0.01826864714026451,-0.14886420823447405,0.023326222790777684
1761413469755347500,5.687347412109375,0.016810849547386167,-0.1414472465088591,0.0181754158988595
1761413469765360600,5.697360595703125,0.021091887867450712,-0.11223916260525583,0.025379721254482863
1761413469775373600,5.70737353515625,0.0349392114341259,-0.09218768716882914,0.03977569167986512
1761413469785387500,5.717387451171875,0.01999181767106056,-0.079544369097054,0.0689772362448275
1761413469795400700,5.727400634765625,-0.022273791128396985,-0.0687652009293437,0.08957607989832758
1761413469805413400,5.737413330078125,-0.05250058708786964,-0.056307980014197526,0.08596117733679712
1761413469815426600,5.747426513671875,-0.07770283288359642,-0.04032718808278441,0.09784253459274768
1761413469825440500,5.7574404296875,-0.11282149253785609,-0.025934980517067014,0.0641415597166866
1761413469835453400,5.767453369140625,-0.1584130308896303,-0.027406477841734885,0.0358215472266078
1761413469845466600,5.777466552734375,-0.14902268673181532,-0.019554997156374154,0.01991100751981139
1761413469855480300,5.787480224609375,-0.13756547317206858,-0.0366411565138027,0.02351173542551696
1761413469865493500,5.797493408203125,-0.10439853210747241,-0.04590261359494179,0.017732932828366757
1761413469875506400,5.80750634765625,-0.03578618365228176,-0.02116937355045229,0.018737068369612097
1761413469885520400,5.817520263671875,-0.01779810701906681,-0.031951646990701556,0.03846022516712546
1761413469895533600,5.827533447265625,0.01698036089539528,0.00033672114107757806,0.05978263385482132
1761413469905546500,5.83754638671875,0.024938041901588437,0.04397807527314871,0.06571436199136078
1761413469915560400,5.847560546875,0.03623509646356106,0.039468160100653765,0.07623517148382962
1761413469925573600,5.85757373046875,0.05038812497854232,0.06027834494989365,0.08204210419692098
1761413469935586600,5.867586669921875,0.06973579952716827,0.0774373503478244,0.05148512643501162
1761413469945599500,5.877599609375,0.09955109207630157,0.08219133994188159,0.04098287551254034
1761413469955613700,5.88761376953125,0.14240005372166634,0.06273764773551374,0.02137910731099546
1761413469965626400,5.89762646484375,0.2063712983727455,0.06191496970839798,0.0197733526147902
1761413469975639600,5.9076396484375,0.23026655322313308,0.04364055041447282,0.0002991290770471096
1761413469985653500,5.917653564453125,0.24700433753430842,0.04561287340074777,0.030478213437274096
1761413469995666400,5.92766650390625,0.25475334422588347,0.036456739857606585,0.019992986714839935
1761413470005679600,5.9376796875,0.2623421919196844,0.01582684347871691,0.04985138775333762
1761413470015693300,5.947693359375,0.2323737546354532,-0.016964030815102157,0.06501359331086277
1761413470025706500,5.95770654296875,0.20447861649394034,-0.01953315065074712,0.0494246137086302
1761413470035719700,5.9677197265625,0.18429682920873164,0.006124145436100662,0.05571165808886289
1761413470045733400,5.9777333984375,0.1387497145205736,-0.0022212197134271264,0.054273003587871786
1761413470055746600,5.98774658203125,0.08036474556922912,-0.009344020798057318,0.051046588887274265
1761413470065759500,5.997759521484375,-0.021674071669578552,0.003970072674751282,0.018872019860893485
1761413470075773400,6.0077734375,-0.08785597810745238,-0.007549684727191925,-0.01294314126856625
1761413470085786600,6.01778662109375,-0.12694938661158084,-0.02657035581115633,-0.0474276677377522
1761413470095799600,6.027799560546875,-0.1384668059259653,-0.02219502680376172,-0.07416004571020603
1761413470105812500,6.0378125,-0.12277239318788051,-0.020761450336687266,-0.05607347713857889
1761413470115826700,6.04782666015625,-0.10842238079607486,-0.045203927273675795,-0.0649847325425595
1761413470125839400,6.05783935546875,-0.1223456922084093,-0.044586197234131396,-0.10738953061699867
1761413470135852500,6.0678525390625,-0.1415788004666567,-0.02105305369440466,-0.11252550526596605
1761413470145866800,6.07786669921875,-0.13939678025245666,-0.0033606720721349116,-0.07936185213699937
1761413470155879400,6.08787939453125,-0.1427975286066532,0.02605531896110624,-0.05384199175946414
1761413470165892600,6.097892578125,-0.13656126456558704,0.03461363274157047,-0.04167239214666187
1761413470175906300,6.10790625,-0.10868190851509571,0.03932239495441317,-0.011176789183169602
1761413470185919500,6.11791943359375,-0.0592950695335865,0.027176212749816474,-0.008435454585775732
1761413470195932700,6.1279326171875,-0.02500409287512302,0.023864348255470395,0.010915142572298645
1761413470205946400,6.1379462890625,0.018302549409866333,0.011982333412393928,0.01724434559382498
1761413470215959600,6.14795947265625,0.05477496176064014,0.012783712923154235,0.04337459295466542
1761413470225972500,6.157972412109375,0.10546996073126792,-0.002435483518615365,0.04882573450002819
1761413470235985400,6.1679853515625,0.15790975754261016,-0.022128354775719342,0.07351126294527202
1761413470245999600,6.17799951171875,0.225520235478878,-0.05666377118192613,0.07725753680150955
1761413470256012500,6.188012451171875,0.26073183411359785,-0.06624492520410567,0.0814933477403596
1761413470266025500,6.198025390625,0.2783879023134708,-0.048597003778070205,0.06343713777437805
1761413470276039700,6.208039794921875,0.2374772152543068,-0.041685616954416034,0.04244896600972861
1761413470286052400,6.21805224609375,0.17599252672195434,-0.03781761641465127,0.042063218095153565
1761413470296065500,6.2280654296875,0.11264905858039856,-0.00799717276636511,0.03625730829536915
1761413470306079700,6.238079833984375,0.023961890345811844,0.025453042219020425,0.009930880775302648
1761413470316092400,6.248092529296875,-0.03902092778980732,0.03947236135173589,-0.023283698823302983
1761413470326105600,6.258105712890625,-0.11515958009660243,0.03464099567253143,-0.0549684385061264
1761413470336119300,6.268119384765625,-0.15784019943773744,0.04407229289524257,-0.08315481467917561
1761413470346132500,6.278132568359375,-0.15250877528190612,0.017148630134388804,-0.05761741864494979
1761413470356145700,6.288145751953125,-0.13050854039788246,-0.005122603710740805,-0.09313099590092896
1761413470366158600,6.29815869140625,-0.10354571467041969,-0.018039478026889263,-0.09687515086531638
1761413470376172500,6.308172607421875,-0.07720891188681125,-0.026320911094732582,-0.08690269597060978
1761413470386185500,6.318185546875,-0.003939677536487579,-0.036757074511051174,-0.08391812720187009
1761413470396198400,6.328198486328125,0.07062544184327126,-0.06646748191360384,-0.050763899488374585
1761413470406212600,6.338212646484375,0.1364928755044937,-0.0693248441061005,-0.03913403277546167
1761413470416225500,6.3482255859375,0.2152162836074829,-0.07627031586244702,-0.04125818532258272
1761413470426238500,6.358238525390625,0.20729659652411936,-0.09189699712656438,-0.06375416783429681
1761413470436252700,6.368252685546875,0.1302659638136625,-0.11246084253191947,-0.08367277413867413
1761413470446265300,6.378265380859375,0.07874561993479728,-0.08801160706058143,-0.10707754205837845
1761413470456278500,6.388278564453125,0.026850013002753255,-0.07761204932760447,-0.08922894696108996
1761413470466292700,6.398292724609375,0.04432546393871307,-0.10399280085079371,-0.03624269524812698
1761413470476305400,6.408305419921875,0.07809738515913486,-0.06402081941384821,0.030762071879953144
1761413470486318600,6.418318603515625,0.09237550135850905,0.002215520625002682,0.0710584994982928
1761413470496331500,6.42833154296875,0.054767947497963904,-0.01858147594910115,0.009585136077553033
1761413470506345500,6.438345458984375,0.07881810064911841,-0.051416335515119135,0.03082717300541699
1761413470516358700,6.448358642578125,0.08698679405748844,-0.0734455772979185,0.04737856789901852
1761413470526371600,6.45837158203125,0.05629588771760463,-0.047492184341326356,0.03675035250931978
1761413470536385500,6.468385498046875,0.03637187458574772,-0.023212569815851746,0.08116802477613091
1761413470546399500,6.4783994140625,0.012357961791753767,-0.006638853492587804,0.08386588555797934
1761413470556412700,6.48841259765625,-0.01367196699976921,-0.00167469174657017,0.10567717374116181
1761413470566427000,6.498427001953125,-0.045616672793030735,-0.004544109703041613,0.09365728479735552
1761413470576439600,6.508439453125,-0.06747253077030181,-0.004325133190117776,0.08441248659007251
1761413470586452700,6.51845263671875,-0.06978139223456382,-0.01478423909060657,0.07615509198494255
1761413470596466700,6.528466796875,-0.061493456360697744,-0.0363717649878934,0.06009761808812618
1761413470606479600,6.538479736328125,-0.06992869175076484,-0.054980421204864974,0.03997552510090172
1761413470616492800,6.548492919921875,-0.07276829909086227,-0.05897610324490815,0.016310133483633398
1761413470626505700,6.558505615234375,-0.07075169857144355,-0.06946520242486148,0.03934541050381958
1761413470636519700,6.568519775390625,-0.022741993162035942,-0.08050718624722213,0.0625989333845675
1761413470646532900,6.578532958984375,0.05192366398274898,-0.08018767196927219,0.07199899521879852
1761413470656545500,6.588545654296875,0.12085925304293632,-0.06724610160328448,0.10402772603370249
1761413470666559700,6.598559814453125,0.12477964135706424,-0.0775097214642912,0.09616196109466255
1761413470676572700,6.60857275390625,0.10647533838152885,-0.06442044972330331,0.05558204035982489
1761413470686585600,6.618585693359375,0.041000118908286094,-0.03722549574039876,0.04270085841156542
1761413470696599800,6.628599853515625,-0.009515431842207909,-0.03280647372175008,0.012142565475404262
1761413470706612500,6.638612548828125,-0.0363683674544096,-0.007674187889695167,-0.013672989913076162
1761413470716625700,6.648625732421875,-0.04400806855261326,-0.006039937751367688,-0.021309549206122755
1761413470726638800,6.658638916015625,-0.05728723684251308,-0.011886873681284486,-0.02226582701765001
1761413470736652500,6.668652587890625,-0.019233108258247374,-0.016315722974203525,-0.018290274450182914
1761413470746665700,6.678665771484375,0.026468320208787918,-0.045820817063003776,0.024097426358982918
1761413470756678700,6.6886787109375,0.08444529288113117,-0.0352403132725507,0.05378828881084919
1761413470766692600,6.698692626953125,0.13919570472240447,-0.04101319758556783,0.05239749203957617
1761413470776705800,6.708705810546875,0.15327566800117493,-0.05015533913597464,0.08288169682621956
1761413470786718700,6.71871875,0.16008768610358237,-0.03012085136696696,0.07317702602222562
1761413470796732700,6.728732666015625,0.19602467640340326,-0.02134454745426774,0.06966229589954018
1761413470806745900,6.738745849609375,0.2236509344756603,-0.027883374638482925,0.06392492129132152
1761413470816758500,6.748758544921875,0.19685878913998603,-0.016212518328055738,0.0685039196446538
1761413470826772700,6.758772705078125,0.15347732805311678,-0.008306713639572262,0.07583886564262211
1761413470836786000,6.768785888671875,0.07207797873914241,0.013623013291507958,0.042577816553786396
1761413470846798600,6.778798583984375,-0.09008417555093765,0.04411379394941032,0.057500952658429735
1761413470856811800,6.788811767578125,-0.16945815651714802,0.05938435525223613,0.08997567367516457
1761413470866825500,6.798825439453125,-0.20608897430002687,0.04069894400462508,0.13427622236832976
1761413470876838700,6.808838623046875,-0.163920980656147,0.05052344179600477,0.08703640535287559
1761413470886851800,6.818851806640625,-0.1261754796296358,0.02798573903441429,0.05298515573441982
1761413470896865500,6.828865478515625,-0.09608370822668075,-0.002042757873982191,0.00034121465310454365
1761413470906878700,6.838878662109375,-0.03367898223996162,-0.0234404237549752,-0.01778122894950211
1761413470916891600,6.8488916015625,-0.03310205913484096,-0.09589264263398944,-0.03154175101555884
1761413470926905600,6.858905517578125,-0.036575872725248336,-0.13343319567292927,-0.05927826452925801
1761413470936918800,6.868918701171875,0.08712357217967509,-0.08010857885107397,-0.06500811341814697
1761413470946931700,6.878931640625,0.2934247279256582,-0.08610168178603053,0.06456767617426812
1761413470956944600,6.888944580078125,0.24901626187860965,-0.04467866129055619,0.19608188648335634
1761413470966958800,6.898958740234375,0.20049626885950564,0.08054609348550439,0.1310524380162358
1761413470976971500,6.908971435546875,0.04692074112892151,0.11593947842791676,0.09008600218184291
1761413470986984700,6.918984619140625,-0.0230704944640398,0.07533624988272786,0.0735124685216695
1761413470996999000,6.9289990234375,-0.08207856374979018,0.04639803242906928,0.009088365536555648
1761413471007011600,6.939011474609375,-0.08623743699491024,0.038720045147091146,-0.05865406821630895
