time,seconds_elapsed,z,y,x
1761413473645808600,0.07380859375,0.15229133313894272,-0.03604903583955019,0.04892261900324374
1761413473655821800,0.08382177734375,0.13829144935905932,-0.06470836328659206,0.07373235835004598
1761413473665834800,0.093834716796875,0.1261708034545183,-0.08862451479453592,0.043806335435435176
1761413473675848700,0.1038486328125,0.09607961657345294,-0.10071703058313577,0.05712751623615622
1761413473685861600,0.113861572265625,0.03559095334112644,-0.08446571461465209,0.05087627382166683
1761413473695874800,0.123874755859375,-0.018103811967372894,-0.06072977851182222,0.06957549439892173
1761413473705888800,0.133888671875,-0.08104396000504493,-0.04436506529673934,0.04871558865644037
1761413473715901700,0.143901611328125,-0.18878771088719368,-0.01506656316332519,0.03533310612253845
1761413473725914600,0.15391455078125,-0.23728256946504114,0.036640316263586284,0.013802899903059005
1761413473735927600,0.163927490234375,-0.23774434175789355,0.05962634731456637,-0.0030120412975549694
1761413473745941800,0.173941650390625,-0.19201602528393266,0.039100057440623635,-0.026307284428179263
1761413473755954700,0.18395458984375,-0.13589724769890307,0.02056516057960689,0.00876717075817287
1761413473765967600,0.193967529296875,-0.08077683350145816,0.014968107757531105,0.020141236079111693
1761413473775981600,0.203981689453125,-0.04330371967554092,-0.009899535788968204,0.04431728063225746
1761413473785994800,0.213994873046875,0.027062194448709487,-0.013254837566241622,0.06272548237368464
1761413473796007700,0.224007568359375,0.11084522402882575,-0.017738595384173095,0.08836451215147971
1761413473806020900,0.234020751953125,0.15820143396556377,-0.03608144027180969,0.10082111201211809
1761413473816034800,0.244034912109375,0.19488778132796286,-0.04314991735331714,0.09023702802509069
1761413473826047700,0.2540478515625,0.19926234315037727,-0.039612208213843404,0.07994630096144974
1761413473836060700,0.264060791015625,0.14711656084954738,-0.035062143694050606,0.06661686378903686
1761413473846073600,0.274073486328125,0.08707681042850017,0.006351451385952532,0.04772928103283047
1761413473856087800,0.284087890625,0.0731634358882904,0.04443886118531227,0.03698635322228074
1761413473866100700,0.294100830078125,0.06136193893551826,0.042486558073759076,0.07996149853058158
1761413473876113700,0.30411376953125,0.03808101659119129,0.06243336755931377,0.08752075480371713
1761413473886127600,0.314127685546875,0.03995207116007805,0.06311893867067993,0.09467880986481904
1761413473896140500,0.324140625,0.06965981168150902,0.015508242516219616,0.06790865716524422
1761413473906153700,0.33415380859375,0.11164718806147575,0.0014993717122823,0.05076017316132784
1761413473916166700,0.344166748046875,0.13988544055223465,-0.010127499325945973,0.04333754887990653
1761413473926180600,0.3541806640625,0.1588748031824827,-0.018582864188589156,0.011769348248839377
1761413473936193800,0.36419384765625,0.11938041266202926,-0.027623006669245657,0.006703150900453329
1761413473946206700,0.374206787109375,0.06435176840126514,-0.016443294876627622,-0.010651523200049995
1761413473956220700,0.384220703125,0.0058937342137098305,-0.030174590848200022,-0.05087101312465966
1761413473966233900,0.39423388671875,-0.06753507461249827,-0.0238407481841743,-0.10563340766467154
1761413473976246500,0.40424658203125,-0.10898410633206367,-0.02046071382444352,-0.12110716338939964
1761413473986259700,0.414259765625,-0.10847791037559508,-0.024071195939183235,-0.11298077475279569
1761413473996273700,0.424273681640625,-0.08653729672431945,-0.03644154228847474,-0.062123059501126406
1761413474006286600,0.43428662109375,-0.045883799296617504,-0.07177972644492983,-0.0680793375570327
1761413474016299800,0.4442998046875,-0.011115852776169777,-0.10439681507442146,-0.07345489311553538
1761413474026313700,0.454313720703125,0.0047393034815788266,-0.11529595635998993,-0.0769061295479536
1761413474036326700,0.46432666015625,0.028452772024273872,-0.12326733709797262,-0.0955284124314785
1761413474046339800,0.47433984375,0.06544307076931,-0.13881061439495532,-0.07070851701684296
1761413474056352500,0.4843525390625,0.029689620342850682,-0.1270535776384175,-0.08520568279437721
1761413474066366700,0.49436669921875,-0.02674655262827873,-0.11613167653176933,-0.07699439235329628
1761413474076380000,0.5043798828125,-0.1029611927807331,-0.0846399386703968,-0.09746062260307371
1761413474086392600,0.514392578125,-0.14329729482233525,-0.10109298775605857,-0.10459573518000542
1761413474096406800,0.52440673828125,-0.180168935623765,-0.07165558860860764,-0.07308993226066231
1761413474106419700,0.534419677734375,-0.16072364591956137,-0.04802124971672892,-0.040602570958063
1761413474116432600,0.5444326171875,-0.10333762487769126,-0.038810134583339095,-0.0171357706528157
1761413474126445800,0.55444580078125,-0.014034370571374893,-0.029091289123520252,0.01874021017476916
1761413474136459500,0.56445947265625,0.037327567875385284,-0.011640680367872119,0.023246362487599252
1761413474146472700,0.57447265625,0.07642389898896217,-0.02053841870315373,0.04262150956504047
1761413474156486000,0.58448583984375,0.0858645120292902,-0.03569945521689951,0.04738426698744297
1761413474166499600,0.59449951171875,0.10124562103450298,-0.014219006423279642,0.03618928456045687
1761413474176512800,0.6045126953125,0.11885785009264946,-0.0033588819738477466,0.04700849247761071
1761413474186525700,0.614525634765625,0.11020926421284676,0.018756722918152807,0.06401508379280567
1761413474196538600,0.62453857421875,0.09146423173248767,0.07489756620451808,0.06305091493576764
1761413474206552800,0.634552734375,0.06471475649476051,0.11210910648480057,0.09023476300276816
1761413474216565500,0.6445654296875,0.06342179407477379,0.09507920735925436,0.10209902299344539
1761413474226578700,0.65457861328125,0.07248188336491584,0.09912088396549225,0.11761895594745873
1761413474236593000,0.664593017578125,0.0819908854663372,0.07856332217045128,0.13736337472870946
1761413474246605600,0.67460546875,0.12406477108597755,0.05083053498379886,0.1508764248397201
1761413474256618800,0.68461865234375,0.19008242687284946,0.022557065049186347,0.15097718180045486
1761413474266631700,0.694631591796875,0.19854747287929056,-0.019217106971517205,0.15373269105367363
1761413474276645600,0.704645751953125,0.20291092878580091,-0.036207770065218206,0.12862864493541418
1761413474286658800,0.714658935546875,0.20630407835543155,-0.04621536933854222,0.1033466849669814
1761413474296671700,0.724671630859375,0.1748702446937561,-0.04436703805811703,0.09783281691633164
1761413474306684700,0.7346845703125,0.18236615340709686,-0.03476487778052687,0.08330942071899772
1761413474316699000,0.744698974609375,0.1801116524785757,-0.04726984682753682,0.08571450909934937
1761413474326711600,0.754711669921875,0.1785515635550022,-0.05031337924189865,0.09214848766960203
1761413474336724700,0.764724853515625,0.12917583048939704,-0.06605718407966196,0.07848075845353304
1761413474346738700,0.77473876953125,0.037707507103681565,-0.0651312283411622,0.05250687069818377
1761413474356751600,0.784751708984375,-0.0689069474875927,-0.05019742471203208,0.008803338050097226
1761413474366764800,0.794764892578125,-0.16999533213376997,-0.045419615850970145,-0.032946503246948124
1761413474376777700,0.80477783203125,-0.2573544666349888,-0.023412439769506452,-0.05902385137677192
1761413474386791700,0.814791748046875,-0.24991876367628574,-0.020773250372335312,-0.06237001999951899
1761413474396804900,0.824804931640625,-0.23149930988848208,-0.03169986418671906,-0.07944602328911424
1761413474406817800,0.83481787109375,-0.19071078790426252,-0.05538147628642618,-0.07146138121075928
1761413474416831700,0.844831787109375,-0.14592472071647644,-0.043263022338971495,-0.0966153308853507
1761413474426844700,0.8548447265625,-0.09474106144607067,-0.04371018158458173,-0.07564955361559987
1761413474436857600,0.864857666015625,-0.035495676273107526,-0.03985898604914546,-0.06504808010235429
1761413474446870800,0.874870849609375,-0.0269745161652565,-0.040823447167128324,-0.06424735817871988
1761413474456884700,0.884884765625,0.027382512444257736,-0.043274274385347956,-0.04500840470157563
1761413474466897700,0.894897705078125,0.09439151735603808,-0.026490312844887374,-0.04336677497439086
1761413474476910600,0.90491064453125,0.13337678931057453,-0.004733019871264696,-0.034300548204407096
1761413474486924500,0.914924560546875,0.15418810667097568,-0.01688625287115574,-0.0003900952961295843
1761413474496937700,0.924937744140625,0.17670038273036479,0.011639730519801378,0.007656798363476991
1761413474506950700,0.93495068359375,0.1586748966962099,0.044931174746900795,0.04457381267659366
1761413474516963800,0.9449638671875,0.1265939973026514,0.06811112093478441,0.05897723575606942
1761413474526977800,0.954977783203125,0.09596212767362594,0.08963789308816195,0.1024568234551698
1761413474536990700,0.96499072265625,0.0859685569256544,0.08394896073155104,0.11389679361917078
1761413474547003400,0.97500341796875,0.10130874939858912,0.0775022688101977,0.12114084646329283
1761413474557016300,0.985016357421875,0.12814298031032084,0.055451911174133416,0.13736951220855115
1761413474567030500,0.995030517578125,0.16483868002295493,-0.0007147972058504819,0.11851079022064805
1761413474577043500,1.00504345703125,0.1542056423276663,-0.04899396720640361,0.129787167320773
1761413474587056400,1.015056396484375,0.11592997994720936,-0.07324789930135012,0.11780578375644982
1761413474597070300,1.0250703125,0.07765022591352462,-0.0678376377556473,0.12484437715634703
1761413474607083500,1.03508349609375,0.0955763432264328,-0.06074746029898524,0.1301605306778103
1761413474617096400,1.045096435546875,0.10264847356975078,-0.035119463371858,0.18034224636405705
1761413474627109600,1.055109619140625,0.061948214390873904,-0.013446049289405345,0.1871473963342607
1761413474637123300,1.065123291015625,-0.0004512508988380432,0.020250687802955507,0.16245222327783704
1761413474647136500,1.075136474609375,-0.025782676032185554,0.040149785689264535,0.17443674864731729
1761413474657149400,1.0851494140625,-0.03621697628498077,0.02987147971577942,0.15753098735809326
1761413474667162400,1.095162353515625,-0.05043780933916568,0.023180896035954354,0.1339436294130981
1761413474677176600,1.105176513671875,-0.05703413886427879,0.03549918340444565,0.14244842290803789
1761413474687189200,1.115189208984375,-0.030555881783366202,0.024937676575407384,0.1378478703100234
1761413474697202400,1.125202392578125,-0.016184826603531835,-0.003624254911765456,0.11111987625174223
1761413474707216400,1.13521630859375,-0.0026958149552345273,-0.011471534346044063,0.0649523646429181
1761413474717229300,1.145229248046875,0.0037362639188766476,-0.03441482223384082,0.004428630097210407
1761413474727242500,1.155242431640625,0.005499181938171387,-0.04128799593895673,-0.029850363862514495
1761413474737255400,1.16525537109375,0.026725509840250013,-0.0695429073035717,-0.06339402928501367
1761413474747269400,1.175269287109375,0.08105214331150054,-0.07769369972907006,-0.0805104376502335
1761413474757282600,1.185282470703125,0.15412965448200702,-0.09857515971623361,-0.06275332022868096
1761413474767295500,1.19529541015625,0.1866559595555067,-0.12132818572893737,-0.07825199119895695
1761413474777309400,1.205309326171875,0.1796621551454067,-0.10996149999685585,-0.09874131006337701
1761413474787322600,1.215322509765625,0.13209843993782996,-0.11054602188654243,-0.10357523302584885
1761413474797335300,1.225335205078125,0.10338263306319713,-0.10354410723522305,-0.1195076192382723
1761413474807348500,1.235348388671875,0.0604845715790987,-0.10083309471085666,-0.14017996651940046
1761413474817362400,1.245362548828125,0.020151976668834684,-0.09735277831442654,-0.13621566599830984
1761413474827375400,1.255375244140625,-0.026457214292883873,-0.07438968974761664,-0.14499467332474886
1761413474837388500,1.265388427734375,-0.042053427353501316,-0.09370258524380624,-0.12597323505580424
1761413474847401500,1.2754013671875,-0.05796002153754234,-0.06975450422763824,-0.12028591013439
1761413474857415400,1.28541552734375,-0.050100540208816526,-0.023229703613743186,-0.10718640926033257
1761413474867428600,1.2954287109375,-0.024449381601810455,-0.038577933262661096,-0.03542794479914009
1761413474877441300,1.305441162109375,0.0534130257576704,-0.053223567600175735,0.018001082245260477
1761413474887455500,1.31545556640625,0.1158230124413967,-0.05020999193266034,0.05612601104341447
1761413474897468400,1.325468505859375,0.12029109776616095,-0.06511661529392003,0.08449052026234567
1761413474907481300,1.3354814453125,0.11784545817971229,-0.05397599340267479,0.08392170739844441
1761413474917494500,1.34549462890625,0.07108253796100616,0.007494958865270018,0.08140577905476093
1761413474927508500,1.355508544921875,0.021896189987659454,0.020837109388783574,0.10753595335036516
1761413474937521400,1.365521484375,-0.010110475125908852,0.058248702285811305,0.10897022393718361
1761413474947534300,1.375534423828125,0.009333061012625694,0.06894632964991032,0.11413842035531997
1761413474957547500,1.385547607421875,0.03804010005891323,0.04011676020249724,0.13748488221652805
1761413474967561500,1.3955615234375,0.08004851922690868,0.02000255826078355,0.1582840707477182
1761413474977574400,1.405574462890625,0.10560966146290302,-0.026925854717940092,0.16303206899240613
1761413474987587300,1.41558740234375,0.10413023656010627,-0.022803806351870296,0.13283829851970075
1761413474997601500,1.4256015625,0.08119067499935627,-0.03753858027756214,0.12292093481309711
1761413475007614500,1.435614501953125,0.048395489856600755,-0.047743382623419164,0.11057773219905793
1761413475017627400,1.44562744140625,0.006882745251059532,-0.044206440668925644,0.10898132985308766
1761413475027640300,1.455640380859375,-0.049829906573891636,-0.02453713295049965,0.11416976534165442
1761413475037654300,1.465654296875,-0.06820727478563784,-0.003943403863534331,0.12106610072664915
1761413475047667500,1.47566748046875,-0.09744038353264331,0.04202456658519804,0.12441928361207245
1761413475057680400,1.485680419921875,-0.10081249031424522,0.05056691561155021,0.1362822284284979
1761413475067694300,1.4956943359375,-0.09728256262242793,0.06646086950972675,0.11854469249024986
1761413475077707500,1.50570751953125,-0.06781155346632003,0.06349062152728438,0.07119308566339314
1761413475087720400,1.515720458984375,-0.05618541308045387,0.03343976665660739,0.01663878091610968
1761413475097733400,1.5257333984375,-0.033836803150177,0.005901552193984389,-0.01691394459567964
1761413475107747600,1.53574755859375,-0.02959434327483177,-0.01025514429360628,-0.09280695157833396
1761413475117760500,1.545760498046875,-0.00689852734208107,-0.040324630799517036,-0.11089775793366133
1761413475127773400,1.5557734375,0.027562545186281203,-0.08044453280717134,-0.11432269088104366
1761413475137786400,1.565786376953125,0.07720423571169376,-0.08182933822907507,-0.11434022653773426
1761413475147800300,1.57580029296875,0.1273480305403471,-0.07380377961844205,-0.1312818628579378
1761413475157813500,1.5858134765625,0.12159048992693423,-0.06729432465918361,-0.15089534873589872
1761413475167826400,1.595826416015625,0.07365209618806838,-0.0951261152409017,-0.16573080655708908
1761413475177839600,1.605839599609375,0.016568857485055922,-0.0976340794738382,-0.20188143960759042
1761413475187853300,1.615853271484375,-0.009870821151137351,-0.10974347333200275,-0.22855828800052402
1761413475197866500,1.625866455078125,-0.018380290821194648,-0.12184124981760978,-0.2672966725219041
1761413475207879400,1.63587939453125,-0.03637771980464458,-0.08343326629437506,-0.21548655191622673
1761413475217893400,1.645893310546875,0.006156769064068794,-0.06151398769207298,-0.19397030115686356
1761413475227906600,1.655906494140625,0.045050271081924435,-0.04391783298589289,-0.18918686627261339
1761413475237919200,1.665919189453125,0.06904547917544841,-0.04601458606943488,-0.14497414199337363
1761413475247932400,1.675932373046875,0.06482932278513907,-0.08722761707603931,-0.15223434225469826
1761413475257946400,1.6859462890625,0.053318333211541176,-0.09192892663478851,-0.13217384326159953
1761413475267959300,1.695959228515625,0.04254851739406586,-0.1289980627696961,-0.1007427860789001
1761413475277972500,1.705972412109375,0.06667290482521057,-0.10578750224784016,-0.10366020789556205
1761413475287985400,1.7159853515625,0.10227379503846168,-0.09828355635851621,-0.04258336951173842
1761413475297999400,1.725999267578125,0.10084171640872955,-0.09379420905001461,0.007134820315986871
1761413475308012500,1.736012451171875,0.09209434632956981,-0.09060081983618437,0.015125380678474902
1761413475318025500,1.746025390625,0.037355040404200554,-0.06070179452635348,0.06940766355134546
1761413475328039400,1.756039306640625,0.009943301865458488,-0.014602745043858886,0.06620053807310759
1761413475338052600,1.766052490234375,0.026201778227090834,0.021365590242296457,0.07269311496280133
1761413475348065300,1.776065185546875,0.020626023921370504,0.039300621514022346,0.09495682308860122
1761413475358078500,1.786078369140625,0.024821137523651123,0.0636467619370669,0.09227145646214485
1761413475368092400,1.796092529296875,0.046883331727981564,0.08264518465660511,0.07810885640121996
1761413475378105300,1.806105224609375,0.10355214441120623,0.07070734797306358,0.06828508926220238
1761413475388118500,1.816118408203125,0.15517887127399443,0.03942928939498961,0.039474078384786844
1761413475398131500,1.82613134765625,0.14944354249238967,0.030214740195497868,0.017407281070575115
1761413475408145400,1.8361455078125,0.14342121346294878,0.011592968768626451,0.0014361702829599379
1761413475418158600,1.84615869140625,0.16052549299895763,0.012950740053132176,0.010454173997044562
1761413475428171500,1.856171630859375,0.169614808383584,0.0036967356260865923,0.028433921193331477
1761413475438185500,1.866185546875,0.15226035347878933,0.010552008348330855,-0.009342121101915835
1761413475448198700,1.87619873046875,0.0892453866392374,0.023565219178423285,-0.01769683860167861
1761413475458211300,1.88621142578125,0.06310498321056365,0.033715587923303245,-0.028017376281693575
1761413475468224500,1.896224609375,0.03490297107696533,0.028997327229753136,-0.03879208746999502
1761413475478238500,1.906238525390625,0.026842998740077017,0.005420198417827486,-0.033334698846936225
1761413475488251400,1.91625146484375,-0.006368950510025024,-0.006252630653977393,-0.07146371929831802
1761413475498264600,1.9262646484375,-0.017268530187010765,-0.026291648467630147,-0.07361359080858529
1761413475508277500,1.936277587890625,-0.016342062991857528,-0.06071297350749373,-0.08553498781397938
1761413475518291500,1.94629150390625,-0.018878887993097303,-0.09428871456868947,-0.0719618050135672
1761413475528304400,1.956304443359375,-0.015159575209021567,-0.11036971547156571,-0.05543715199641883
1761413475538317600,1.966317626953125,0.0035217443853616712,-0.0907420549377799,-0.0479731727913022
1761413475548331000,1.9763310546875,-0.003958966758847236,-0.09062536975555122,-0.04601327089518308
1761413475558345000,1.986344970703125,-0.0002659574598073959,-0.08268171727471053,-0.03817527074590325
1761413475568358000,1.99635791015625,-0.022498832055926322,-0.0735097651079297,-0.04552468366064131
1761413475578371000,2.00637109375,-0.03192132491767406,-0.08197861050665378,-0.042963966327160596
1761413475588384800,2.016384765625,0.011222235760092734,-0.07016418100707232,-0.011660992503538727
1761413475598398000,2.02639794921875,0.0628027853935957,-0.1026749231852591,0.034060017446801066
1761413475608411100,2.0364111328125,0.06798866359889506,-0.09249744723774492,0.04510090529061853
1761413475618424000,2.046424072265625,0.0360983183413744,-0.10104147676452994,0.02741122708208859
1761413475628438000,2.05643798828125,0.0007288987964391708,-0.07376264389045536,0.0018624328710138797
1761413475638451200,2.066451171875,-0.025126842471957206,-0.046730479253828526,0.006222308580949902
1761413475648464000,2.0764638671875,-0.022896891462802885,-0.038811011366173626,0.015428601408749817
1761413475658477000,2.08647705078125,-0.03524082472920417,-0.011541092450916767,0.02127024010904133
1761413475668491000,2.096490966796875,-0.058953708750009534,-0.0052268678028136485,0.036189722951874136
1761413475678504000,2.10650390625,-0.09755904147624969,0.0351221667855978,0.04715133501440286
1761413475688517000,2.11651708984375,-0.07879413525164126,0.05325798132643103,0.05307846004106104
1761413475698530000,2.126530029296875,-0.020184709894657135,0.032074908044189214,0.08494863929338753
1761413475708544000,2.1365439453125,0.029231939703226087,0.018265651465579867,0.10669226906783878
1761413475718557000,2.146556884765625,0.06337444780170917,-0.01775456013828516,0.10362097186371684
1761413475728570000,2.156570068359375,0.06525193211138249,-0.04243300125561654,0.08213175524175166
1761413475738584000,2.166583984375,0.06990998705029487,-0.0351802536483854,0.05444127282686531
1761413475748597000,2.176596923828125,0.0825701466590166,-0.06877455327957868,0.053611544004455204
1761413475758610000,2.18660986328125,0.1164940435707569,-0.06690364484116434,0.03388977544642985
1761413475768622800,2.196622802734375,0.09908464360833168,-0.07296067985780537,0.03418926984965801
1761413475778637000,2.206636962890625,0.09527940610647201,-0.082124594848603,0.025052900452911853
1761413475788650000,2.21664990234375,0.0518663808375597,-0.07103921027593314,0.03454604739807546
1761413475798663000,2.226662841796875,-0.00018587796092033385,-0.06542853078730404,0.008828764752298593
1761413475808676000,2.236676025390625,-0.013888240098953246,-0.0034979981835931537,-0.03119337596930563
1761413475818690000,2.24668994140625,0.01689268261194229,0.039539106445014474,-0.024912907460331916
1761413475828703000,2.256702880859375,0.009831658184528351,0.05570588593520224,0.013520941156521438
1761413475838716000,2.2667158203125,0.02984744125306606,0.06755823629237712,0.020283128767833114
1761413475848728800,2.276728759765625,0.07033785707354545,0.06396591088883578,-0.020439780634269118
1761413475858743000,2.286742919921875,0.07521393867731094,0.055267202256992456,-0.03938683849275112
1761413475868756000,2.296755859375,0.08426642918288707,0.04516571415513754,-0.03893149594068527
1761413475878769000,2.306768798828125,0.11544716486632824,0.03154562347307801,-0.06113455992043018
1761413475888783000,2.316783203125,0.13361176711022854,0.024400793219730255,-0.05439012716151773
1761413475898796000,2.326796142578125,0.1715665269732475,-0.007772460632398724,-0.05155738795362413
1761413475908809000,2.33680908203125,0.1511982772052288,-0.024206585821881888,-0.0684344346050173
1761413475918822100,2.346822265625,0.11454349402487277,-0.04007949693202972,-0.0993468016758561
1761413475928835800,2.3568359375,0.06919920843243599,-0.03247683990858495,-0.13465017024725676
1761413475938849000,2.36684912109375,0.022782909694314003,-0.017493936440721152,-0.12645736531093715
1761413475948862000,2.376862060546875,0.03261106074750423,-0.004308364718407392,-0.1280555212225765
1761413475958875000,2.386875,0.04470949482023716,-0.0145650433819741,-0.1158465394474566
1761413475968889000,2.39688916015625,0.068192077216506,-0.02196596728824079,-0.08839731844253837
1761413475978902000,2.406902099609375,0.07720540475547313,-0.036578576138988135,-0.0977481343075633
1761413475988915000,2.4169150390625,0.11453531071841716,-0.06815517927221953,-0.0883138048775494
1761413475998929000,2.426928955078125,0.11744272259771824,-0.08082315686121583,-0.09255918736234307
1761413476008941800,2.43694189453125,0.09892039295732974,-0.07691855063810944,-0.09692417763881385
1761413476018955000,2.446955078125,0.0727367349088192,-0.07449921453669667,-0.07579568408802151
1761413476028968200,2.45696826171875,0.06012801322638988,-0.07082585978619754,-0.05292670354545116
1761413476038982000,2.46698193359375,0.06289163272082805,-0.062302361590787766,-0.04930909757018089
1761413476048995000,2.4769951171875,0.05260112485289573,-0.04951126907877624,-0.04410414933823049
1761413476059008000,2.487008056640625,-0.0014046061009168624,-0.053640697033703326,-0.031000045354291794
1761413476069021000,2.49702099609375,-0.03347264601290226,-0.03418020976036787,-0.02144070130512118
1761413476079035100,2.50703515625,-0.012331073784828185,-0.025861221161112186,0.00458243241943419
1761413476089047800,2.5170478515625,0.002099018105864525,-0.029487668029963967,0.03375708897747099
1761413476099061000,2.52706103515625,0.032902152648568155,-0.044853214139863845,0.047946942371502516
1761413476109074000,2.537073974609375,0.02907411879301071,-0.05320449757352471,0.027756314192712305
1761413476119087900,2.547087890625,0.026944121026992795,-0.04712634670361876,0.018295462081953883
1761413476129101000,2.55710107421875,-0.02466916183233261,-0.04571647990569472,0.040051951337978245
1761413476139114000,2.567114013671875,-0.06118015262782573,-0.006346665612980723,0.02215615609809756
1761413476149127000,2.577126953125,-0.07443944717347621,-0.01125555350780487,0.04829276013448834
1761413476159141000,2.58714111328125,-0.06536708292365073,-0.006383052100613713,0.09599537235610187
1761413476169154000,2.597154052734375,-0.07255144146978855,-0.006265563200786709,0.09752002464011311
1761413476179167000,2.6071669921875,-0.05655658448040485,-0.0023965397477149963,0.11389482085779308
1761413476189181200,2.61718115234375,-0.045889644515514375,-0.0026924539543688297,0.12806063578911125
1761413476199193900,2.62719384765625,-0.03240706260800361,-0.013731222906336188,0.12237484523765742
1761413476209207000,2.63720703125,-0.015644728377461434,-0.02188515713699162,0.10905344524122774
1761413476219220000,2.647219970703125,0.03951134165525436,-0.012424012765288352,0.1083403285358101
1761413476229234000,2.65723388671875,0.08576222069859504,-0.016507774947583674,0.11778196448944508
1761413476239247000,2.6672470703125,0.13876783469915388,-0.017491671418398618,0.14346907119266689
1761413476249260000,2.677260009765625,0.17094167307317257,-0.01938895640708506,0.15200820534862577
1761413476259273000,2.68727294921875,0.18520576074719428,-0.015309724269434808,0.14348762976266444
1761413476269287000,2.697286865234375,0.1363321319848299,-0.023406521485373376,0.09867598974220454
1761413476279300000,2.707300048828125,0.05791267526447773,-0.0017762889575213192,0.04762443241886794
1761413476289313000,2.71731298828125,0.028681904605031013,0.0326729470025748,0.017093027489632366
1761413476299326000,2.727325927734375,0.013826280778646468,0.054398602728918194,0.01573591379225254
1761413476309340000,2.73733984375,0.006815525233745574,0.029972090546041726,-0.01339146955795586
1761413476319352800,2.747352783203125,0.02503916418850422,0.026629721315577625,-0.058090077657997605
1761413476329366000,2.757365966796875,0.029566286224126815,0.00982895477078855,-0.07803864070922135
1761413476339380000,2.7673798828125,0.06687222678959369,-0.039297114382684226,-0.08703034093827008
1761413476349393000,2.777392822265625,0.0940121626496315,-0.06576835720092057,-0.10741999882049857
1761413476359406000,2.787406005859375,0.1078501338660717,-0.08160415117107331,-0.09661123923212289
1761413476369419000,2.7974189453125,0.13395371241569518,-0.10541530793458223,-0.09658135555051267
1761413476379433000,2.807432861328125,0.16033844599425792,-0.10687040211372077,-0.08644976457133889
1761413476389446100,2.817446044921875,0.16799042205214498,-0.0998165380794555,-0.09697305828183889
1761413476399458800,2.827458740234375,0.13295827163755894,-0.08991539485529064,-0.1001143519822508
1761413476409472000,2.837471923828125,0.07049217085242271,-0.0950423824802041,-0.1079048597279936
1761413476419486000,2.84748583984375,-0.03255494664609432,-0.07812967999354005,-0.11418905456401407
1761413476429499000,2.857498779296875,-0.09652268416583537,-0.07976831404604018,-0.13473536431267857
1761413476439512000,2.867511962890625,-0.15224924756288527,-0.07591668011918663,-0.12128390819579363
1761413476449525000,2.87752490234375,-0.14107026642262935,-0.057341378182545304,-0.08942790359929204
1761413476459539000,2.8875390625,-0.10039806429445743,-0.05625336375012994,-0.055859907453134655
1761413476469552000,2.89755224609375,-0.021305238357186316,-0.05508950760252773,-0.01751234888024628
1761413476479564800,2.907564697265625,0.019873159727454185,-0.07493906725868582,0.039052711167559026
1761413476489578000,2.917577880859375,0.024613047730922696,-0.07617050874978304,0.05518076608255505
1761413476499592200,2.92759228515625,0.000990180081129074,-0.06978855262771248,0.047642260336503386
1761413476509604900,2.93760498046875,-0.014735796838998793,-0.0627514935977757,0.0559223782300949
1761413476519618000,2.9476181640625,-0.06230711083114147,-0.061610799130052324,0.034550869703665374
1761413476529632000,2.957632080078125,-0.05985445698201656,0.007038301138952374,0.04274681644514203
1761413476539645000,2.96764501953125,-0.02875263175368309,0.05666055631153285,0.061972983505949375
1761413476549658000,2.977658203125,-0.04365384828746319,0.08031615718714892,0.0655686699103564
1761413476559671000,2.987671142578125,-0.056064417049288745,0.09032938248366117,0.07039667458869517
1761413476569685000,2.99768505859375,-0.05149930109083652,0.11468231797367334,0.031492505046352745
1761413476579698200,3.0076982421875,-0.004281038320064544,0.08310966036319732,0.04585829952917993
1761413476589710800,3.0177109375,0.048715807852149004,0.06165529585890472,0.06406506041437388
1761413476599724000,3.02772412109375,0.11866963404417037,0.04742291849739849,0.06857179724909365
1761413476609738000,3.037738037109375,0.189139593064785,0.036417832619324325,0.07909713678620756
1761413476619751000,3.0477509765625,0.21870003407001495,0.015361673652380704,0.07613741019777953
1761413476629764000,3.05776416015625,0.2125017639517784,-0.01352627491876483,0.04279131317399442
1761413476639777000,3.067777099609375,0.19813830755650996,-0.007959799898043275,0.014014350696653128
1761413476649791000,3.077791015625,0.1931260323524475,0.01541537660099566,0.0010970014564692973
1761413476659804000,3.087803955078125,0.22587270217835903,0.006711553402617573,-0.0011196516796946525
1761413476669817000,3.097817138671875,0.20196809497773646,0.007799202508851885,0.011848477899655699
1761413476679830000,3.107830078125,0.1521744287610054,0.021548253332823515,0.004529971579834819
1761413476689844000,3.117843994140625,0.11850538339316845,0.02855469802878797,0.0035375995416194197
1761413476699857000,3.12785693359375,0.07938157975077628,0.04029525857456028,0.0025141017127782105
1761413476709870000,3.1378701171875,0.03642331251204014,0.04043422865383327,-0.007731763295829296
1761413476719884000,3.147884033203125,0.016586977663636208,0.024288857277855274,0.009363236955180763
1761413476729897000,3.15789697265625,0.030125673672556877,0.018621552231162786,0.023938363339751956
1761413476739910000,3.167909912109375,0.04131576072871685,-0.00009615385085344313,-0.008518968150764703
1761413476749923000,3.177923095703125,0.05597790780961513,-0.03629581367485225,-0.01992971222028136
1761413476759937000,3.18793701171875,0.07964987529814242,-0.07225063189230858,-0.05801313996426761
1761413476769950000,3.197949951171875,0.08053016526401043,-0.10478175927139818,-0.07776808013953268
1761413476779963100,3.207963134765625,0.08803951798081397,-0.12101904671452939,-0.06851955560520291
1761413476789975800,3.217975830078125,0.06649754825830459,-0.06883622033894062,-0.044157706156373024
1761413476799990000,3.227989990234375,-0.010171849924325942,0.0016585077967494724,0.010307312872260808
1761413476810003000,3.2380029296875,-0.08080956672728061,0.05202390948683023,0.04183642360195517
1761413476820015900,3.248015869140625,-0.12900281201004982,0.09554678833838552,0.04893967973589897
1761413476830029000,3.258029052734375,-0.1457861890286207,0.10686901387423277,0.0314841025441885
1761413476840043000,3.26804296875,-0.1225771628767252,0.10214783057123422,0.013380363642051816
1761413476850056000,3.278055908203125,-0.10869652156233787,0.060001975693926214,-0.0077578475851565595
1761413476860069000,3.288069091796875,-0.04196341098248958,0.01949913878329098,-0.044664413569495076
1761413476870081800,3.298081787109375,-0.011039280408620834,-0.009605777006782591,-0.05803257531709969
1761413476880096000,3.308095947265625,0.033201427856087685,-0.034975926715321834,-0.03840688754469156
1761413476890109200,3.318109130859375,0.07877367698550224,-0.07782050444651395,0.003864493408426642
1761413476900121900,3.328121826171875,0.11849252391159534,-0.0948871919184923,0.019946736420318485
1761413476910135000,3.338135009765625,0.13974983147382736,-0.09524006047677248,0.028073417317867277
1761413476920149000,3.34814892578125,0.15097908149659633,-0.10515903161857276,0.059449456377699966
1761413476930162000,3.358161865234375,0.11463234135210514,-0.09965469858124852,0.1118412493288517
1761413476940175000,3.368175048828125,0.032923779958486554,-0.06285692673362792,0.12342208926826714
1761413476950188800,3.378188720703125,-0.09472118770182132,-0.02596493726391345,0.14331198093481362
1761413476960202000,3.388201904296875,-0.1703904689311981,0.01602985523752868,0.1449840788654983
1761413476970215200,3.398215087890625,-0.24846681130230425,0.050176637652330096,0.15460260575599968
1761413476980227800,3.408227783203125,-0.2722726343035698,0.09183335730582474,0.15180398801341652
1761413476990242000,3.418241943359375,-0.2471270871311426,0.1307862613607198,0.14666004925370216
1761413477000255000,3.4282548828125,-0.1895095954209566,0.1164622601930052,0.1502173033438623
1761413477010268000,3.438267822265625,-0.10034954897761345,0.1087520511418581,0.12862097308561204
1761413477020281000,3.448281005859375,-0.017608721926808357,0.09346245634499936,0.13185878596305847
1761413477030294800,3.458294677734375,0.05293956302702427,0.1025014297818765,0.1386024150043726
1761413477040308000,3.468307861328125,0.161524440908432,0.09072024496477096,0.11332103955782949
1761413477050321000,3.47832080078125,0.20155191539227962,0.09893909765779972,0.09365333927460014
1761413477060334000,3.488333984375,0.2535451374799013,0.11176259460207075,0.07119198968484998
1761413477070348000,3.49834814453125,0.28842180507183074,0.10672127596661447,0.059654550495743745
1761413477080361000,3.50836083984375,0.2859188823401928,0.12121884360294788,0.04009104123935103
1761413477090374000,3.518373779296875,0.250630711337924,0.13849066172558813,0.04650171199925244
1761413477100387000,3.528386962890625,0.22385493261516093,0.13474617796763777,0.02655760592743754
1761413477110401000,3.538401123046875,0.2049807207971811,0.1176274680474773,0.05155336936563253
1761413477120414000,3.5484140625,0.21834756737053393,0.10390946994889527,0.06547967645265161
1761413477130427000,3.558427001953125,0.26391163319349287,0.07337799195442349,0.07892565267682075
1761413477140440000,3.568440185546875,0.2963742253810167,0.056444064016640184,0.11576346427388488
1761413477150454000,3.5784541015625,0.31494623938202854,0.0009281842282041907,0.12041808514669537
1761413477160467000,3.588467041015625,0.28449147988557816,-0.037045097672194244,0.11388232670240103
1761413477170480000,3.598480224609375,0.26760814962387086,-0.06003814298585057,0.08350231294259429
1761413477180494000,3.608494140625,0.20016835207939146,-0.07019059408996253,0.057592795660346745
1761413477190507000,3.618507080078125,0.10735679739117622,-0.10452621360775083,0.04147686957456171
1761413477200520000,3.62852001953125,0.04204290595948696,-0.1140603136178106,0.04101334371604025
1761413477210532900,3.638532958984375,0.016219897916913032,-0.14293350301124155,0.0544020367950201
1761413477220547000,3.648547119140625,-0.05485621030330658,-0.1585851360535249,0.029280455020070074
1761413477230560000,3.65856005859375,-0.08205401383042335,-0.1836248482313007,0.04206066081188619
1761413477240573000,3.668572998046875,-0.12745616708993912,-0.1703275597628206,0.03012771949917078
1761413477250586000,3.678586181640625,-0.21084815152585507,-0.17454725981708616,0.06116919284239411
1761413477260600000,3.68860009765625,-0.23456454267799853,-0.17765874290112404,0.036350174210593104
1761413477270613000,3.698613037109375,-0.218535783419013,-0.16769253508411347,0.06321691915243864
1761413477280626200,3.708626220703125,-0.2741547947883606,-0.19457287015989422,0.09892287717536091
1761413477290638800,3.718638916015625,-0.3141775930970907,-0.1584797029176727,0.09014986119829117
1761413477300653000,3.728653076171875,-0.33906127446293827,-0.12666267862468958,0.08757803794890642
1761413477310666000,3.738666015625,-0.32379882340133187,-0.1097910753333941,0.10023768610097468
1761413477320679000,3.748678955078125,-0.25712416501045227,-0.09184070036206395,0.10203275282420217
1761413477330692000,3.758692138671875,-0.20672785672545432,-0.11338953821677714,0.1208781038738787
1761413477340705800,3.768705810546875,-0.1474549990236759,-0.11056220583636313,0.11797076505981385
1761413477350719000,3.778718994140625,-0.06673895579874516,-0.0891373962201178,0.11528854023851454
1761413477360732200,3.788732177734375,-0.0008306056052446365,-0.10010631480626761,0.08898191339746117
1761413477370744800,3.798744873046875,0.05978256078958511,-0.11228285561650991,0.09866020765118301
1761413477380759000,3.808759033203125,0.08054360926747321,-0.11865315783340483,0.0720488987751305
1761413477390772000,3.81877197265625,0.11530629509091377,-0.09562661210894584,0.09499306344576179
1761413477400785000,3.828784912109375,0.14820377156436443,-0.0898793006286025,0.09419760221913456
1761413477410798000,3.838798095703125,0.16798866848647592,-0.06748334442526102,0.08892967175357043
1761413477420811800,3.848811767578125,0.18230477860867977,-0.024254480084218082,0.07348170805722475
1761413477430825000,3.858824951171875,0.1567623410731554,-0.0017738047394901513,0.0769439773403108
1761413477440838100,3.868838134765625,0.1335305185675621,0.025683526506647465,0.05231580510549247
1761413477450851000,3.87885107421875,0.11280746401250362,0.05071680894363671,0.02878463432714343
1761413477460865000,3.888864990234375,0.07044482457935809,0.06836509569585322,-0.01753536442965269
1761413477470878000,3.8988779296875,0.006619710400700569,0.09511650716233998,-0.05630027163177728
1761413477480891000,3.908890869140625,-0.0075707275152206415,0.09565507101844996,-0.10510361163690686
1761413477490905000,3.918905029296875,0.023242343899607658,0.08547690095119177,-0.13901121500097213
1761413477500918000,3.92891796875,0.08059796980321407,0.06202091430090367,-0.14757204953208564
1761413477510931000,3.938930908203125,0.12830781548321246,0.03549786823019385,-0.13585406614430248
1761413477520943900,3.94894384765625,0.12073708796799182,0.04032667662613094,-0.12966463691964744
1761413477530957800,3.958957763671875,0.08836860380470753,0.03419043889343738,-0.11927519872188568
1761413477540971000,3.968970947265625,0.06406243006587028,0.06220989753436297,-0.10507986543513834
1761413477550983400,3.9789833984375,0.08065876007974147,0.07305456868633628,-0.06813727828934789
1761413477560996600,3.98899658203125,0.07933014182448386,0.08804496134091168,-0.022691724279522894
1761413477571010300,3.99901025390625,0.0771633191794157,0.08841700952369719,0.0017671558029949664
1761413477581023500,4.0090234375,0.06265899300873279,0.04526526553947478,-0.012544935731217264
1761413477591036700,4.01903662109375,0.07028232749402523,0.014497311908006667,-0.025893662125989793
1761413477601049300,4.02904931640625,0.057473699325323105,-0.024019027360528706,-0.04707081712409854
1761413477611063600,4.0390634765625,0.05316752656400203,-0.022769904082268474,-0.036130978501960634
1761413477621076200,4.049076171875,0.041701545175909994,-0.029467794285714624,-0.03539667287804186
1761413477631089400,4.05908935546875,0.009473930788040161,-0.014284363277070224,-0.013570260190963744
1761413477641102600,4.0691025390625,-0.030249007791280744,0.005401274521648883,-0.023013138253614306
1761413477651116300,4.0791162109375,-0.03849544261097908,0.03291946910955012,0.00031045418865978717
1761413477661129500,4.08912939453125,-0.05191781876385212,0.04271645783949643,-0.005345598811656236
1761413477671142400,4.099142333984375,-0.06292728855609893,0.05466339114494621,0.015298618353530764
1761413477681155300,4.1091552734375,-0.051472997605800624,0.04005209746845066,0.040100466654822225
1761413477691169500,4.11916943359375,-0.0420674558788538,0.030283640713244676,0.06864705444239079
1761413477701182500,4.129182373046875,0.02290799737870693,-0.00035158991664648053,0.0895464884776622
1761413477711195400,4.1391953125,0.05222469275593757,0.007190203765034675,0.08559504743814468
1761413477721208300,4.149208251953125,0.0705669896543026,-0.02118044293373823,0.04566964508928358
1761413477731222300,4.15922216796875,0.05405716888010501,-0.0474675248241052,0.030989523960277435
1761413477741235500,4.1692353515625,-0.014141338077187537,-0.05515026134643703,0.013679492719098924
1761413477751248400,4.179248291015625,-0.026709727749228477,-0.046677251229248935,-0.02914345770217478
1761413477761261600,4.189261474609375,-0.059385085904598234,-0.04190758914202451,-0.0666191288113594
1761413477771275500,4.199275634765625,-0.0674298606723547,-0.011503427321650087,-0.07573993531279266
1761413477781288400,4.209288330078125,-0.06738485248684883,-0.000561579405516386,-0.0818997731167823
1761413477791301400,4.21930126953125,-0.05315992777943611,0.016401976485550404,-0.05988784779496491
1761413477801314300,4.229314208984375,0.014214987835288047,0.019168591654673217,-0.056824368571117514
1761413477811328500,4.23932861328125,0.05650047037899494,0.01844396717455238,-0.042047509069368244
1761413477821341400,4.249341552734375,0.08731412631571292,0.013886011609248817,-0.05680193754360079
1761413477831354400,4.259354248046875,0.11990531331896781,-0.0004245820876210928,-0.0521985354013741
1761413477841367600,4.269367431640625,0.12743395525813103,0.0012425839396193624,-0.09028817369043826
1761413477851381500,4.279381591796875,0.16632862631976603,-0.0060663508342579005,-0.10675298627912998
1761413477861394400,4.28939453125,0.1947504186838865,-0.027464455106668173,-0.10248488050587475
1761413477871407600,4.29940771484375,0.202101365968585,-0.029454167619161305,-0.0960881652060896
1761413477881420300,4.309420166015625,0.2134866833359003,-0.008175415410101413,-0.0836225783213973
1761413477891434500,4.3194345703125,0.20292963348627088,0.02448332040403038,-0.053835123627260326
1761413477901447400,4.329447509765625,0.19981939251124858,0.04369315738454461,-0.00188997846506536
1761413477911460400,4.33946044921875,0.1604693788975477,0.05114866102226078,0.0441616516791284
1761413477921474600,4.349474609375,0.09187748870849609,0.04547686246354132,0.036721564806252716
1761413477931487200,4.3594873046875,0.040481063470244404,0.02400755611844361,0.035971696287021036
1761413477941500400,4.36950048828125,-0.004900631523132324,-0.0096598452815786,0.01348024381995201
1761413477951513600,4.379513671875,0.003938508492708206,-0.03282302299775183,-0.02180529683381319
1761413477961527300,4.38952734375,0.06242986042797565,-0.09078713618852198,-0.05708718422576785
1761413477971540500,4.39954052734375,0.06837970874309539,-0.14040460558813064,-0.05984042845666408
1761413477981553700,4.4095537109375,0.0764835202217102,-0.15134305597078054,-0.0674298606723547
1761413477991566300,4.41956640625,0.05351005639135837,-0.17169621776752172,-0.07845569707751274
1761413478001580500,4.42958056640625,0.015885551396012304,-0.18596081689819693,-0.09269530789740384
1761413478011593200,4.43959326171875,-0.04984218153357506,-0.15523556989729403,-0.08149060779400169
1761413478021606400,4.4496064453125,-0.06757423757910729,-0.12092267366796731,-0.054893181312829255
1761413478031619600,4.45961962890625,-0.04317278677225113,-0.10859510701447725,-0.059979179340228436
1761413478041633300,4.46963330078125,-0.05969312894046306,-0.102482542418316,-0.02654240835830569
1761413478051646500,4.479646484375,-0.046080783173441886,-0.07179879647158086,0.0034526977371424432
1761413478061659400,4.489659423828125,-0.05070785845220089,-0.0938319472445175,-0.007343713826313615
1761413478071672300,4.49967236328125,-0.0645318011432886,-0.11516856712065636,-0.019664850739017126
1761413478081686500,4.5096865234375,-0.05008125098645687,-0.12257204831019043,-0.029046061742305753
1761413478091699500,4.519699462890625,-0.019537644162774086,-0.1206977423382923,-0.019689327593147753
1761413478101712400,4.52971240234375,-0.003715221130847931,-0.11217775127422064,0.029720600003004072
1761413478111725300,4.539725341796875,0.00229658650457859,-0.0759644282510504,0.05119155031591654
1761413478121739300,4.5497392578125,-0.010826514440774917,-0.09140088417269289,-0.012339768547937273
1761413478131752400,4.55975244140625,-0.05408873306214809,-0.08858568062148987,-0.024246260245144365
1761413478141765400,4.569765380859375,-0.05621522369682788,-0.07237524465266615,-0.01923807669430971
1761413478151778600,4.579778564453125,-0.0001087210714817047,-0.055613531476631756,-0.0024397213023155924
1761413478161792500,4.58979248046875,0.04873918872773647,-0.0314591507660225,0.023054273981601
1761413478171805400,4.599805419921875,0.07367723062932491,-0.03401983156688511,0.03739661452360451
1761413478181818400,4.609818359375,0.06707739397287368,-0.012273900237493217,0.03141432524360716
1761413478191831300,4.619831298828125,0.039701895791292185,0.006650288202054798,0.02655724060125649
1761413478201845500,4.629845458984375,0.04119944087266922,0.01206559124905616,0.04951061149165034
1761413478211858400,4.6398583984375,0.06603460692167282,0.025803061233088374,0.07097593578137457
1761413478221871400,4.649871337890625,0.09278057502806186,0.03933985754586756,0.058580856849625704
1761413478231884500,4.659884521484375,0.12592179712951182,0.012436251192353665,0.08189685050733388
1761413478241898500,4.6698984375,0.1533937414228916,0.003254252555593848,0.06310578692816197
1761413478251911400,4.679911376953125,0.10082418075203894,-0.0034113428134471178,0.01568257616981864
1761413478261924600,4.689924560546875,0.025227380236983298,-0.0021785130828619,-0.03000898849032819
1761413478271937300,4.699937255859375,-0.03568915301859379,-0.0001999430188909173,-0.05078888779915869
1761413478281951500,4.709951416015625,-0.0828185684621334,0.017102708633430302,-0.05276785972192883
1761413478291964400,4.71996435546875,-0.10939502522051334,0.06494984389226884,-0.042773777517303824
1761413478301977300,4.729977294921875,-0.09962707992196082,0.0838278551025316,-0.053372766812518235
1761413478311990500,4.739990478515625,-0.04514145649671554,0.06513243391755968,-0.053768415066599844
1761413478322004500,4.75000439453125,0.0018225392520427703,0.04067249438911676,-0.036670126879960296
1761413478332017400,4.760017333984375,0.06930266880691051,0.03806275028213858,-0.0376125953618437
1761413478342030600,4.770030517578125,0.12134557525515556,0.01396974436994642,-0.028086569060385227
1761413478352043300,4.780043212890625,0.16076806958317755,-0.0009258826732635498,-0.039061040604487056
1761413478362057500,4.790057373046875,0.15603987201750277,-0.010585216498188674,-0.05459492901861667
1761413478372070700,4.800070556640625,0.13175474106669424,-0.033509324761480094,-0.09505801844075322
1761413478382083300,4.810083251953125,0.1449234347194433,-0.029497714499942956,-0.11056691854409872
1761413478392096500,4.820096435546875,0.1379565183162689,-0.03237392752338201,-0.10926971834041177
1761413478402110500,4.8301103515625,0.12577157500386238,-0.045876711968705054,-0.10358801944218575
1761413478412123400,4.840123291015625,0.11283084488809109,-0.04479085296075791,-0.10070939526595174
1761413478422136600,4.850136474609375,0.06490764871835708,-0.04350866766311228,-0.10865056352876126
1761413478432149500,4.8601494140625,0.02991641483604908,-0.013088979480043053,-0.07373151809982954
1761413478442163500,4.87016357421875,-0.027139935860037802,-0.018403233305364846,-0.04331329122148454
1761413478452176400,4.88017626953125,-0.020571663385629654,-0.007511763869598507,-0.005161693612113594
1761413478462189300,4.890189208984375,0.0027098434805870055,-0.007624466996453702,-0.00416881011724472
1761413478472202500,4.900202392578125,0.0010153145223855973,-0.030241664735041557,-0.006870178030431271
1761413478482216400,4.910216552734375,-0.0012719196319580077,-0.07234276715517043,-0.008894085073471069
1761413478492229400,4.9202294921875,-0.011762918508052824,-0.09961487802751362,-0.018517799595743418
1761413478502242300,4.9302421875,-0.021447861698269843,-0.10918850633036345,-0.04930529817789793
1761413478512255500,4.94025537109375,-0.01734451803267002,-0.1025290849737823,-0.027819880948215723
1761413478522269400,4.95026953125,0.006953472399711609,-0.05703877850677818,0.056817281243205064
1761413478532282400,4.960282470703125,0.008892331507802009,-0.006301913155801594,0.08048340351283549
1761413478542295600,4.970295654296875,-0.013879472270607948,-0.0096753716442734,0.05440875879675149
1761413478552308200,4.98030810546875,-0.07993161484897136,-0.03872793619260192,0.0273917186640203
1761413478562322400,4.990322509765625,-0.0774859752625227,-0.040014176610857245,0.04077456652410328
1761413478572335400,5.00033544921875,-0.0328302564561367,-0.011891184530220925,0.050936625706776976
1761413478582348300,5.010348388671875,0.04072422457635402,-0.0030516061229631302,0.0968361340291798
1761413478592361200,5.020361328125,0.08064473155438899,-0.0035595191124826665,0.12143639534376562
1761413478602375200,5.030375244140625,0.08049684751629829,0.02091371828895062,0.12530505347065626
1761413478612388400,5.040388427734375,0.06923544878959656,0.03796878838837146,0.1069354301739484
1761413478622401300,5.0504013671875,0.04894786304235458,0.03995364206265658,0.120041579984501
1761413478632414500,5.06041455078125,0.01922492495179176,0.044450186296924946,0.09340425988435745
1761413478642428400,5.070428466796875,0.04819850597977638,0.06392696711793541,0.07754033579826354
1761413478652441300,5.08044140625,0.07913724960088729,0.08323609975446015,0.06836684926152228
1761413478662454300,5.090454345703125,0.08238952939510345,0.07846336892731487,0.07640424444042146
1761413478672467200,5.10046728515625,0.12495733601152896,0.06531462208405137,0.08612316296547651
1761413478682481400,5.1104814453125,0.10774842705726623,0.07640004318933934,0.0780112412456423
1761413478692494300,5.120494384765625,0.056738370788097375,0.0542528375826776,0.05365903640799224
1761413478702507300,5.13050732421875,0.008096212694048881,0.06556319001764059,0.018182210965827107
1761413478712520400,5.1405205078125,0.030620179191231726,0.05489369276948273,-0.0035850919451564547
1761413478722534400,5.150534423828125,-0.0027408231407403945,0.04748290505632758,0.01617627797089517
1761413478732547300,5.16054736328125,-0.0017769465446472166,0.05026946703493595,-0.012311273105815052
1761413478742560500,5.170560546875,-0.012492401826381682,0.008600618552230299,-0.05109415435604751
1761413478752573200,5.1805732421875,-0.008960720568895339,-0.02377831393983215,-0.05181874230355024
1761413478762587400,5.19058740234375,0.02374970889985561,-0.015665150110982358,-0.03109451870471239
1761413478772600300,5.200600341796875,0.04948796126842499,-0.03781414581593126,-0.03922777547352016
1761413478782613200,5.21061328125,0.08172025183141231,-0.013177169220149516,-0.04074417138583958
1761413478792627500,5.22062744140625,0.14464695586562157,-0.01003883466180414,-0.020790420702844856
1761413478802640100,5.23064013671875,0.1509007555633783,-0.044872247633896765,-0.00475559702925384
1761413478812653300,5.2406533203125,0.1524000542104244,-0.07521477892752737,0.007007102283090353
1761413478822666500,5.25066650390625,0.14016834914684295,-0.08723448520824313,-0.016208645870536564
1761413478832680200,5.26068017578125,0.10435878461897373,-0.0887964738279581,-0.02112381737567484
1761413478842693400,5.270693359375,0.07427168939113617,-0.05944448794163763,-0.019310411278158426
1761413478852706600,5.28070654296875,0.02772036609649658,-0.03899422244597226,-0.021853519889712333
1761413478862719200,5.29071923828125,-0.017216507738828657,0.001803944149427116,-0.008568214119970798
1761413478872732400,5.300732421875,-0.03766132987439632,0.04424136585183441,0.010320976071432232
1761413478882746000,5.31074609375,-0.04443827666342258,0.05483849198352545,0.031062077739834784
1761413478892759300,5.32075927734375,-0.03707680798470974,0.0402447339637205,0.060136707989498966
1761413478902772500,5.3307724609375,-0.004169979161024093,0.032914464140869674,0.055299204830452794
1761413478912785400,5.340785400390625,0.02635316939651966,0.018575776860676706,0.048329585013538595
1761413478922799400,5.35079931640625,0.01622691217958927,0.012586473318003118,0.036011005384102464
1761413478932812300,5.360812255859375,0.013144143733382223,-0.005793013785593212,0.018659911480173468
1761413478942825200,5.3708251953125,0.0025800796210765837,-0.012148045368120074,-0.01848966947980225
1761413478952839400,5.38083935546875,0.01849602615535259,-0.012152173553965985,-0.03161949242688715
1761413478962852400,5.390852294921875,0.02665244460403919,0.0049636868219822645,-0.035123701155558226
1761413478972865300,5.400865234375,0.014753332495689392,0.02234159566760063,-0.02219334630332887
1761413478982878200,5.410878173828125,0.04190963496863842,0.02949618012998253,-0.02315839194320142
1761413478992891400,5.420891357421875,0.037053427109122274,0.04680621137116104,-0.03269581642150879
1761413479002905300,5.4309052734375,0.04176642710566521,0.0512757214680314,-0.0362387497253716
1761413479012918300,5.440918212890625,0.04649696275889873,0.038110425348766144,-0.042195831498876214
1761413479022931500,5.450931396484375,0.05604863495826721,0.01843519934620708,-0.06784414056167005
1761413479032944000,5.460944091796875,0.09336158978641032,-0.02117025033328682,-0.08951119796857238
1761413479042958300,5.470958251953125,0.13450959273278712,-0.04763816868327558,-0.07894523416012525
1761413479052971300,5.48097119140625,0.15613164195418358,-0.04371485775969922,-0.053479076731204986
1761413479062984200,5.490984130859375,0.1667348690330982,-0.051111032425612206,-0.05099025559015572
1761413479072997400,5.500997314453125,0.1635930638760328,-0.03379581355266273,-0.05082615106962621
1761413479083011300,5.51101123046875,0.13633739268183706,-0.02945062395520508,-0.043713031128793954
1761413479093024300,5.521024169921875,0.1007780035227537,-0.0124344610940665,-0.0075758420817553995
1761413479103037400,5.531037353515625,0.04464052123725414,0.0011706877471879124,0.004923427876830101
1761413479113050000,5.541050048828125,-0.02803542339503765,0.006499006630480289,0.002271232867613435
1761413479123064300,5.551064208984375,-0.09013152182400226,-0.006021233050897717,-0.012774945094808936
1761413479133077500,5.561077392578125,-0.11286007098257542,0.004817665947414934,-0.025530381771549582
1761413479143090200,5.571090087890625,-0.1370551855623722,-0.01575516648199409,-0.015249883840978145
1761413479153103400,5.581103271484375,-0.11888298453390597,-0.05182597576193511,-0.01746880199946463
1761413479163117300,5.591117431640625,-0.10698445694744586,-0.05308638761918991,-0.01225778935290873
1761413479173130200,5.601130126953125,-0.08850772001445292,-0.06367986048907041,-0.002659355402365327
1761413479183143400,5.611143310546875,-0.08904138849973678,-0.06880286605861037,0.005894026474654674
1761413479193156400,5.62115625,-0.03903670988082886,-0.05586239167116582,0.04454049492888152
1761413479203170300,5.63117041015625,0.01689794330894947,-0.03501961972657591,0.05887326392494142
1761413479213183500,5.64118359375,0.05737842225730419,-0.04440123258866369,0.10976298175007104
1761413479223196200,5.651196044921875,0.09918927302658558,-0.04419252174142748,0.13091061839275062
1761413479233209300,5.661209228515625,0.07130465627908707,-0.055077305708080525,0.08304594747722148
1761413479243223600,5.6712236328125,0.04703180028796196,-0.048489561348222195,0.05036664379909634
1761413479253236200,5.681236328125,0.06208440799117088,-0.06499507127348333,0.06299830796569586
1761413479263249400,5.69124951171875,0.07685469162166118,-0.04290339524634182,0.05970606148727238
1761413479273262300,5.701262451171875,0.05857260047793388,-0.02180146090891212,0.07106770571805536
1761413479283276300,5.7112763671875,0.060358314850926395,-0.0023391835372895,0.052546910447627306
1761413479293289500,5.72128955078125,0.03312134835720062,-0.008794533689133823,0.043112069560959934
1761413479303302400,5.731302490234375,0.05153437240421772,0.0013009995959699153,0.031191549338400362
1761413479313315300,5.7413154296875,0.050146717438101764,-0.01845996846128255,0.028300284876301884
1761413479323329300,5.751329345703125,0.06488485236465931,-0.03212638250309974,0.038124198145791884
1761413479333342200,5.76134228515625,0.04478957431912422,-0.009796769534237682,0.018722528387606144
1761413479343355400,5.77135546875,0.0311965177744627,-0.005145400064438581,-0.0147284172501415
1761413479353368300,5.781368408203125,0.03129880910515785,0.0007906023884192109,-0.020127865140885114
1761413479363382300,5.79138232421875,0.039210897403955454,0.011748561189137398,-0.02285758236572146
1761413479373395200,5.801395263671875,0.04828384617567062,-0.013104615440592169,-0.011607654881104826
1761413479383408400,5.811408447265625,0.05985445698201656,0.028081965950503943,-0.004806304303184151
1761413479393421300,5.82142138671875,0.07185001520216465,0.03166599844973534,0.012327347457781433
1761413479403435300,5.831435302734375,0.07227496261596679,0.030656346483156082,0.010091916555911302
1761413479413448400,5.841448486328125,0.052905076235532755,0.021411950134672224,0.01539776787906885
1761413479423461000,5.851461181640625,0.03185936559736729,0.015931509429588913,-0.009760784905403852
1761413479433474300,5.861474365234375,0.006755904000997543,0.004443791133724153,-0.023760887880995868
1761413479443488300,5.87148828125,0.00970832406580448,-0.017535145233944057,-0.06663315733671188
1761413479453501200,5.881501220703125,0.012884031492471694,-0.027433000522479413,-0.10182451690100133
1761413479463514400,5.891514404296875,0.04232172290086746,-0.031091267301701007,-0.0882111482206732
1761413479473527600,5.901527587890625,0.0915893194168806,-0.04097162346616387,-0.09285437091663479
1761413479483541200,5.911541259765625,0.12134031455814838,-0.040109892070293425,-0.07896810357905924
1761413479493554400,5.921554443359375,0.11248071627616882,-0.06608016309645026,-0.09745886903740465
1761413479503567000,5.931567138671875,0.09080021486580371,-0.07342647073864936,-0.11414163522571324
1761413479513580300,5.941580322265625,0.07763619738817215,-0.09540606469344347,-0.1263631111562252
1761413479523594500,5.951594482421875,0.031655367457866665,-0.10657109037358313,-0.14935666792653501
1761413479533607200,5.961607177734375,0.019203297641873358,-0.06433890891969203,-0.19902217771895228
1761413479543620400,5.971620361328125,0.035488662010431285,-0.048294148373976345,-0.1540180838663131
1761413479553633500,5.981633544921875,0.06651099226176738,-0.02761336205806583,-0.1006509430769831
1761413479563647500,5.9916474609375,0.0834504366248846,0.015841127732396126,-0.054770577846467494
1761413479573660400,6.001660400390625,0.12002923195958137,0.06289904884230345,0.021984964249655604
1761413479583673600,6.011673583984375,0.09158815037310122,0.016352219059690833,0.09202990279123187
1761413479593686500,6.0216865234375,0.06599778204262256,0.010009754697792231,0.09371230292022227
1761413479603700500,6.031700439453125,0.04435644359886646,0.021267902021482585,0.08658208571411669
1761413479613713400,6.04171337890625,0.01113748008608818,-0.02192472196239978,0.09198642897568643
1761413479623726300,6.051726318359375,0.009898878201842307,-0.02299447008576244,0.07428279530704021
1761413479633739500,6.061739501953125,-0.037435119903087614,-0.007595167836733162,0.07824972617663442
1761413479643753500,6.07175341796875,-0.10978665488660334,0.013148856441117822,0.09205978647284209
1761413479653766400,6.081766357421875,-0.165066059038043,0.04429441121332347,0.09668781159967184
1761413479663779600,6.091779541015625,-0.22465981925725936,0.08091386735197156,0.10773059913963079
1761413479673792500,6.10179248046875,-0.22383272078335284,0.09199874046798795,0.07991999747641385
1761413479683805400,6.111805419921875,-0.17669746012091636,0.0698170115372166,0.09546952185109257
1761413479693819600,6.121819580078125,-0.08521335464417934,0.04937226246688515,0.11647672710977494
1761413479703832300,6.131832275390625,0.017126491367816923,0.05150346580930054,0.1214862989000976
1761413479713845500,6.141845458984375,0.11809154189527034,0.018541911123692988,0.12083514151498674
1761413479723858700,6.151858642578125,0.18149638483524322,-0.02115888868905604,0.0753116268981248
1761413479733872400,6.161872314453125,0.2174082406938076,-0.06537570462152362,0.012206497557088731
1761413479743885600,6.171885498046875,0.21853402985334394,-0.10300824679285288,-0.03662577628158033
1761413479753898500,6.1818984375,0.21676818922460078,-0.12223558289743959,-0.06246127847954631
1761413479763911400,6.191911376953125,0.1970470051884651,-0.13195683951005338,-0.059798050619661806
1761413479773925600,6.201925537109375,0.1539864466190338,-0.1034991721149534,-0.061352586585283274
1761413479783938300,6.211938232421875,0.0948439372986555,-0.07267309508807956,-0.061944561129063366
1761413479793951500,6.221951416015625,0.03435118241310119,-0.026165537869930266,-0.03935761239826679
1761413479803964400,6.23196435546875,0.002859481084346771,-0.0070760758660733695,-0.031083485854044555
1761413479813978400,6.241978271484375,-0.003731587743759155,0.0014495412211865187,-0.004915317635610699
1761413479823991600,6.251991455078125,0.008591887256503105,-0.04588767175413668,0.029941183951124547
1761413479834004500,6.26200439453125,0.03596913900375366,-0.06586085778996348,0.01913863490782678
1761413479844017400,6.272017333984375,0.07107903082966804,-0.08816482486091554,0.028407909969240426
1761413479854031600,6.282031494140625,0.05951017358899116,-0.10872450554780662,0.04489646875970065
1761413479864044500,6.29204443359375,0.056795069411396976,-0.10537490285895765,0.03709164022766053
1761413479874057500,6.302057373046875,0.03299742971658706,-0.04548289034552872,0.05361914278902113
1761413479884070400,6.3120703125,-0.013564999493956564,-0.027156448603421448,0.023714418390765785
1761413479894084400,6.32208447265625,-0.04355097243487835,-0.02787402228824794,0.015626315937936307
1761413479904097500,6.33209765625,-0.08100655060410498,-0.017001403683423996,0.027209932356327772
1761413479914110500,6.3421103515625,-0.0858469763725996,-0.011082900354638695,0.02396795476041734
1761413479924123600,6.35212353515625,-0.1093926871329546,0.011833280330523848,0.028135011311993002
1761413479934137600,6.3621376953125,-0.09300503143370151,0.03608436288125813,0.062210883915051814
1761413479944150500,6.372150634765625,-0.04644727839827537,0.05010002875216305,0.08189202820174396
1761413479954163500,6.38216357421875,-0.009980711266398429,0.06290215411484242,0.09923786140866576
1761413479964176400,6.39217626953125,0.013126608076691627,0.07534910936430096,0.11420775926448404
1761413479974190600,6.402190673828125,0.04145253885090351,0.044852264291793106,0.09366400679908693
1761413479984203500,6.41220361328125,0.09077157329320908,0.00965052946396172,0.08941935496665537
1761413479994216400,6.422216552734375,0.12299217341840267,-0.0037005350183695555,0.05898490760587156
1761413480004229600,6.432229736328125,0.14301613979339597,0.012095730658993125,0.05892945109158754
1761413480014243300,6.442243408203125,0.13898819945156574,0.010069923919811844,0.04305595545955002
1761413480024256500,6.452256591796875,0.1554728857845068,0.03546652324385941,0.025791809186711905
1761413480034269700,6.462269775390625,0.13230828329622746,0.062112172780930994,0.04447875480428338
1761413480044282400,6.472282470703125,0.089820556178689,0.046723757252097126,0.05073218917585909
1761413480054296600,6.482296630859375,0.07079378414750098,0.05560724786631763,0.03287453398928046
1761413480064309500,6.4923095703125,0.06000467910766601,0.05265782347619533,0.01941657506637275
1761413480074322400,6.502322509765625,0.06940963631272315,0.06170220374055206,0.0359673854380846
1761413480084335600,6.512335693359375,0.05531739807426929,0.06457863595969975,0.0415483273755759
1761413480094349300,6.522349365234375,0.037729134413599964,0.09769698864221572,0.05868059089705348
1761413480104362500,6.532362548828125,0.06486380957663058,0.08639116625189781,0.04287643417418003
1761413480114375700,6.542375732421875,0.07735796496868133,0.06896459595896304,0.023704846844822165
1761413480124388400,6.552388427734375,0.0718044224947691,0.036954058387875556,-0.022461861046403644
1761413480134401500,6.562401611328125,0.06992401557564736,0.026555121709406375,-0.0722878220975399
1761413480144415500,6.57241552734375,0.057338090246915815,0.013775646569952367,-0.09843078280948102
1761413480154428400,6.582428466796875,0.0489817653119564,0.01561155676022172,-0.10565941888876258
1761413480164441600,6.592441650390625,0.0396405209928751,0.017007468098029492,-0.07370769883282483
1761413480174454500,6.60245458984375,0.04783727145195007,0.04621295818574726,0.01287475220747292
1761413480184468500,6.612468505859375,0.00941606312096119,0.048890945223346347,0.05149615928567946
1761413480194481400,6.6224814453125,0.03853635914325714,0.2678448809891939,0.24382402699775993
1761413480204494600,6.63249462890625,-0.020901333731412886,0.22090696952976285,0.19859774176180361
1761413480214507500,6.642507568359375,-0.17357435966432094,-0.007117211594060063,-0.06560425268039106
1761413480224521500,6.652521484375,-0.10076280595362186,-0.09919292628839611,-0.266390006005764
1761413480234534400,6.662534423828125,-0.058013797551393506,-0.2400231734100729,-0.25931604903154076
1761413480244547300,6.67254736328125,0.012736731976270675,-0.2844198028888553,-0.2576029615033418
1761413480254560500,6.682560546875,0.089057755112648,-0.16830869422107933,-0.22445530966110527
1761413480264574500,6.692574462890625,0.14143676164746283,-0.07863726418949663,-0.1292720574054867
1761413480274587400,6.70258740234375,0.12586392946243286,-0.017943506839126346,-0.04558503554575145
1761413480284600600,6.7126005859375,0.08072247296571732,0.04344254362434149,-0.009497530859336257
1761413480294613500,6.722613525390625,-0.031069092002511022,0.027713424899056552,-0.010905059569701551
1761413480304627500,6.73262744140625,-0.1233481472492218,0.039555326927453276,-0.03662716452106833
1761413480314640600,6.742640625,-0.10082885692715644,0.06393083957545459,-0.016399857593700287
1761413480324653300,6.7526533203125,-0.05025251590013504,0.018425372071936726,0.011412059243768454
1761413480334666500,6.76266650390625,0.023215455892682074,0.024952070426940916,0.0225006952194497
1761413480344680400,6.772680419921875,0.09299567908346652,0.009939575538411736,0.03160710786934942
1761413480354693400,6.782693359375,0.1676069756925106,-0.02276420499384403,0.024392025391384957
1761413480364706600,6.79270654296875,0.18687983143925666,-0.0589251402426511,0.042063035432063044
1761413480374719500,6.802719482421875,0.14953355886340142,-0.07957637167051435,0.032823132595606146
1761413480384733400,6.8127333984375,0.10712474220097064,-0.054448871611431235,0.016873904846236108
1761413480394746600,6.82274658203125,0.04666179793179035,-0.02915858220607042,0.005110438348911703
1761413480404759300,6.83275927734375,-0.0013145897299051284,-0.00043744156919419764,-0.007175956043973565
1761413480414772500,6.8427724609375,-0.010669278052449226,0.008282894372567533,-0.010093268262781202
1761413480424785400,6.852785400390625,0.013466215294599532,0.021350684934109448,0.0047502267343923444
1761413480434799400,6.86279931640625,0.03378244261443615,-0.005340191984176635,0.024066812025010584
1761413480444812500,6.8728125,0.06449672982990741,-0.032927871611714364,0.028726291736029086
1761413480454825500,6.882825439453125,0.09607844752967357,-0.029322321400418877,0.0114974359722808
1761413480464838400,6.89283837890625,0.11361118161082268,-0.06773074331507087,0.012995894369110464
1761413480474852600,6.9028525390625,0.14087912776470182,-0.08136340121775865,0.04650006803143769
1761413480484865500,6.912865478515625,0.15842355228364466,-0.09587627602107822,0.044962811994180084
1761413480494878500,6.92287841796875,0.18505787670910356,-0.09221117764227092,0.05669833103865385
1761413480504891400,6.932891357421875,0.1856359688580036,-0.09931384925432503,0.02297295237369835
1761413480514905300,6.9429052734375,0.129556354239583,-0.0827118201520294,-0.0006169628545641899
1761413480524918500,6.95291845703125,0.07203413959741592,-0.04646203757598996,-0.006690145288407803
1761413480534931500,6.962931396484375,0.021031682112812995,-0.016932064774259924,-0.020839812802523373
1761413480544944600,6.972944580078125,-0.002006079125404358,-0.0026704613182693716,-0.00005611410140991211
1761413480554958000,6.9829580078125,-0.02297989357113838,0.019047011101618407,-0.004261676032468676
1761413480564971300,6.99297119140625,-0.025181787529587746,0.01582826825082302,0.019922697957605123
1761413480574984200,7.002984130859375,-0.029333646512031554,0.014431699325889348,0.022582710947096348
1761413480584997000,7.0129970703125,-0.019885434687137604,0.013386281926184893,0.056873906801268456
1761413480595011300,7.02301123046875,-0.03189735952019691,-0.01387874161824584,0.07432181214317679
1761413480605024000,7.03302392578125,-0.05298106408119201,-0.016779796821996568,0.08393127894438802
1761413480615037200,7.043037109375,-0.03618307401537895,-0.028726547464355826,0.10033172105997801
1761413480625050400,7.05305029296875,-0.011731938847899435,-0.039860228158161044,0.11247567477487028
1761413480635064000,7.06306396484375,-0.031056232520937917,-0.05382591740749776,0.09781330849826335
1761413480645077200,7.0730771484375,-0.06305880598127842,-0.08487491647005081,0.04285582977756858
1761413480655090200,7.083090087890625,-0.07444704595804214,-0.07618680229745804,-0.025168489656597376
1761413480665103000,7.09310302734375,-0.08456336630284786,-0.051709948166832324,-0.050413113289326426
1761413480675117300,7.103117431640625,-0.05813888523578643,-0.04651815167739987,-0.03840264976099133
1761413480685130200,7.113130126953125,-0.01732932046353817,-0.04316036568209529,-0.014237857254222035
1761413480695143200,7.12314306640625,-0.019049568384885786,-0.029978228025883433,0.02633029997758567
1761413480705156000,7.133156005859375,0.004650456154346466,-0.012031725512072444,0.0022510668624192475
1761413480715169300,7.143169189453125,0.0006727846950292587,-0.022815058398246765,-0.001868497285619378
1761413480725183200,7.153183349609375,0.023179215535521505,-0.02500570031031966,-0.01994191411472857
1761413480735196200,7.163196044921875,0.058441083052754396,-0.014337225975468755,-0.035556904941052195
1761413480745209300,7.173209228515625,0.07606207993924617,0.01788403173685074,-0.023130261827260256
1761413480755222000,7.183221923828125,0.1108779572546482,0.03404628118239343,-0.02540945880562067
1761413480765236200,7.193236328125,0.1576081442475319,0.014141191946715115,-0.06678885935507714
1761413480775249200,7.203249267578125,0.1543178705304861,0.008224807509779929,-0.07856083795242011
1761413480785262000,7.213261962890625,0.17740297804176805,-0.02305529689490795,-0.11343889378383755
1761413480795275300,7.223275146484375,0.20024492444694042,-0.05222571566924453,-0.09338065981306135
1761413480805289200,7.233289306640625,0.18979425758123397,-0.07568864351697266,-0.11776362511515617
1761413480815302100,7.24330224609375,0.19534078579246997,-0.08189129754938185,-0.14682524975277483
1761413480825315300,7.2533154296875,0.17433190003335475,-0.08570778709761798,-0.1356510909181088
1761413480835328000,7.263327880859375,0.1208382102549076,-0.0697792002774775,-0.1315728086285293
1761413480845342200,7.27334228515625,0.11249649836719035,-0.052024274813011286,-0.1185408930979669
1761413480855355100,7.283355224609375,0.12009937458634376,-0.05259622948206961,-0.0629783611562103
1761413480865368000,7.2933681640625,0.11245675087869167,-0.03561046175919473,-0.034850144911184905
1761413480875381200,7.30338134765625,0.04537292716503143,-0.0482040589377284,-0.029496216662600636
1761413480885394200,7.313394287109375,0.003500701597332954,-0.06244286604002118,-0.045047640733420845
1761413480895408000,7.323408203125,0.017612229058146477,-0.0766036394700408,-0.04150163868963718
1761413480905421300,7.33342138671875,0.023262802165746686,-0.06529737868830561,-0.01715016450434923
1761413480915434200,7.343434326171875,0.023172201272845267,-0.05988835925161838,0.01635397262535989
1761413480925447200,7.353447265625,-0.010877952367067336,-0.07057970300540328,0.02511215635947883
1761413480935461400,7.36346142578125,-0.051447863164544104,-0.05134747152999043,-0.014471227618679403
1761413480945474000,7.37347412109375,-0.08787176019847392,-0.002662570272758603,-0.01072641506716609
1761413480955487200,7.3834873046875,-0.08903846589028835,-0.018252134396880865,0.03289440773352981
1761413480965500200,7.393500244140625,-0.07082184119820595,-0.0009695756845176219,0.017038520823419095
1761413480975514000,7.40351416015625,-0.030003508597612378,0.02985971621274948,0.028741452772542832
1761413480985527300,7.41352734375,0.07731646391451358,0.03154920366965234,0.056499593596160406
1761413480995540200,7.423540283203125,0.13483166429400442,0.006301657427474856,0.08722958983741701
1761413481005553200,7.43355322265625,0.09409574927985667,-0.02903846295773983,0.060663873668760054
1761413481015567400,7.4435673828125,0.0877548558205366,0.007178367196768522,0.02531030928008258
1761413481025580300,7.453580322265625,0.06929097836911678,0.016419073750823736,0.06316942674890161
1761413481035593200,7.46359326171875,0.03589899637699127,0.002752586643770337,0.09778130592480301
1761413481045606100,7.473606201171875,0.04512392084002494,0.025171923722699285,0.10425758926682173
1761413481055620000,7.4836201171875,-0.0013344634741544723,0.049355640125647186,0.13302322663255034
1761413481065633300,7.49363330078125,-0.035874446457624436,0.04295271428078413,0.14263875784836708
1761413481075646200,7.503646240234375,0.0022007249146699906,0.026300270165503025,0.1210731149893254
1761413481085659400,7.513659423828125,0.028275077369809148,0.009407222227379679,0.1288359310105443
1761413481095672000,7.523672119140625,0.04040098397135734,0.007698080221936106,0.14316168574392796
1761413481105686300,7.533686279296875,0.034571547165513035,0.013249211543053387,0.15809585469923912
1761413481115699200,7.54369921875,0.01094400334060192,0.018798954624682663,0.17542948601171374
1761413481125712100,7.553712158203125,-0.027844284737110137,0.03671813074015081,0.15333243968971072
1761413481135725300,7.563725341796875,-0.059630585098266596,0.04726780100092291,0.12160466458275913
1761413481145739000,7.573739013671875,-0.1149041440308094,0.04222564211525023,0.11531944683343172
1761413481155752200,7.583752197265625,-0.14200725501179695,0.05166274802424013,0.08929112547710537
1761413481165765400,7.593765380859375,-0.10128010782599449,0.03795943603813648,0.06984072120636702
1761413481175778000,7.603778076171875,-0.043020811080932614,0.032999402477964755,0.08367445463910698
1761413481185792300,7.613792236328125,0.005256020832061767,-0.0020226649340242147,0.08716960327848791
1761413481195805200,7.62380517578125,0.020327917757630348,-0.030549890433996914,0.09670381288640201
1761413481205818000,7.633818115234375,0.006066168171167373,-0.04116393116787076,0.05671214036829769
1761413481215831300,7.643831298828125,0.05133329687416553,-0.0444586618643254,0.02336428977884352
1761413481225845000,7.653844970703125,0.07039397117495537,-0.06844437147714197,0.004628536583483219
1761413481235858200,7.663858154296875,0.11462181995809077,-0.10021335537731647,0.002735635508969426
1761413481245871400,7.673871337890625,0.155860423797369,-0.11041662335321306,0.02847476466037333
1761413481255884300,7.68388427734375,0.15308803647458552,-0.09815532686896622,0.03216075969673693
1761413481265897200,7.693897216796875,0.10268003775179385,-0.08330898232758045,0.028574206446856258
1761413481275911200,7.7039111328125,0.03593874386548996,-0.05619279266931116,0.017777941013872624
1761413481285924000,7.713924072265625,-0.012712766578793526,-0.07185534896440804,0.008252426169067621
1761413481295937300,7.723937255859375,-0.04957037885487079,-0.07816592035070061,0.010420490923151374
1761413481305950200,7.7339501953125,-0.02944236758351326,-0.08737279770039022,-0.0016387801829725504
1761413481315964200,7.743964111328125,0.04992576816380024,-0.10363529265001416,0.02263020335063338
1761413481325977000,7.75397705078125,0.08666647606194018,-0.12302855990603566,0.01476480373777449
1761413481335990300,7.763990234375,0.11341302869021892,-0.13851568656899035,0.016561331765726207
1761413481346003200,7.774003173828125,0.08482873924076556,-0.13882022247351705,0.0005513502724468708
1761413481356017200,7.78401708984375,0.03518061897456646,-0.14719737100079655,-0.02562441673055291
1761413481366030300,7.7940302734375,0.006370119553804397,-0.11820508527234196,-0.017749591702222824
1761413481376043000,7.80404296875,-0.04562777870893478,-0.09331497416570782,-0.0045584670219570396
1761413481386056200,7.81405615234375,-0.03869418005347252,-0.06676109456531704,0.028922654558345674
1761413481396070100,7.824070068359375,-0.035003508841991424,-0.04094795032963156,0.037351825533807274
1761413481406083000,7.8340830078125,-0.016627309674024583,-0.0313261355035007,0.03451309497654438
1761413481416096300,7.84409619140625,-0.02186053415238857,-0.01613185430727899,0.026433614221587777
1761413481426109200,7.854109130859375,-0.009290975436568259,-0.020307459491491316,0.07115326510965823
1761413481436122000,7.8641220703125,0.02747428238093853,-0.02660005682967603,0.1097782523844391
1761413481446136300,7.87413623046875,0.054151276904344556,-0.0170000885091722,0.10505948023423552
1761413481456149000,7.88414892578125,0.11292261482477188,-0.03327522374466061,0.10045074432976543
1761413481466162200,7.894162109375,0.13319558752477167,-0.0362516092069447,0.08529628368727862
1761413481476175400,7.90417529296875,0.14170330362915992,-0.035874519522860644,0.09880093129612505
1761413481486189000,7.91418896484375,-0.07949205438792704,-0.026040815511718392,0.07602204018980264
1761413481496202200,7.9242021484375,0.05316577299833297,-0.008012991390004753,0.027838001126796005
1761413481506215200,7.934215087890625,0.1808399667531252,-0.06651807958967983,0.12678214028589427
1761413481516228000,7.94422802734375,0.22256313923895357,-0.06520889668725431,0.14199790266156195
1761413481526242300,7.9542421875,0.16704583467841147,-0.015009864540025591,0.0978136007592082
1761413481536255200,7.964255126953125,0.10315642309188842,-0.018555062866210937,0.04384849407672882
1761413481546268200,7.97426806640625,0.028733927053213117,-0.06427117744572461,0.04099171640612185
1761413481556282000,7.9842822265625,-0.02763151876926422,-0.0716761199399829,-0.013005538980290292
1761413481566295800,7.9942958984375,-0.05457447075247764,-0.058911988500133156,-0.042767932298406953
1761413481576309000,8.00430908203125,-0.04093991315364837,-0.0758873809594661,-0.04415127641558647
1761413481586322000,8.014322021484375,-0.002056348007917404,-0.09323365255780518,-0.023952464930340648
1761413481596334800,8.0243349609375,0.07138064412474632,-0.0849194131989032,-0.0023513854317367077
1761413481606348000,8.03434814453125,0.09667699794471263,-0.095344214970991,0.010364522952213883
1761413481616362000,8.044362060546876,0.06802315039038657,-0.11413410950638353,-0.02407346096150577
1761413481626375000,8.054375,0.027615152156352994,-0.14429529288373888,-0.020447452484071253
1761413481636387800,8.064387939453125,0.015963877329230308,-0.143415733570233,-0.02539440736696124
1761413481646401000,8.074401123046876,-0.01618248851597309,-0.13836319942101835,-0.016222528265416623
1761413481656415000,8.0844150390625,-0.06385375575125217,-0.1308134416285902,-0.058386357190832495
1761413481666428000,8.094427978515625,-0.10948679515719413,-0.12737287272065878,-0.08326317042447626
1761413481676440800,8.10444091796875,-0.1126122337013483,-0.1086271826531738,-0.10301365362033248
1761413481686454000,8.1144541015625,-0.11582067435383796,-0.1040446771685034,-0.11255188181623815
1761413481696468000,8.124468017578126,-0.08688684081435204,-0.09008512539900838,-0.13658026152700184
1761413481706481000,8.13448095703125,-0.06963935341536999,-0.08234357136152684,-0.12892090588025748
1761413481716493800,8.144493896484375,-0.010561141502857207,-0.036022257430478925,-0.10127945023886858
1761413481726507000,8.154507080078124,0.036658290311694146,-0.03878689983822405,-0.08376717442385852
1761413481736520000,8.16452001953125,0.06780512372553348,-0.035272973433136935,-0.06330452437065541
1761413481746534000,8.174533935546876,0.06429506977796554,0.003829056768864393,-0.027027488461509347
1761413481756547000,8.184547119140625,0.07660626981854439,0.045602205876260994,0.006042056643217802
1761413481766559700,8.194559814453125,0.09360942706763743,0.05271050351150334,0.02763933674953878
1761413481776573000,8.204572998046874,0.12647358579337595,0.06508556256853043,0.06904109526127576
1761413481786587000,8.2145869140625,0.1542617564290762,0.06364274334907531,0.08780242128930986
1761413481796599800,8.224599853515626,0.14690437940359113,0.029835239358618853,0.1049102079566568
1761413481806613000,8.234613037109375,0.14940379500389098,0.017751564463600517,0.08819397789016366
1761413481816626000,8.2446259765625,0.16899872231185437,0.0027025369569659233,0.07024374904930591
1761413481826640000,8.254639892578124,0.13314414959847926,0.0013876549661159514,0.10057729331888259
1761413481836653000,8.264653076171875,0.09305822292566299,0.008882175439968705,0.09636237903758883
1761413481846666000,8.274666015625,0.06285597688555718,0.007295490770414471,0.05648023130856454
1761413481856679000,8.284678955078125,0.03559212238490581,0.006322700215503573,0.04825257425457239
1761413481866693000,8.294693115234375,0.029758009403944012,-0.0030353491079062223,0.0340608942296356
1761413481876705800,8.304705810546874,0.02775836001932621,-0.019063450779765845,0.036614962626621124
1761413481886719000,8.314718994140625,0.02939092965722084,-0.004955941906943917,0.049607422929629684
1761413481896732000,8.32473193359375,0.03075461922585964,-0.02327792666964233,0.06855367707051337
1761413481906744800,8.334744873046875,0.020716624814271927,-0.028697321369871496,0.0572023350380361
1761413481916759000,8.344759033203125,0.039838673913478846,-0.033378172662481664,0.03237082225084305
1761413481926772000,8.35477197265625,0.05570610513091087,-0.07102583933770656,0.009109846716001629
1761413481936785000,8.364784912109375,0.09811784440279006,-0.08045235078744589,-0.012118307816982268
1761413481946797800,8.3747978515625,0.1087432833135128,-0.10507818493470548,-0.028108780892193316
1761413481956812000,8.38481201171875,0.09353986896276474,-0.12451193033158778,-0.029794468956813213
1761413481966825000,8.394824951171875,0.06132569857835769,-0.10772037000656128,-0.04297149204649031
1761413481976838000,8.404837890625,0.024186346751451492,-0.0915393427953124,-0.028641207268461585
1761413481986851000,8.41485107421875,-0.003717559218406677,-0.09453516361042856,-0.01111176112294197
1761413481996865000,8.424864990234376,-0.05767886650860309,-0.059419864957034586,-0.015598916474357247
1761413482006878000,8.4348779296875,-0.08293897997140884,-0.031240649177134035,-0.01604198406673968
1761413482016891000,8.444890869140625,-0.04930617496073246,-0.026294132685661314,-0.026416955347731707
1761413482026903800,8.45490380859375,-0.011845336094498634,-0.05345927605219185,-0.0392854239448905
1761413482036917000,8.4649169921875,0.00897591813802719,-0.08679960092231631,-0.05203983770832419
1761413482046931000,8.474930908203126,0.03472060024738312,-0.1023009753063321,-0.056721273522824044
1761413482056943900,8.48494384765625,0.0443242948949337,-0.11022336580343543,-0.04806684242412448
1761413482066957000,8.49495703125,0.036601007166504856,-0.10941036892011761,-0.054019248022511596
1761413482076970000,8.504969970703126,0.02531388947665691,-0.11536883893311023,-0.043393589916080236
1761413482086984000,8.51498388671875,-0.009006313276290893,-0.08914894052743912,-0.042109249193966386
1761413482096997000,8.5249970703125,-0.06350947235822678,-0.0603347147796303,-0.02619958627000451
1761413482107009800,8.535009765625,-0.05382043751478195,-0.035450156630948186,-0.011911752394214272
1761413482117023000,8.54502294921875,-0.06064589962065219,-0.012816007757559419,0.014536767135560512
1761413482127037000,8.555036865234374,-0.05856032551825046,-0.012796791600435972,0.017279051581025124
1761413482137049900,8.5650498046875,-0.02214285822510719,0.014457199093326925,0.02541479256786406
1761413482147063000,8.57506298828125,0.011478256347775459,0.024205416778102517,0.03731390467621386
1761413482157076000,8.585075927734374,0.03752513627409935,0.009414601816236972,0.040441169851273294
1761413482167089000,8.5950888671875,0.034217326900362964,0.01212108429595828,0.04464066736772656
1761413482177103000,8.60510302734375,0.006579378390312194,0.0285690918803215,0.027229148513451217
1761413482187116000,8.615115966796875,-0.021723171508312225,0.015187632259726523,0.008921776797994972
1761413482197129000,8.62512890625,-0.02492109076678753,0.009835749837756156,-0.0019161358196288347
1761413482207142000,8.635141845703124,-0.00419803621172905,0.013672624586895107,0.017574746591970322
1761413482217155800,8.64515576171875,0.04893208095133304,-0.00879040550328791,0.007696180525794625
1761413482227169000,8.6551689453125,0.09401099360585212,-0.016724705633893607,0.024857816272228956
1761413482237182000,8.665181884765625,0.13051380109488964,-0.041099633760005236,0.044230479131639
1761413482247195000,8.67519482421875,0.1410287653684616,-0.06268252001479267,0.0638458647057414
1761413482257208800,8.685208740234375,0.1332949562460184,-0.06553659427165985,0.07090849656835198
1761413482267222000,8.695221923828125,0.13036883966624735,-0.0668701809629798,0.06238675193861126
1761413482277235000,8.70523486328125,0.12439561047554015,-0.07073102110959589,0.06190371766202151
1761413482287248000,8.715247802734375,0.1350900229692459,-0.05665339591838419,0.0849417711611837
1761413482297261000,8.725260986328125,0.13404372878670692,-0.05719977775476873,0.048402577184513206
1761413482307275000,8.73527490234375,0.10059680173695087,-0.05327610150501132,-0.003920461379364133
1761413482317288000,8.745287841796875,0.03132043641507625,-0.047980333184450864,0.0006835252847522497
1761413482327301000,8.755301025390626,-0.04161503593623638,-0.04498597367405891,-0.0032693039942532777
1761413482337313800,8.765313720703125,-0.1077934352427721,-0.024527049947902557,0.10363068954013288
1761413482347328000,8.775327880859376,-0.02092120747566223,0.035000293971598144,-0.029982685005292296
1761413482357341000,8.7853408203125,-0.02458031450510025,-0.0029120880544185636,0.004084785095602274
1761413482367353900,8.795353759765625,-0.02092822173833847,-0.03205335379950702,0.05255545908026397
1761413482377367000,8.805366943359376,0.004711246430873871,-0.021546572832390663,0.05158982891850173
1761413482387380700,8.815380615234375,0.020785013875365257,-0.0008824088577181101,0.04236563510783017
1761413482397394000,8.825393798828125,-0.01125204637646675,-0.016513327905535696,0.08703969328850507
1761413482407407000,8.835406982421874,-0.012057517540454863,0.025828122609108686,0.1210292758475989
1761413482417420000,8.845419921875,-0.042159810337424275,0.09328910907208919,-0.07114208612851798
1761413482427433000,8.855432861328126,-0.08583937758803367,0.018133476453274486,-0.009552402851730585
1761413482437447000,8.865447021484375,-0.06858896757960319,-0.017036986453458667,0.04222929537706077
1761413482447459800,8.8754599609375,-0.10522095440626143,0.023112726170569656,0.11595898684598505
1761413482457473000,8.88547314453125,-0.054905894663929936,0.14668357625976203,-0.049199353585392236
1761413482467486000,8.89548583984375,-0.008165186277031899,0.14824446890093385,-0.1480665550507605
1761413482477500000,8.9055,0.03159457718133926,0.023408348116278645,0.014073387407511472
1761413482487512800,8.915512939453125,0.08820084602236747,-0.004235518677905201,0.014890183683112262
1761413482497526000,8.925526123046875,0.13370178348124026,0.021256503844633696,-0.05289170529730618
1761413482507539000,8.9355390625,0.15893500893712043,0.0010356997232884167,-0.056315834527090186
1761413482517553000,8.945552978515625,0.16913316234648226,-0.05159253233224153,-0.03225925163514912
1761413482527566000,8.955566162109376,0.11647358530461788,-0.04188574263639748,0.09205518336296081
1761413482537579000,8.9655791015625,0.1406628546655178,0.09299246421307325,-0.20574030699282883
1761413482547592000,8.975592041015625,0.07161620644629,0.03240918149985373,-0.20165471817962824
1761413482557604600,8.9856044921875,0.0674076488405466,-0.04143310349807143,-0.12822766291908919
1761413482567618300,8.995618408203125,0.08156301544308663,-0.018945669618993997,-0.15721629538573323
1761413482577631500,9.005631591796876,0.1010182420194149,0.019568477692455052,-0.18633849110417067
1761413482587644700,9.015644775390625,0.10837561904489994,-0.009578779402002692,-0.16968816588073968
1761413482597657300,9.0256572265625,0.11553250506222247,-0.04309446083903312,-0.1532620778672397
1761413482607671600,9.035671630859374,0.10801847617030143,-0.043038785129040476,-0.156431574748829
1761413482617684500,9.0456845703125,0.0793769035756588,-0.03225121445916593,-0.13702442509792745
1761413482627697400,9.055697509765626,0.029052491483092305,-0.05292838404588401,-0.12400595357082783
1761413482637710600,9.065710693359375,-0.008242343166470528,-0.0628986469835043,-0.13821991849280893
1761413482647723500,9.0757236328125,-0.0057160395592451094,-0.05891038106493651,-0.12766988290585576
1761413482657737500,9.085737548828124,0.004638765716552734,-0.05758315104916691,-0.10312171710468829
1761413482667750700,9.095750732421875,0.04881576109528541,-0.04797463409602642,-0.06046396718248725
1761413482677763600,9.105763671875,0.09178162711858749,-0.07042487776987254,-0.03141206022128463
1761413482687776500,9.115776611328124,0.0895458308905363,-0.06797237005122006,-0.01397818340472877
1761413482697790500,9.12579052734375,0.07654957119524479,-0.08067907221540808,-0.008943550238385795
1761413482707803400,9.135803466796874,0.026721418187022207,-0.08689465879462659,-0.025960516817122695
1761413482717816600,9.145816650390625,0.030317981374263763,-0.07866605189256369,-0.013020005897060035
1761413482727829500,9.15582958984375,0.007428104174137115,-0.07646876104399561,0.0011628332342952488
1761413482737843500,9.165843505859375,0.015528408521413802,-0.050245940028876064,0.049322979965060944
1761413482747856400,9.1758564453125,-0.011244447591900825,-0.04736227435134351,0.07456818811967969
1761413482757869600,9.18586962890625,-0.031411037307977674,-0.03139671652168035,0.08091529212407768
1761413482767882500,9.195882568359375,-0.04048223251402378,-0.01632708461843431,0.08204941072054207
1761413482777895400,9.2058955078125,-0.024870237362384796,-0.013413023802638053,0.08810228101871907
1761413482787909600,9.21590966796875,-0.0019406126737594603,0.00283273920789361,0.08938537963181734
1761413482797922300,9.22592236328125,0.040758711367845535,0.008934782410040497,0.10430135534331202
1761413482807935500,9.235935546875,0.09050561583340168,-0.022014336474612355,0.13913184570595621
1761413482817948700,9.24594873046875,0.07142740587592125,0.03338211818523705,0.14935440290421248
1761413482827962400,9.25596240234375,-0.02570610366463661,0.0710476858433336,0.2782298622075468
1761413482837975600,9.2659755859375,0.033064065212011336,0.1117866695974022,0.08892499557845294
1761413482847988500,9.275988525390625,0.0064268181771039955,0.06742328480109572,-0.021837810863927005
1761413482858001400,9.28600146484375,0.0004921674311161041,-0.022657237488031386,0.06292078575007617
1761413482868014600,9.2960146484375,0.030908348482847212,-0.03014847002625465,0.07339819449223578
1761413482878028300,9.3060283203125,0.0815291131734848,-0.0030390754349529743,0.028490619816631077
1761413482888041500,9.31604150390625,0.11771569432020186,0.002034866828471422,0.02273132563754916
1761413482898054700,9.3260546875,0.15168752202689648,-0.017935177402198313,0.06535049711503088
1761413482908067600,9.336067626953126,0.17015782921910286,-0.018388108801469207,0.05144267553277313
1761413482918081500,9.34608154296875,0.14899112254977226,-0.03266827082745731,0.03262932705655694
1761413482928094500,9.356094482421875,0.11111994931697845,-0.03657441142052412,0.006795943750441074
1761413482938107400,9.366107421875,0.08954232375919818,-0.034307708597555754,-0.013770239742472767
1761413482948120600,9.37612060546875,0.06713058546483516,-0.05353022239655256,-0.05860811018273234
1761413482958134500,9.386134521484376,0.047158641538023946,-0.05323525803796947,-0.07615501891970634
1761413482968147500,9.3961474609375,0.0022270283997058867,-0.08947181580625474,-0.10404496942944824
1761413482978160400,9.406160400390625,-0.05418634821772575,-0.10394793879576027,-0.14423435647673905
1761413482988173600,9.416173583984374,-0.09981938762366771,-0.11746091584153473,-0.1271901365648955
1761413482998186500,9.4261865234375,-0.05937631807625293,-0.0779201288960874,-0.1386456696242094
1761413483008200400,9.436200439453126,0.028645664247870444,-0.08279372628182172,-0.19554098453968763
1761413483018213600,9.446213623046875,0.03224105839133262,-0.10948796420097351,-0.0964641589116305
1761413483028226300,9.456226318359375,0.05908464165329933,-0.039910497040674085,-0.12841565977185965
1761413483038239500,9.466239501953124,0.10401040957272052,-0.03451411788985133,-0.10328056092821061
1761413483048252700,9.476252685546875,0.13974983147382736,-0.051482423021271824,-0.0838108674351126
1761413483058266400,9.486266357421876,0.13069967905580998,-0.033178412306681275,-0.05830554703958332
1761413483068279600,9.496279541015625,0.08344809853732585,-0.0013340981479734182,-0.08538352357931435
1761413483078292500,9.50629248046875,0.01376432145833969,-0.0057643356803804635,-0.08262772206515073
1761413483088305400,9.516305419921874,-0.025512042397260664,0.006152385149896145,-0.06887918269783258
1761413483098319600,9.526319580078125,-0.04559387643933296,0.007558379490301013,-0.060362771830335255
1761413483108332300,9.536332275390626,-0.01862988166809082,0.03206650554202497,-0.053154155625775454
1761413483118345500,9.546345458984375,0.037224692022800446,0.007985445795953273,-0.030415377334132788
1761413483128358400,9.5563583984375,0.07974515236616134,0.013002981697022914,0.0001910655926913023
1761413483138372400,9.566372314453124,0.13978022661209105,0.00424340972341597,0.035126112308353184
1761413483148385500,9.576385498046875,0.12347732658684253,0.007527911286801099,0.06307049641907214
1761413483158398500,9.5863984375,0.12063830376863478,0.0029869799215346575,0.09481485733464359
1761413483168411400,9.596411376953125,0.11360767447948455,0.006675093849748372,0.08494863929338753
1761413483178424600,9.606424560546875,0.11225801343619823,0.026516908590868114,0.0755808722935617
1761413483188438500,9.6164384765625,0.0983294413268566,0.029497312641143796,0.10218867403827607
1761413483198451500,9.626451416015625,0.08093582345545292,0.021823417012393473,0.09981609968803823
1761413483208464400,9.63646435546875,0.06397825891375541,0.007531564548611641,0.09314188262112438
1761413483218477600,9.6464775390625,0.062303019177913664,-0.0037120793256908654,0.06813947024643421
1761413483228491500,9.656491455078125,0.05631342337429523,-0.052126273882761594,0.030534692864865064
1761413483238504400,9.66650439453125,0.025202245795726774,-0.06816131675206125,0.04305573626384139
1761413483248517600,9.676517578125,0.0066845923304557795,-0.08252024310268462,0.04054821042232215
1761413483258530300,9.6865302734375,-0.030050854870676994,-0.06177782626003027,0.033099867177754635
1761413483268544500,9.69654443359375,-0.047777065697312354,-0.055527533693611617,0.04976297881752252
1761413483278557400,9.706557373046875,-0.10507190132439136,-0.06530899606086313,0.045680531809478994
1761413483288570400,9.7165703125,-0.1286380703508854,-0.05445405924320221,0.018793036340549588
1761413483298583600,9.72658349609375,-0.10919044255912304,-0.044496582721918816,0.012905366541445255
1761413483308596500,9.736596435546875,-0.05899228719472885,-0.0739599930934608,0.006683496351912618
1761413483318610400,9.7466103515625,-0.0010503858357667922,-0.0735218208719045,0.03823372293487191
1761413483328623600,9.75662353515625,0.04719079024195671,-0.0744562521778047,0.032571532454714176
1761413483338636300,9.76663623046875,0.07530687765777111,-0.09472805583402513,0.01772518791332841
1761413483348649500,9.7766494140625,0.0424725295484066,-0.10428133546859025,-0.026024521964043378
1761413483358663700,9.78666357421875,0.04219312808513641,-0.09653729721307754,-0.05207549354359507
1761413483368676400,9.79667626953125,0.060953942656517025,-0.07502345760650932,-0.04861519702188671
1761413483378689500,9.806689453125,0.07777063742280006,-0.05142937765978276,-0.053586994085088366
1761413483388702500,9.816702392578126,0.09667992055416107,-0.035702231695875525,-0.02617942026481032
1761413483398715400,9.82671533203125,0.08579203131496906,-0.008704626915976404,-0.022639921027049422
1761413483408729600,9.8367294921875,0.04091068705916404,-0.009632117024436592,-0.020107406874746082
1761413483418742500,9.846742431640624,0.004107435318827629,-0.0038610593423247337,0.003801365044340491
1761413483428755500,9.85675537109375,-0.0072808046579360955,0.00026252339370548723,-0.0034740327861160036
1761413483438768400,9.866768310546876,0.023619360518455503,0.010418006705120206,0.001095101760327816
1761413483448782300,9.8767822265625,0.07124795765578747,-0.009259192058816552,0.037385435542464256
1761413483458795500,9.88679541015625,0.10106383472681045,-0.01445223065726459,0.04232486470602453
1761413483468808400,9.896808349609374,0.09994505982995033,-0.01940400784574449,0.02138663303032517
1761413483478821600,9.906821533203125,0.08730009779036045,-0.025265228029340503,0.013639452969655394
1761413483488834300,9.916834228515626,0.0424421344101429,-0.02791296605914831,0.012860285290703176
1761413483498848500,9.9268486328125,-0.015295768809318542,-0.005479162063449621,-0.011579451699927449
1761413483508861400,9.936861328125,-0.02916647325158119,0.011140694956481456,-0.0027981793511658907
1761413483518874400,9.946874267578124,-0.036132220610976214,0.019828078476712106,0.016032193325087426
1761413483528887600,9.956887451171875,-0.01738543456494808,0.013845423870533703,0.029713878001272676
1761413483538901500,9.966901611328124,0.009115034347772598,0.014495193016156553,0.047223815728724
1761413483548914400,9.97691455078125,0.04946633395850658,-0.002723360549286008,0.04315086720138788
1761413483558928100,9.98692822265625,0.06145838504731655,-0.02700929521769285,0.029939941842108964
1761413483568940800,9.99694091796875,0.07802081279158592,-0.06289236337319017,0.0230475519798696
1761413483578954000,10.0069541015625,0.07672492776215076,-0.07764964139163494,-0.0006564911473542452
1761413483588968000,10.016968017578124,0.137411743915081,-0.07932035108283161,-0.008054273248463868
1761413483598980900,10.02698095703125,0.2060708541214466,-0.0786268889259547,0.020696678004786372
1761413483608994000,10.036994140625,0.1922492495179176,-0.07192534546069801,0.032954175096750256
1761413483619007000,10.047007080078124,0.1602776557177305,-0.046034679009392857,0.05584361390545964
1761413483629021000,10.05702099609375,0.0920078370898962,-0.01486424552425742,0.03723134095929563
1761413483639034000,10.0670341796875,0.017663082462549207,0.012680910135805606,0.0469922719951719
1761413483649046800,10.077046875,-0.03720657184422016,0.05686440832056105,0.06291713248826562
1761413483659060000,10.08706005859375,-0.06480711095333098,0.10252455492913723,0.04925510236062109
1761413483669073000,10.097072998046874,-0.03701017248928547,0.10816036885902285,0.023405352441594002
1761413483679086800,10.1070869140625,0.0299415492773056,0.10805931963734328,0.023395123308524488
1761413483689100000,10.11710009765625,0.1427057586699724,0.06922237011231482,0.021329788276553154
1761413483699113000,10.127113037109375,0.1491670636385679,0.02753587637506425,0.04382292124405503
1761413483709126000,10.1371259765625,0.07690905215740203,0.011664645765349268,0.03224989928491413
1761413483719140000,10.14714013671875,0.01150046817958355,0.034885289289802314,0.0061973202701658
1761413483729153000,10.157153076171875,-0.029358780953288078,0.020873642006888984,0.00018975041843950747
1761413483739166000,10.167166015625,-0.04952770875692367,0.0280141614113003,0.0038699002359062432
1761413483749179000,10.177178955078125,-0.061244450035691254,0.030397476351261138,0.016038257739692925
1761413483759192000,10.187192138671875,-0.07680500726103782,0.027762524737790225,-0.00035867724455893035
1761413483769206000,10.1972060546875,-0.07846680299341678,0.034857634097896516,-0.012276859379559754
1761413483779219000,10.207218994140625,-0.08620119663774967,0.0003229848766699433,-0.033616365332528944
1761413483789232000,10.217232177734376,-0.12097966455221175,-0.015831336990743874,-0.04606514721289277
1761413483799244800,10.227244873046875,-0.1293470954030752,-0.013674122424237429,-0.05230214190632104
1761413483809259000,10.237259033203125,-0.09880115049183368,0.01455262229181826,-0.025092428745701906
1761413483819272000,10.24727197265625,-0.07125204930901527,-0.00017444325145334004,-0.04731865440532565
1761413483829284900,10.257284912109375,-0.07182195815145968,-0.01933569184988737,-0.05011106160283088
1761413483839298000,10.267298095703126,-0.06604220570623874,-0.059191243832930916,-0.05331541060209274
1761413483849311000,10.27731103515625,-0.02983575081527233,-0.06040946051627397,-0.058863253987580536
1761413483859325000,10.287324951171875,0.00820259567797184,-0.07087057571075857,-0.05484050127752125
1761413483869338000,10.297338134765624,0.06259878725409507,-0.09363631507456302,-0.052445642030239104
1761413483879350800,10.307350830078125,0.10658698206245898,-0.08859298714511096,-0.029230551463738083
1761413483889364000,10.317364013671876,0.12727554982602596,-0.06167378136366605,-0.0058376201122999185
1761413483899378200,10.327378173828125,0.13223930971324444,-0.031477818933874364,0.014281477200239897
1761413483909390800,10.337390869140625,0.14743687884509563,-0.00014342705868184566,0.019028817857801913
1761413483919404000,10.347404052734374,0.12704933985471725,0.029245822098106142,0.03229344616569579
1761413483929417000,10.3574169921875,0.0710544809103012,0.02703852131217718,0.032514541570469735
1761413483939430000,10.367429931640626,0.04417757990062236,0.0023114187475293873,-0.054825522904098034
1761413483949444000,10.377444091796875,0.22154139497578143,-0.007522723655030131,-0.05833630750402808
1761413483959457000,10.38745703125,0.3311059315443039,-0.03723367904685437,0.007062924123555421
1761413483969470000,10.397469970703124,0.28572306750714777,-0.041310938423126935,0.04451828309707343
1761413483979483000,10.40748291015625,0.10295242495238781,0.03228175572790205,0.004333864485844969
1761413483989496800,10.417496826171876,-0.09762275436222553,0.03591711655557155,0.00048639527745544906
1761413483999510000,10.427510009765625,-0.2392360416203737,0.06488843256123364,-0.0603536386758089
1761413484009523000,10.43752294921875,-0.3290437383174896,0.10866327687986195,-0.05471614424549043
1761413484019536100,10.4475361328125,-0.32405484398901463,0.1636713167440146,-0.04500767404921353
1761413484029548800,10.457548828125,-0.21145897690057752,0.16605689670629797,0.04737418398484587
1761413484039563000,10.46756298828125,-0.05336100330948829,0.14299641217961906,0.08272847902588545
1761413484049576000,10.477575927734375,0.07720774284303188,0.06922573111318052,0.06727656980678438
1761413484059588900,10.4875888671875,0.16504150911867618,0.024955139166861772,0.07226714463569224
1761413484069602000,10.49760205078125,0.17026187411546706,-0.01656345065757632,0.029421909317374227
1761413484079616000,10.507615966796875,0.17052724705338476,-0.04648804880008101,0.03261244898699224
1761413484089629000,10.51762890625,0.12659575086832045,-0.041272213847935196,0.004329845897853374
1761413484099642000,10.52764208984375,0.11185878498554229,-0.027625015963241455,-0.008964666091650723
1761413484109654800,10.53765478515625,0.12872282602488994,-0.023582024182751772,-0.0336909649387002
