time,seconds_elapsed,z,y,x
1761413441401598000,0.077597900390625,0.42908992043435573,-0.14569858381040393,0.04312412532493472
1761413441411612000,0.08761181640625,0.5185375516474247,-0.21733239897862075,0.051452539339661596
1761413441421624800,0.097624755859375,0.5358090044438839,-0.26177695925235744,0.0752993519384414
1761413441431639000,0.10763916015625,0.48739364084303377,-0.3210288472313434,0.09183211519680917
1761413441441651700,0.117651611328125,0.42365912755727764,-0.3231669552385807,0.13414054022468624
1761413441451666000,0.127666015625,0.309803615796566,-0.2804492918226868,0.15412022906653583
1761413441461679000,0.13767919921875,0.1966337482124567,-0.26941198417544365,0.10820486558787525
1761413441471692800,0.14769287109375,0.07535773106217383,-0.23639131971374153,0.03386858652792871
1761413441481706800,0.157706787109375,-0.0276847102612257,-0.14969094138219952,-0.059251230391860005
1761413441491720000,0.167719970703125,-0.07341361125707625,-0.07669402116723358,-0.11014372469596564
1761413441501734000,0.17773388671875,-0.08397416823804378,-0.025771423985809085,-0.12648885642774402
1761413441511746000,0.18774609375,-0.11644728181958199,0.03653057227879762,-0.14798640248663722
1761413441521760300,0.19776025390625,-0.11315759262442589,0.09432656236104667,-0.16421550662331283
1761413441531773400,0.2077734375,-0.09584931494891644,0.14943660129494965,-0.11262326655201613
1761413441541787100,0.217787109375,-0.030986089894175527,0.16277053197938948,-0.01557882353439927
1761413441551800300,0.22780029296875,0.0369826999604702,0.20242588521521537,0.10555296283960341
1761413441561814300,0.237814208984375,0.011477087303996086,0.23526520176064222,0.16063560230992732
1761413441571827200,0.2478271484375,-0.14397592473626136,0.3144356229787692,0.16027034919410943
1761413441581841200,0.257841064453125,-0.3533312073558569,0.37976547916457054,0.09595146014913916
1761413441591854300,0.267854248046875,-0.4772884264141321,0.3881895355734974,0.02105009455233812
1761413441601868000,0.277867919921875,-0.6300222426235675,0.3368274875288829,-0.04046228570453823
1761413441611881200,0.287881103515625,-0.8006330763071775,0.30241156931649893,-0.11792962933182716
1761413441621895400,0.2978955078125,-0.8453197747737169,0.3321827304629609,-0.1681017734721303
1761413441631908000,0.307908203125,-0.8020867822468281,0.316434212917462,-0.16353863027505575
1761413441641922300,0.31792236328125,-0.639835196107626,0.23403109338842332,-0.17273074844703076
1761413441651936300,0.327936279296875,-0.36359015104174613,0.14557634567022323,-0.19305121355056762
1761413441661949200,0.33794921875,-0.052912675020098686,0.05575790838338435,-0.16473616949655115
1761413441671963100,0.347963134765625,0.17664894480407237,-0.008644494226574897,-0.11563180071823298
1761413441681976300,0.357976318359375,0.27493571603298184,-0.04918269471153617,-0.03603913550004363
1761413441691990300,0.367990234375,0.27069617876708507,-0.06443082498684526,-0.05081818695887923
1761413441702003200,0.378003173828125,0.1624701973259449,-0.07217643414493649,-0.10439064106196165
1761413441712017400,0.388017333984375,0.09413666581213474,-0.06725910721533,-0.1624817416332662
1761413441722030000,0.398030029296875,0.12462708114385604,-0.09203395791184156,-0.20102708780057726
1761413441732044300,0.408044189453125,0.26444763976633545,-0.14734054233115165,-0.2571407508190721
1761413441742057200,0.41805712890625,0.44301615445613857,-0.2481720296068117,-0.28569954050108787
1761413441752071200,0.4280712890625,0.5561527042925357,-0.3296944573111832,-0.2883097960647195
1761413441762084400,0.43808447265625,0.627160423451662,-0.39710667272899297,-0.25181188394650816
1761413441772098300,0.448098388671875,0.5954062717944383,-0.4257221610343083,-0.1788215396028012
1761413441782111200,0.458111328125,0.5716711759418249,-0.43778267424944783,-0.1038793305389583
1761413441792125200,0.468125244140625,0.5218108742296695,-0.4311957336071878,-0.052867812965065236
1761413441802138400,0.478138427734375,0.4732680848568678,-0.4331505574693903,0.021923077994585035
1761413441812152000,0.488152099609375,0.38783261189460755,-0.47104558650180695,0.038576764218881725
1761413441822165200,0.498165283203125,0.2801718631207943,-0.4678277204338461,0.013170556816272437
1761413441832179200,0.50817919921875,0.16617548158466816,-0.4253336731733754,-0.017352043751999734
1761413441842193400,0.518193359375,0.03144961575269699,-0.3578340352004394,-0.025152744098193944
1761413441852206300,0.528206298828125,-0.12522446251511574,-0.2973538475355133,-0.046757440325990315
1761413441862220300,0.53822021484375,-0.290551218315959,-0.2009969849232584,-0.1170340687315911
1761413441872233200,0.548233154296875,-0.4215571868419647,-0.0558467191779986,-0.19386910580471156
1761413441882247200,0.5582470703125,-0.5062450563073158,0.07268284929711372,-0.14288155362829566
1761413441892260400,0.56826025390625,-0.5092267024666071,0.19190171472188083,-0.05878288222774863
1761413441902274300,0.5782744140625,-0.44962242085337634,0.31098062368668616,0.024206293560937047
1761413441912287200,0.588287353515625,-0.3570364916145801,0.39440570667460556,0.08294942830018699
1761413441922301200,0.59830126953125,-0.23229601322412488,0.45084904003888365,0.11550086781494319
1761413441932314000,0.608314208984375,-0.15531214226484297,0.43576464895792305,0.14176986605934797
1761413441942328300,0.618328369140625,-0.17731120810508727,0.3719840315081179,0.14411723290309308
1761413441952341200,0.62834130859375,-0.24468203206658362,0.3007487872034311,0.06830342863649129
1761413441962355500,0.63835546875,-0.35647651964426036,0.18718699769228694,0.02490085169635713
1761413441972368100,0.6483681640625,-0.4410165050715208,0.12631218468658625,-0.0014098667979240416
1761413441982382300,0.65838232421875,-0.47556116423010825,0.09353446213528513,-0.03268098417855799
1761413441992396300,0.668396240234375,-0.35967619246840477,0.058762277831137175,-0.04154591622278094
1761413442002409200,0.6784091796875,-0.17367314386367796,0.012339184026047587,-0.029451062346622345
1761413442012423200,0.688423095703125,0.036009471014142036,-0.08912285623811185,0.035360432520881294
1761413442022436000,0.69843603515625,0.19145546879172323,-0.2124854704041034,0.10056911001242697
1761413442032450300,0.7084501953125,0.2956254528403282,-0.26646263285055755,0.15111571348831057
1761413442042463200,0.718463134765625,0.31296061852276325,-0.32207506834864613,0.17922456744574009
1761413442052477400,0.7284775390625,0.27503976092934607,-0.36320685081258414,0.17738661142885684
1761413442062490000,0.738489990234375,0.21462533197700975,-0.37104404724426565,0.18873897637464104
1761413442072504300,0.74850439453125,0.12994096964299678,-0.37727505058832467,0.176415574439615
1761413442082517200,0.758517333984375,0.028632220244407654,-0.3756436499942094,0.11529555450119078
1761413442092531200,0.76853125,-0.07496493235230445,-0.3262812148015946,0.032060733388364314
1761413442102544400,0.77854443359375,-0.1431073252081871,-0.253002993427217,-0.01835997868552804
1761413442112558300,0.788558349609375,-0.17172960858047007,-0.1616007940802723,-0.0357000397387892
1761413442122571300,0.7985712890625,-0.17322072392106055,-0.09471139696016907,0.004854527359083294
1761413442132585200,0.808585205078125,-0.15336509985029698,-0.006639438014477491,0.07448745103366673
1761413442142598100,0.81859814453125,-0.13224164780080316,0.06283339972756803,0.13371727331131697
1761413442152612000,0.828612060546875,-0.12125438984036445,0.07791596417762339,0.15949614995121955
1761413442162625300,0.838625244140625,-0.06879471928477286,0.10423201643414795,0.1307202103871852
1761413442172639500,0.848639404296875,0.00021101240217685698,0.12153203773796557,0.10120419304557145
1761413442182652200,0.858652099609375,0.05632102215886116,0.0967192296512425,0.10002813500352203
1761413442192666400,0.868666259765625,0.1420177764058113,0.042094270820543164,0.08586714237779379
1761413442202680300,0.878680419921875,0.21416355968415735,0.01637326184771955,0.08797602429054677
1761413442212693200,0.888693359375,0.318988792771101,-0.008665317818894982,0.10174947890341281
1761413442222707200,0.898707275390625,0.3788268831402063,-0.05947386016659438,0.08426138768158853
1761413442232720400,0.908720458984375,0.40608313885629177,-0.08910466299429536,0.09291728008501231
1761413442242734000,0.918734130859375,0.4213718934029341,-0.06589870558232068,0.08694441622048615
1761413442252747300,0.928747314453125,0.4194271890759468,-0.057301484563574194,0.053490913299471136
1761413442262761500,0.938761474609375,0.3698340138673782,-0.02984831803590059,0.0002446224108338356
1761413442272774100,0.948774169921875,0.3216886993795633,-0.04584792426563799,-0.003499605618789792
1761413442282788400,0.958788330078125,0.26822131308615205,-0.05010813899338245,-0.0006833791542798281
1761413442292801000,0.968801025390625,0.1530938816934824,-0.06209960556030273,0.029445874714851376
1761413442302815200,0.978815185546875,-0.005883212819695473,-0.06271905263289809,0.07746800121441483
1761413442312828400,0.988828369140625,-0.1818453444033861,-0.031237726567685604,0.0549536062631756
1761413442322842400,0.99884228515625,-0.34439912835955616,0.002017550367489457,0.034484891795367
1761413442332855300,1.008855224609375,-0.46518297807872294,0.01044957088716328,0.01579378145933151
1761413442342869200,1.018869140625,-0.5077098681628703,0.02468070613965392,-0.04492313757091761
1761413442352882200,1.028882080078125,-0.48733752674162384,0.06313581674024463,-0.12097060446292161
1761413442362896100,1.038896240234375,-0.3874427357941866,0.0988438205897808,-0.15670593471080063
1761413442372909300,1.048909423828125,-0.21720891872942447,0.0820536485042423,-0.11278116052746773
1761413442382923300,1.05892333984375,-0.057274377360939974,0.04802607202231884,-0.04132971618883312
1761413442392937200,1.068937255859375,0.04795534487366676,0.0332326267119497,-0.012441110030561685
1761413442402950400,1.078950439453125,0.09000935674905776,0.00998874844238162,0.043626083497703076
1761413442412964400,1.08896435546875,0.06856324861645698,0.008114259807392955,0.06084361414983868
1761413442422977300,1.098977294921875,0.04399053289592266,0.004640738477930426,0.06047901862114668
1761413442432991200,1.1089912109375,0.029569793355464932,0.02202631917335093,0.06205196702629327
1761413442443004400,1.11900439453125,0.06227028595209121,0.020800101846642792,0.047888197921589014
1761413442453018000,1.12901806640625,0.08000877173840999,0.00023632950652390718,0.04680485966429114
1761413442463031300,1.13903125,0.10202829584479331,-0.027910189580172298,0.026668592021241784
1761413442473045200,1.149045166015625,0.14537059396505356,-0.011101020533218979,0.005452566317468881
1761413442483058200,1.15905810546875,0.17325988688766955,-0.004099909599497914,0.015511676582321523
1761413442493072400,1.169072265625,0.16025544388592242,-0.004209507453814149,0.019407149650901553
1761413442503085300,1.179085205078125,0.18139350898265838,0.006301474764384329,0.02983940407708287
1761413442513100000,1.18910009765625,0.18585341100096703,0.011171199692599474,0.09422196947541088
1761413442523113000,1.199113037109375,0.14405834232270717,-0.005596212571859359,0.15211904531195758
1761413442533127200,1.209127197265625,0.07204173838198184,-0.014782193263992667,0.13902330729756504
1761413442543139800,1.219139892578125,0.0038718729972839353,0.015937464246340096,0.08083970613721758
1761413442553154000,1.229154052734375,-0.04425532131195068,0.05801496659517288,0.05327884145136922
1761413442563167000,1.2391669921875,-0.05612871445715427,0.06670070614758879,0.047772426054812966
1761413442573181000,1.249180908203125,-0.08491583300232887,0.0851881106050685,0.006212810100242495
1761413442583194000,1.259194091796875,-0.0629986002266407,0.10859627605825661,-0.020554931446537375
1761413442593208000,1.2692080078125,-0.012730302235484122,0.088174688667804,0.006192972888611256
1761413442603221000,1.279220947265625,0.10250877283811569,0.032167225970141586,0.02842833170276135
1761413442613235000,1.28923486328125,0.23165713079869746,-0.01291336718481034,0.027142602741159497
1761413442623249200,1.299249267578125,0.26016192527115345,-0.1033338254854083,-0.0042266047190874815
1761413442633261800,1.30926171875,0.1985235074818134,-0.12085293290000408,-0.04937167794499546
1761413442643276000,1.319276123046875,0.07142448326647281,-0.11674264803696423,-0.05033336258400231
1761413442653289000,1.3292890625,-0.050911272069811817,-0.10902155226562171,-0.053413537214323875
1761413442663303000,1.339302978515625,-0.1423135444819927,-0.09662099344115704,-0.06711447458025067
1761413442673316000,1.349316162109375,-0.18840134191811084,-0.09370981870219111,-0.0556914555510506
1761413442683330000,1.359330078125,-0.1829746406942606,-0.08656012961063533,-0.03152501907646656
1761413442693343000,1.369343017578125,-0.12078911041617393,-0.09720496734157204,-0.04617620637193322
1761413442703357000,1.37935693359375,-0.05942600243687629,-0.1344459894446656,-0.07196896540671587
1761413442713370000,1.3893701171875,-0.049288639304041856,-0.14660539645701645,-0.1035869234636426
1761413442723383800,1.3993837890625,-0.08360591944754123,-0.1641281936660409,-0.15469079549610615
1761413442733397000,1.40939697265625,-0.19554127680063246,-0.171369835357368,-0.19489727980867028
1761413442743411000,1.419410888671875,-0.30266426543593405,-0.14204371456466613,-0.2182048709642142
1761413442753424000,1.429423828125,-0.36480478752851486,-0.10830222501512617,-0.24623284170515833
1761413442763438000,1.43943798828125,-0.36190497443377967,-0.058894124049879606,-0.24721454621888694
1761413442773451000,1.449450927734375,-0.3101350397080183,-0.039871114878356456,-0.19319938984960316
1761413442783465000,1.45946484375,-0.17197043159902095,-0.04366689043212682,-0.12464395921342074
1761413442793478000,1.469477783203125,-0.006017652854323386,-0.054747671894915396,-0.07104644373431801
1761413442803492000,1.4794921875,0.16940321145951748,-0.0803869208684191,-0.015295330417901277
1761413442813505000,1.489505126953125,0.33622517425417897,-0.1195623085675761,0.039663463477045295
1761413442823519000,1.49951904296875,0.49677872430384157,-0.16672098663821816,0.10469729585833847
1761413442833532200,1.5095322265625,0.5921224278181791,-0.20768117539491504,0.1674300847556442
1761413442843545900,1.5195458984375,0.6448813735812902,-0.2411031506665051,0.2063164994455874
1761413442853560000,1.52956005859375,0.6477654045850039,-0.26145466849543153,0.25009090537279843
1761413442863573000,1.539572998046875,0.5748761094629764,-0.24592790394183248,0.2543739164542407
1761413442873587000,1.5495869140625,0.4533107539772987,-0.2433687209783122,0.249014654443413
1761413442883600000,1.559599853515625,0.32620939167439933,-0.1956879187297076,0.26817572037875653
1761413442893614000,1.569614013671875,0.21024667850136755,-0.16739077565856278,0.32326858898214994
1761413442903627000,1.579626953125,0.08132336146831512,-0.1383972112884745,0.33441147589571774
1761413442913641000,1.589640869140625,-0.03761632168889045,-0.08654518776983022,0.310099237742275
1761413442923654100,1.599654052734375,-0.1578296780437231,-0.0552337383788079,0.27592319270037113
1761413442933667800,1.609667724609375,-0.23862112459242343,-0.03214903272632509,0.2808355877265334
1761413442943681000,1.619680908203125,-0.28402503141760826,-0.0015516864214092491,0.2551012078154832
1761413442953695000,1.629695068359375,-0.3167839762032032,-0.003108670072443783,0.23454160019382833
1761413442963708000,1.6397080078125,-0.3413292193949222,0.018234598740190268,0.18498773408234118
1761413442973721900,1.649721923828125,-0.350645329272747,0.010145217645727097,0.14845124351941047
1761413442983735000,1.659735107421875,-0.30319618035554885,0.02027162099312991,0.16253551764711738
1761413442993749000,1.6697490234375,-0.19921382783353328,0.03120861007105559,0.1950797237034887
1761413443003762000,1.679761962890625,-0.11642273190021514,0.035133674560301004,0.24072080028541384
1761413443013776100,1.689776123046875,-0.07628536730110645,0.03907649390194565,0.2665763954233378
1761413443023789000,1.6997890625,-0.08897007682919501,0.056974444566294545,0.25160028702244164
1761413443033803000,1.709802978515625,-0.12950199370384216,0.0628568902010098,0.23381964259482918
1761413443043816200,1.719816162109375,-0.182311792871356,0.0695456837825477,0.18503763763867317
1761413443053830000,1.729829833984375,-0.19325930334329605,0.07447159587740898,0.12993074050992726
1761413443063843000,1.739843017578125,-0.12884382205605507,0.05608220843430608,0.14701200449652968
1761413443073857000,1.74985693359375,-0.03404197033345699,0.027165874018892644,0.1576285659810528
1761413443083870000,1.759869873046875,0.07561024451851844,0.01898735333625227,0.08416011926420032
1761413443093884000,1.7698837890625,0.17753332642316816,-0.033114151431433855,0.019853103320114314
1761413443103897000,1.77989697265625,0.22195932812690733,-0.08273377625551075,-0.042127588568255304
1761413443113911000,1.7899111328125,0.23060265330970287,-0.12553776624798774,-0.11835494207181035
1761413443123924000,1.799924072265625,0.2314326743930578,-0.12139620946384966,-0.17764515276718884
1761413443133938200,1.809938232421875,0.20448621527850627,-0.10781020371448248,-0.2037174593957141
1761413443143950800,1.819950927734375,0.17518004129529,-0.10154387332871556,-0.219548467592895
1761413443153965000,1.829965087890625,0.17707096960842608,-0.09112290748152882,-0.21532047463431953
1761413443163979000,1.83997900390625,0.19227672204673288,-0.08205879960339515,-0.23124380075745282
1761413443173992000,1.849991943359375,0.15537819323837757,-0.11077592165227979,-0.24670228584781287
1761413443184006000,1.860005859375,0.1409334883004427,-0.14112360404506324,-0.2813478480976075
1761413443194019000,1.87001904296875,0.10307692811489104,-0.15044789722934365,-0.3022075346443802
1761413443204033000,1.880032958984375,0.08974749094247818,-0.16623159568607807,-0.2989639496132731
1761413443214046000,1.8900458984375,0.04822305589914322,-0.1650525054367259,-0.2736136736489832
1761413443224060200,1.90006005859375,0.022039397850632667,-0.1676056239856407,-0.2265220329325646
1761413443234072800,1.91007275390625,-0.013759645283222198,-0.14751403573453425,-0.22410971109382807
1761413443244087000,1.920087158203125,-0.03847323077917099,-0.13774389847889543,-0.19020473807826638
1761413443254100000,1.930099853515625,-0.06730711107552051,-0.144963182207942,-0.15439802309460937
1761413443264114000,1.940114013671875,-0.09100772013664245,-0.1347294460285455,-0.17436631375961004
1761413443274127000,1.950127197265625,-0.08372750000059605,-0.11488675450459122,-0.2061207576777786
1761413443284141000,1.96014111328125,-0.06607435441017151,-0.11940112665649502,-0.19311646080650388
1761413443294154000,1.970154052734375,-0.06755085670351982,-0.17214008907750247,-0.20576682967357338
1761413443304168000,1.98016796875,-0.07668927192687988,-0.1921829062834382,-0.19573431515470147
1761413443314181000,1.99018115234375,-0.10774433540403842,-0.20375066754557192,-0.19279826170280576
1761413443324194800,2.00019482421875,-0.12189151870012283,-0.22304189919922499,-0.19711283696629106
1761413443334208000,2.0102080078125,-0.12478957822918892,-0.2262210406919941,-0.20364837621487675
1761413443344222000,2.020221923828125,-0.07839549132287502,-0.21626929979175327,-0.19079481292590497
1761413443354235000,2.03023486328125,0.0012625672817230223,-0.22666268351227042,-0.14784765160307287
1761413443364249000,2.0402490234375,0.09070610684156417,-0.21613661332279444,-0.09027487581744789
1761413443374262000,2.050261962890625,0.16126608223319053,-0.16839111180752514,-0.03945376624912023
1761413443384276000,2.06027587890625,0.18497896625399587,-0.13173596330098808,0.032061975497379894
1761413443394289000,2.070288818359375,0.1682604711651802,-0.11622647867575286,0.057574164025112985
1761413443404303000,2.08030322265625,0.12008826867043972,-0.08324892270341515,0.041792219134047626
1761413443414316000,2.09031591796875,0.013067571365833282,-0.06052629182897508,0.038215456625819204
1761413443424330000,2.100330078125,-0.06203823076188564,-0.01051423362120986,0.03886829451136291
1761413443434343200,2.11034326171875,-0.07659925555586815,0.014556933140754699,0.04200454671047628
1761413443444356900,2.12035693359375,-0.09779051214456558,0.02168093980178237,0.0624625936537981
1761413443454370000,2.1303701171875,-0.10677227550148963,0.023519772601500153,0.08182882677242159
1761413443464384000,2.140384033203125,-0.12260989610254763,0.05467895404025912,0.10216332040131092
1761413443474397000,2.15039697265625,-0.08733750719130039,0.10664755314327776,0.14560973648317158
1761413443484411000,2.160410888671875,-0.04012333607375622,0.11275975241325795,0.174861549930647
1761413443494425000,2.170425048828125,0.0068657941162586205,0.10840689096599816,0.20221257125809788
1761413443504438000,2.18043798828125,0.008526420804858208,0.07017294883541762,0.20444544487670063
1761413443514451200,2.190451171875,-0.013489596170186996,0.03652355801612139,0.17979798341952263
1761413443524464400,2.20046435546875,-0.05272153636217117,-0.0006114829618483782,0.1172845363613218
1761413443534477300,2.210477294921875,-0.0561316370666027,-0.03555142504833639,0.09771825062595307
1761413443544491300,2.2204912109375,0.012989245432615279,-0.033439620526134965,0.07848353493250906
1761413443554505500,2.23050537109375,0.10090952094793319,-0.06953318962715566,0.08256510515771806
1761413443564518100,2.24051806640625,0.21964988214075565,-0.05728716377727687,0.10882628542184829
1761413443574532400,2.250532470703125,0.3096411187112331,-0.03850895967967808,0.12863975085131824
1761413443584545300,2.260545166015625,0.35137305902540683,-0.058699807054176927,0.1253112640157342
1761413443594559200,2.270559326171875,0.37652035976350307,-0.030116467452794313,0.11997691725045442
1761413443604572400,2.280572509765625,0.3497323060810566,-0.029956381520256398,0.10787928689531981
1761413443614586400,2.29058642578125,0.3042483197569847,-0.03362374492138624,0.08640227216780186
1761413443624599300,2.300599365234375,0.26290625554323194,-0.03529671963490546,0.07574987218491733
1761413443634613200,2.31061328125,0.22371347831785676,-0.03920855931639671,0.0707716453809291
1761413443644626400,2.32062646484375,0.178604170525074,-0.011955372340232133,0.08678696063645183
1761413443654640000,2.33064013671875,0.13125965102612971,0.012114581489935517,0.058966422101110215
1761413443664653300,2.3406533203125,0.0832154588252306,0.023199235410243272,0.052520314701646566
1761413443674667300,2.350667236328125,0.018234160348773003,0.033992797429487104,0.04042845650017261
1761413443684680200,2.36068017578125,-0.018394903868436813,0.06698387047052383,0.049798561587557195
1761413443694694400,2.3706943359375,-0.005249006569385528,0.07827091509513556,0.06545739155560731
1761413443704707000,2.38070703125,0.0482540355592966,0.11014876619726419,0.08556253340803087
1761413443714721300,2.39072119140625,0.1226771161198616,0.08683912921510636,0.107756318102777
1761413443724734200,2.400734130859375,0.1656885748505592,0.09053564564548432,0.09786211607605218
1761413443734748400,2.41074853515625,0.14958324322402478,0.10074994647204875,0.07341434190943837
1761413443744761300,2.42076123046875,0.09370996483266353,0.1319002870172262,0.05521072282940149
1761413443754775300,2.430775390625,0.09052490505576133,0.13732304271832108,0.10859781042821705
1761413443764788200,2.440788330078125,0.1591331618577242,0.1172224309105426,0.1279956077288836
1761413443774802200,2.45080224609375,0.2230196508347988,0.09859780993945896,0.17441409842409192
1761413443784815400,2.4608154296875,0.29120120665729043,0.06404197179973126,0.18243958396948873
1761413443794829300,2.470829345703125,0.32356559916734695,0.01746624471619725,0.16371435216814278
1761413443804842200,2.48084228515625,0.29323943448662754,0.0073244246039539575,0.15334354560561478
1761413443814856200,2.490856201171875,0.20502631350457667,-0.0103659842569381,0.1454526462253183
1761413443824869000,2.500869140625,0.09318272608816623,-0.01201017126739025,0.1376410226263106
1761413443834883300,2.51088330078125,0.01757715774476528,0.004977057760208845,0.12158369485996663
1761413443844896300,2.520896240234375,-0.025703765577077865,-0.0030775077491998672,0.10642945341318845
1761413443854910500,2.530910400390625,-0.08999708178937435,-0.0150443513315171,0.1079035445537418
1761413443864923100,2.540923095703125,-0.1301052202939987,-0.01309935474358499,0.08815583783686161
1761413443874937300,2.550937255859375,-0.15223171190619467,-0.004329297908581793,0.06275514685958623
1761413443884950300,2.5609501953125,-0.18905016121566295,-0.003262947318702936,0.06202953599877655
1761413443894964200,2.570964111328125,-0.24557751960158347,0.030473866055719553,0.06368943203501402
1761413443904977400,2.580977294921875,-0.29695699370503426,0.057372065581753846,0.050197132451087235
1761413443914991400,2.590991455078125,-0.30527883184850213,0.05472936905324459,0.03375409330278635
1761413443925004300,2.60100439453125,-0.23023265095353126,0.025465828635357318,-0.031141609249450263
1761413443935018200,2.611018310546875,-0.14300035770237446,0.02831741867419332,-0.0828570738416165
1761413443945032400,2.621032470703125,-0.05281915151774883,0.016199804976955057,-0.08939294188376516
1761413443955045000,2.631045166015625,-0.017314707416296003,0.03707973059415817,-0.09359660411868244
1761413443965059300,2.641059326171875,0.0036620296388864514,0.05513868050649762,-0.07703381104823201
1761413443975072300,2.651072265625,0.0015098200410604476,0.06348963514659553,-0.059485952463187275
1761413443985086200,2.661086181640625,-0.004254150313138962,0.06215166454110294,-0.00048800271265208716
1761413443995099400,2.671099365234375,0.008651508489251137,0.08557736565098166,0.015705226393043992
1761413444005113300,2.68111328125,0.042052258309721945,0.07380801740214228,-0.0008844181517139077
1761413444015126300,2.691126220703125,0.07321195120513439,0.04430792828202247,0.00995060838907957
1761413444025140200,2.70114013671875,0.07323533208072185,0.03959010597988963,0.00460026033706963
1761413444035153200,2.711153076171875,0.11278875931203365,0.0009511632449924945,-0.05235328757166862
1761413444045167000,2.7211669921875,0.12190437818169593,-0.022275544694066046,-0.06039166913125664
1761413444055180300,2.73118017578125,0.08987433219254017,-0.041731721118465064,-0.04617817913331091
1761413444065194500,2.741194580078125,0.05188508553802967,-0.05869936866275966,-0.05669475084207952
1761413444075207200,2.751207275390625,0.027587679627537727,-0.061446840739995234,-0.07404840202927589
1761413444085221400,2.761221435546875,0.011702128231525421,-0.04915365128014237,-0.059545719826407724
1761413444095234000,2.771234130859375,0.005815992802381515,-0.061430547192320224,-0.07580752065628767
1761413444105248300,2.781248291015625,0.00021627309918403624,-0.10259612232800573,-0.12499635284766554
1761413444115261400,2.791261474609375,-0.008209609940648078,-0.10750179535243659,-0.1803789251126349
1761413444125275400,2.801275390625,-0.015835867035388945,-0.10776523206159472,-0.20322814150881022
1761413444135288300,2.811288330078125,0.0029933365970849987,-0.13259806002303956,-0.237066953952983
1761413444145302300,2.82130224609375,0.07671674445569515,-0.1462910332782194,-0.21111589908394962
1761413444155315200,2.831315185546875,0.138859020113945,-0.14462529202308505,-0.17038469677753745
1761413444165329200,2.8413291015625,0.2107546280235052,-0.16340028125029057,-0.14415603054352102
1761413444175342300,2.85134228515625,0.2737520592063665,-0.1995616183578968,-0.1276517992598936
1761413444185356300,2.861356201171875,0.2939993129432201,-0.22663499178774654,-0.12412537869941442
1761413444195369200,2.871369140625,0.2927659717559814,-0.24418135253544895,-0.17166074459534136
1761413444205383400,2.881383544921875,0.2581324652701616,-0.259901849562861,-0.1664932057643309
1761413444215396000,2.89139599609375,0.22815233754813669,-0.25679051260929553,-0.1428528024578467
1761413444225410300,2.901410400390625,0.2252455101907253,-0.24872721580415963,-0.12109236767906695
1761413444235423200,2.91142333984375,0.1842114890128374,-0.2120995032938197,-0.07993990775328129
1761413444245437200,2.921437255859375,0.11197510484158991,-0.14412651218809186,-0.044115109123662115
1761413444255450400,2.931450439453125,0.023050620719790457,-0.10044464338254183,-0.03155194361601025
1761413444265464300,2.94146435546875,-0.0435790294855833,-0.09236987533532083,-0.015912914326973258
1761413444275477200,2.951477294921875,-0.055225628137588495,-0.07054086883235722,0.006913907574303448
1761413444285491200,2.9614912109375,-0.04231821576952934,-0.06273604030031711,0.03890150266122073
1761413444295504400,2.97150439453125,-0.03374854034483433,-0.08209102137256413,0.026743008964322506
1761413444305518000,2.98151806640625,-0.013598901763558387,-0.06838559049461036,0.05018171568624675
1761413444315531300,2.99153125,-0.003649754679203033,-0.04010141650289297,0.05417568069323897
1761413444325545200,3.001545166015625,-0.0494873767465353,-0.023990312722697853,0.07023088956773281
1761413444335558100,3.01155810546875,-0.07787059066593646,-0.0028429318083450198,0.12338489906303583
1761413444345572400,3.021572265625,-0.08600479728281497,0.0645810105798766,0.1605544268324971
1761413444355585300,3.031585205078125,-0.06512275277376174,0.0915474165039137,0.19012568149268627
1761413444365599200,3.04159912109375,-0.04281739746332169,0.08327822186313569,0.19157777999714015
1761413444375612200,3.051612060546875,-0.027536826223134993,0.0813670910121873,0.20650106223225592
1761413444385626400,3.06162646484375,-0.016667057162523268,0.0853264961624518,0.19594430464357138
1761413444395639300,3.071639404296875,-0.012706921359896659,0.09033745619226247,0.1729637534853071
1761413444405653200,3.0816533203125,-0.02485913144648075,0.09612444209586829,0.15362850002683698
1761413444415666400,3.09166650390625,-0.060067807471752166,0.1115185932457447,0.14143281612470746
1761413444425680100,3.10168017578125,-0.11325170064866542,0.10247677026465535,0.10061360674127935
1761413444435693300,3.111693359375,-0.1577379081070423,0.11876074639372527,0.07917619337178766
1761413444445707300,3.121707275390625,-0.17722236077785491,0.13325955613907425,0.04638933766596019
1761413444455720200,3.13172021484375,-0.13322189100980758,0.12378781730812043,0.04949446407444775
1761413444465734100,3.141734130859375,-0.07549275561869144,0.1216577830094844,0.026357187984511254
1761413444475747300,3.151747314453125,0.025528993532061575,0.11078520093727856,0.009233911487087607
1761413444485761300,3.16176123046875,0.12126783384382724,0.0854189602188766,-0.01797192921601236
1761413444495774200,3.171774169921875,0.21647651280164718,0.031868535284511744,-0.04685746663436293
1761413444505788400,3.181788330078125,0.2694090615659952,-0.02207932800222188,-0.05526201462522149
1761413444515801300,3.19180126953125,0.27454759349823,-0.07322543174121529,-0.08832293803207576
1761413444525815600,3.201815673828125,0.2557803491860628,-0.09393785530440509,-0.13709617515988648
1761413444535828200,3.211828125,0.20645371595919132,-0.07365403241682797,-0.2047309107545763
1761413444545842400,3.221842529296875,0.1522533392161131,-0.04839746261797845,-0.21984825425706803
1761413444555855400,3.23185546875,0.13518705360293387,-0.062157509759999806,-0.22909729024805128
1761413444565869300,3.241869384765625,0.15292086321413517,-0.09677713385093957,-0.2282548480745405
1761413444575882500,3.251882568359375,0.19618600444495676,-0.13073259494472295,-0.22995799873061476
1761413444585896400,3.261896484375,0.20824352198541163,-0.17199428739864378,-0.25654570753537115
1761413444595909400,3.271909423828125,0.2032517050474882,-0.21022435707170514,-0.24746011847779154
1761413444605923300,3.28192333984375,0.21733926711082457,-0.2559775522585958,-0.23768282082900405
1761413444615937500,3.2919375,0.22784663259983062,-0.26606084711663425,-0.20272738891243933
1761413444625950500,3.301950439453125,0.211560683709383,-0.28812019177675247,-0.1461946236990392
1761413444635964400,3.31196435546875,0.19566753352880475,-0.3170739355931058,-0.12939327263236045
1761413444645977600,3.3219775390625,0.14339841710925103,-0.3123327324153855,-0.07799933161213994
1761413444655990300,3.331990234375,0.09476327327787876,-0.3081050317177549,-0.04779913139864802
1761413444666004500,3.34200439453125,0.024501988571882245,-0.34144079001061617,-0.03615669746510684
1761413444676017400,3.352017333984375,-0.02186579484939575,-0.3246671672010794,-0.0027324937038123607
1761413444686031400,3.36203125,-0.0765273593634367,-0.2869312742531299,0.06288688348047435
1761413444696045300,3.37204541015625,-0.174945063495636,-0.23904132276587187,0.17268413282632827
1761413444706058500,3.38205859375,-0.2556067461848259,-0.14724449807815254,0.29895803132914006
1761413444716072400,3.392072509765625,-0.33695115044116974,-0.12530509000327436,0.40506534011587497
1761413444726085400,3.40208544921875,-0.39956104361116884,-0.09479578730799257,0.48226365754343564
1761413444736099600,3.412099609375,-0.4285848935216665,-0.11370634908098727,0.3827030669864267
1761413444746112300,3.4221123046875,-0.38306934301555157,-0.19799027738794683,0.42504042584784324
1761413444756126500,3.43212646484375,-0.36191608034968376,-0.2806040439929813,0.48004313194975257
1761413444766139400,3.442139404296875,-0.33504444003701206,-0.3025659926932305,0.3925117826867848
1761413444776153300,3.4521533203125,-0.3103694329857826,-0.27427597348261623,0.26201639403142035
1761413444786166500,3.46216650390625,-0.21899872475564477,-0.23131142263356594,0.19503084306046364
1761413444796180500,3.472180419921875,-0.12136018830239773,-0.16565960448440165,0.17016140941567717
1761413444806193400,3.482193359375,-0.02013736362159252,-0.06851356425583362,0.15919110259003935
1761413444816207400,3.492207275390625,0.06991524774730205,0.03096457218211144,0.18835969473347067
1761413444826220300,3.50222021484375,0.15327859061062335,0.14149382559694348,0.20809154629409313
1761413444836234200,3.512234130859375,0.2557639825731516,0.21753157481253146,0.23667430137358605
1761413444846247400,3.522247314453125,0.32642449572980403,0.24630269207097588,0.23815979069098828
1761413444856261400,3.532261474609375,0.37932606483399867,0.27002109251711515,0.21610687577165663
1761413444866274300,3.5422744140625,0.4054489326059818,0.2843622274827212,0.21009952511563895
1761413444876288500,3.55228857421875,0.3808662800133228,0.2942553700635209,0.2044108850199729
1761413444886301200,3.56230126953125,0.3689426179856062,0.2837046038242057,0.16897161510922012
1761413444896315400,3.5723154296875,0.395056717929244,0.19958580295108258,0.16215331339649855
1761413444906328300,3.582328369140625,0.4041887034118175,0.14546579796783626,0.16892631466276942
1761413444916342500,3.592342529296875,0.3980155677348375,0.08378547726552933,0.17720738240443168
1761413444926355500,3.60235546875,0.3791039465159178,0.025594350385852158,0.19574827061481773
1761413444936369400,3.612369384765625,0.3172667912840843,-0.02145418184120208,0.2028654822088778
1761413444946382300,3.62238232421875,0.2842769603520632,-0.07477624137979,0.17035576294399796
1761413444956396300,3.632396240234375,0.1965799721986055,-0.11009648802075535,0.18492486144658177
1761413444966409500,3.642409423828125,0.09576631284058093,-0.1763204069694504,0.1977294710272923
1761413444976423400,3.65242333984375,-0.0007172083586454391,-0.2432007440002635,0.21763255096897482
1761413444986436400,3.662436279296875,-0.07896364659965038,-0.3231877057656646,0.19662750113476066
1761413444996450300,3.6724501953125,-0.17990180912017822,-0.3499849656678736,0.08474230306632816
1761413445006463200,3.682463134765625,-0.28402561593949793,-0.36371582324802876,-0.02520195353478193
1761413445016477400,3.6924775390625,-0.30190087984800335,-0.37532563355360177,-0.10515168856233358
1761413445026490400,3.702490478515625,-0.23512568369209766,-0.3697824298106134,-0.13696418281067163
1761413445036504300,3.71250439453125,-0.13253858492076395,-0.3842456933185458,-0.15057609018627555
1761413445046517200,3.722517333984375,-0.05246259316504001,-0.376295757227391,-0.1052909143699333
1761413445056531500,3.732531494140625,-0.007962357181310654,-0.3369949895828962,-0.044354982294142246
1761413445066544400,3.74254443359375,0.028548049092292783,-0.31493805607557296,0.04023406643923372
1761413445076558300,3.752558349609375,0.01825286504924297,-0.282094209485501,0.08626859931815416
1761413445086571500,3.762571533203125,-0.05323533110320568,-0.22945534643810242,0.1286179043456912
1761413445096585200,3.772585205078125,-0.1549491541713476,-0.1561190016683191,0.11884919186215848
1761413445106598400,3.782598388671875,-0.25946108352541924,-0.06233630039300769,0.12605674862079322
1761413445116612400,3.7926123046875,-0.29908348433971405,0.026455095401033756,0.13554722868483512
1761413445126625300,3.802625244140625,-0.27277473860681056,0.054375879440456625,0.11090849852338433
1761413445136639200,3.81263916015625,-0.1578998206704855,0.056303997958824036,0.11074282310027629
1761413445146652400,3.82265234375,-0.0650157852679491,0.04723641948197037,0.1133959679575637
1761413445156666400,3.832666259765625,0.024875498059391973,0.06492723020166158,0.09061462916582823
1761413445166679300,3.84267919921875,0.04539864612817764,0.11408628830928355,0.1506697598190978
1761413445176693500,3.852693603515625,0.056334466162323946,0.08878339515067636,0.18082674194537102
1761413445186706400,3.86270654296875,0.05194996746778488,0.041896665889210996,0.18360537634585053
1761413445196720400,3.872720458984375,0.04992459912002086,0.05666066590938717,0.139814165414311
1761413445206733600,3.882733642578125,0.0053249944150447846,0.08938559882752597,0.0873712998630479
1761413445216747300,3.892747314453125,-0.054763855844736094,0.11060823693517595,0.035341143298521636
1761413445226760400,3.902760498046875,-0.04895312373936176,0.1380914332749322,0.009841887317597865
1761413445236774400,3.9127744140625,-0.02016132901906967,0.12205427151378244,-0.007696691982448101
1761413445246787300,3.922787353515625,0.05373217470943927,0.06187080177310854,-0.023918526128120718
1761413445256801300,3.93280126953125,0.147350369605422,0.02894888497814536,0.0037883228996768593
1761413445266814500,3.942814453125,0.15663257721364499,0.0013398703016340731,0.015377200015075504
1761413445276828400,3.952828369140625,0.1470633693575859,-0.0020960589637979863,0.02266848953440785
1761413445286841300,3.96284130859375,0.14506430449485777,-0.003033449411764741,0.033302952001802624
1761413445296855600,3.97285546875,0.13719547081589697,0.02080507028270513,0.06237926275189966
1761413445306868200,3.9828681640625,0.11687398279905319,0.02616948339268565,0.04716722670327872
1761413445316882400,3.99288232421875,0.1023252329647541,0.02078552533201873,0.06486903374101967
1761413445326895400,4.002895263671875,0.07612053212821483,0.034271504773013294,0.0654809916269034
1761413445336909300,4.012909423828125,0.021701544198393822,0.031050314236804842,0.033224808731675146
1761413445346922500,4.022922607421875,-0.030003508597612378,0.027027744189836084,0.0578537846840918
1761413445356936400,4.0329365234375,-0.1306599315673113,0.012613032531365751,0.01888528120126575
1761413445366949400,4.042949462890625,-0.17890110764503478,0.0700505645647645,0.029907829670794306
1761413445376963300,4.05296337890625,-0.20362346096932887,0.05299151240997016,0.0486043833669275
1761413445386976500,4.0629765625,-0.1699631834298372,0.022389234201610087,0.04144172519594431
1761413445396990200,4.072990234375,-0.1202542728871107,0.0021251023951917884,0.015142952867783605
1761413445407003400,4.08300341796875,-0.07367430801987647,-0.07877305593099444,0.002526486270315945
1761413445417017300,4.093017333984375,-0.017666589593887328,-0.13878168056141585,0.03998473132066428
1761413445427030300,4.1030302734375,0.04256313044130802,-0.1404327357040718,0.009435096614994108
1761413445437044500,4.11304443359375,0.08898468987643718,-0.14080178821217268,-0.006630231794714927
1761413445447057400,4.123057373046875,0.13401508721411226,-0.09555983048304915,0.005355645281635225
1761413445457071400,4.1330712890625,0.13270984983444212,-0.1004687549104914,0.03568743598554283
1761413445467084300,4.143084228515625,0.09947861136198043,-0.09187310479432344,0.0711307244842872
1761413445477098500,4.153098388671875,0.07182137362957,-0.10653696890827268,0.08686258315593004
1761413445487111400,4.163111328125,0.04149462442696094,-0.06568049625437707,0.10277315939534455
1761413445497125400,4.17312548828125,0.01073708259165287,-0.026697562387399374,0.13351952224951236
1761413445507138600,4.183138671875,0.006028174248337745,0.016813297232799233,0.1695646856315434
1761413445517152300,4.19315234375,0.07123626721799373,0.0326600875210017,0.17924674274493008
1761413445527165400,4.20316552734375,0.14607318927645682,-0.0002411883447319269,0.17900486028045415
1761413445537179400,4.213179443359375,0.1818541122317314,-0.04323792443033308,0.14986125644780696
1761413445547192300,4.2231923828125,0.25268530578017234,-0.04194550999961793,0.1121396842861548
1761413445557206300,4.233206298828125,0.31332594470381736,-0.0527021740745753,0.12684778940062968
1761413445567219500,4.243219482421875,0.31521219684183593,-0.06272150031831115,0.10950067755207418
1761413445577233400,4.2532333984375,0.2824929995447397,-0.06050959642250091,0.09854425312131643
1761413445587246300,4.263246337890625,0.23792729710936544,-0.07920337363965808,0.08661573225539178
1761413445597260500,4.273260498046875,0.17723463573753834,-0.07949260237719863,0.041863092413172126
1761413445607273200,4.283273193359375,0.04854395841658115,-0.08380714110806584,0.02709576792474836
1761413445617287400,4.293287353515625,-0.11027882231771945,-0.037253808519430456,-0.042023835932835936
1761413445627300600,4.303300537109375,-0.18802666338682172,0.009317278921604156,-0.08366575987599789
1761413445637314300,4.313314208984375,-0.1896528032839298,0.039057643071003255,-0.09372012090049683
1761413445647327500,4.323327392578125,-0.15092822809219358,0.040040772356837985,-0.1057203187631443
1761413445657341400,4.333341552734375,-0.03137655051648617,0.01460979583915323,-0.12491897676251829
1761413445667354400,4.343354248046875,0.007788169658184051,-0.0355360082834959,-0.1626505223289132
1761413445677368300,4.353368408203125,0.04066343429982662,-0.05970818037912249,-0.17441512133739887
1761413445687381500,4.363381591796875,0.03286006707251072,-0.07661332061383873,-0.22648992076124994
1761413445697395200,4.373395263671875,0.020541268247365952,-0.06628474575784057,-0.2527853320885449
1761413445707408400,4.383408447265625,-0.01388064131438732,-0.04605078989397734,-0.24066804718486964
1761413445717422600,4.393422607421875,-0.04597907636463642,-0.06602017653752118,-0.24659360130894928
1761413445727435300,4.403435302734375,-0.09836275907456875,-0.06016282881144434,-0.25365612357370554
1761413445737449500,4.413449462890625,-0.1310164899200201,-0.023870558800548315,-0.25574966178685427
1761413445747462400,4.42346240234375,-0.10949380941987037,0.012426241254992783,-0.2505255704630166
1761413445757475300,4.433475341796875,-0.05953180089890957,0.04265910162907093,-0.22814013565368949
1761413445767489500,4.443489501953125,-0.00031330373287200925,0.023027093713730573,-0.16305873780362307
1761413445777503500,4.45350341796875,0.05875204869806766,0.028853425247035918,-0.14262425439897924
1761413445787516400,4.463516357421875,0.08293547284007072,0.05689725114423781,-0.11141407342534512
1761413445797530400,4.4735302734375,0.06865794116258621,0.06265150382202118,-0.11938903435990214
1761413445807543600,4.48354345703125,0.031363691034913065,0.05941219310723245,-0.15671134153828023
1761413445817557200,4.49355712890625,0.0386906729221344,0.05010861391741782,-0.18653025081660599
1761413445827570400,4.5035703125,0.04263678019940853,0.06765449974108487,-0.1681139388339594
1761413445837584400,4.51358447265625,0.026427988198399543,0.09424282960034906,-0.1264637950517237
1761413445847597300,4.523597412109375,-0.021955226698517797,0.13710998448953032,-0.11851265338417141
1761413445857611500,4.533611572265625,-0.019816461104154585,0.13215294660404323,-0.08913681169822811
1761413445867624400,4.54362451171875,-0.005995441022515297,0.09795026928354054,-0.11210611081011593
1761413445877637400,4.553637451171875,0.029987141984701156,0.032798948002420364,-0.12644596713408826
1761413445887651300,4.5636513671875,0.04715454988479614,-0.02481415979359299,-0.14968915128391236
1761413445897664300,4.573664306640625,0.054417234364151953,-0.0754938515972346,-0.16906342157851903
1761413445907678500,4.583678466796875,0.019796002838015556,-0.10961842218022792,-0.18875779067296533
1761413445917691400,4.59369140625,0.01006429789662361,-0.1326016036869958,-0.23348701310697942
1761413445927705600,4.60370556640625,0.015679799690842627,-0.08518781834412366,-0.22197898267544805
1761413445937718300,4.61371826171875,0.02524433137178421,-0.07830061611365527,-0.15062011199109254
1761413445947732500,4.623732421875,0.019501988327503203,-0.05108118527662009,-0.07299049047417938
1761413445957745400,4.633745361328125,0.043779520493745804,-0.019184775604493914,-0.0011636734845116735
1761413445967759400,4.64375927734375,0.03151040602922439,0.032268859713710844,0.05873188269287347
1761413445977772500,4.6537724609375,0.03712766138911247,0.0362164648283273,0.0996525431567803
1761413445987786500,4.663786376953125,0.06666998221576213,0.0069678297186270355,0.11759181221220642
1761413445997799400,4.67379931640625,0.11985562895834445,0.00240311561897397,0.1263369538016617
1761413446007813400,4.6838134765625,0.11213000314235687,-0.017223996925540268,0.11522720197271555
1761413446017826300,4.693826416015625,0.10425941589772701,-0.030051293262094256,0.11290559062473475
1761413446027840300,4.70384033203125,0.06706044283807278,-0.03941347077134996,0.0973485039981082
1761413446037853400,4.713853515625,0.04795592939555645,-0.008497231242991983,0.08627893804907798
1761413446047867600,4.72386767578125,0.033653847798705096,-0.032022885596007106,0.09033519116993993
1761413446057880300,4.73388037109375,-0.008318915534019469,-0.06786759450249373,0.09750654410403221
1761413446067894500,4.74389453125,-0.025369419056177137,-0.08698076617550105,0.10095463873129337
1761413446077907200,4.7539072265625,-0.0347866512209177,-0.05922437891755253,0.09441467903591692
1761413446087921400,4.76392138671875,0.018216040170192717,-0.03504084517769515,0.11168543771263212
1761413446097934600,4.7739345703125,0.07612988447844982,-0.03977127123307436,0.15729334267731754
1761413446107948500,4.783948486328125,0.10624328319132327,-0.04400324624702334,0.18039682609550653
1761413446117961500,4.79396142578125,0.1259749886214733,-0.04541548766512424,0.17866930818315593
1761413446127975400,4.803975341796875,0.17551380329430102,-0.06796678056064993,0.18243015855401754
1761413446137988400,4.81398828125,0.2291109534472227,-0.08450794632118194,0.19857984077893195
1761413446148002300,4.824002197265625,0.21700141345858573,-0.09793463332299142,0.18930994466301052
1761413446158015500,4.834015380859375,0.1862725131958723,-0.09743030053004621,0.1792238733259961
1761413446168029200,4.844029296875,0.14586393043994902,-0.05625734580550343,0.18583481589835135
1761413446178042400,4.85404248046875,0.05569733730256557,-0.033318843690678474,0.15280443376023323
1761413446188056600,4.864056640625,-0.04002513639628887,0.009857340615056455,0.12925459481403231
1761413446198069200,4.8740693359375,-0.08422025195360183,0.03670384648647159,0.16275763596519827
1761413446208083500,4.88408349609375,-0.0730722504734993,0.02956321748420596,0.17329079348258672
1761413446218096400,4.894096435546875,-0.016183073037862778,0.017462774117477237,0.16585688062217085
1761413446228110300,4.9041103515625,0.06323065541684628,0.026332491934671996,0.18714465638790279
1761413446238123500,4.91412353515625,0.08873743711709976,0.011571925980597733,0.21192235662862657
1761413446248137500,4.924137451171875,0.05691022022366524,0.022750395664200184,0.21216069542914628
1761413446258150400,4.934150390625,-0.01699380489885807,0.05317370057646185,0.17691665582954882
1761413446268164400,4.944164306640625,-0.08229892850220202,0.06033255935516208,0.13749175034873187
1761413446278177500,4.954177490234375,-0.11655717193484305,0.05399619594048708,0.09050630995314568
1761413446288191200,4.964191162109375,-0.07767828296422957,0.0666035293834284,0.022570837846212086
1761413446298204400,4.974204345703125,-0.02881049942076206,0.06516944145970047,0.00941701296903193
1761413446308218400,4.98421826171875,0.010958616387844086,0.020188655417412518,-0.015755203014612196
1761413446318231300,4.994231201171875,0.0387777666836977,-0.0029488398682326077,-0.025568302629143
1761413446328245500,5.00424560546875,0.0481149193495512,0.020647103242017326,-0.006450491313636303
1761413446338258400,5.014258544921875,0.08877133938670158,-0.011663330591097473,-0.02316445635780692
1761413446348272400,5.0242724609375,0.1354910049855709,-0.018174758311733603,-0.04560786843206733
1761413446358285300,5.034285400390625,0.13581541463434696,-0.007481514861807227,-0.0401117917664349
1761413446368299500,5.044299560546875,0.14305121110677718,-0.003926744989678263,-0.05483538671098649
1761413446378312400,5.0543125,0.14821020130515097,0.0015261866539716719,-0.09678392891790717
1761413446388326400,5.064326416015625,0.14545184250771998,-0.010323898680880666,-0.12794855371676384
1761413446398339600,5.074339599609375,0.11891805584728717,-0.05455456047561019,-0.14492822049241513
1761413446408353300,5.084353271484375,0.0835726016998291,-0.09906761940829455,-0.1308174602165818
1761413446418366500,5.094366455078125,0.021599837389588355,-0.10562233828138559,-0.1475108573967591
1761413446428380400,5.10438037109375,-0.04398819480836391,-0.08518453040849416,-0.1315673652684316
1761413446438393300,5.114393310546875,-0.05051905788183212,-0.05616502787955105,-0.11015903186295181
1761413446448407300,5.1244072265625,-0.03493979595601558,-0.052370530967414376,-0.06412614295184611
1761413446458420500,5.13442041015625,0.008049450942873954,-0.07183803250342607,-0.03702562578674406
1761413446468434400,5.144434326171875,0.07710311342477798,-0.09601488077417016,-0.020139263317734003
1761413446478447400,5.154447265625,0.09323065688312053,-0.12657353903651236,-0.012456051871366797
1761413446488461600,5.164461669921875,0.09232114082276821,-0.15096366473175585,-0.020277539277262984
1761413446498474200,5.17447412109375,0.06842062527537346,-0.16083894286230205,-0.03628879941217601
1761413446508488400,5.184488525390625,0.07486147197782993,-0.18842501505464315,-0.026173319317586718
1761413446518501400,5.19450146484375,0.09176876763701439,-0.22256332190204411,-0.007819733840227126
1761413446528514300,5.204514404296875,0.08633563667237758,-0.2374578164340928,-0.010321450995467602
1761413446538528500,5.214528564453125,0.06976444109976292,-0.22715189180132,-0.02543134184386581
1761413446548541200,5.224541259765625,0.008797638961672783,-0.2040684282578528,0.00345773923844099
1761413446558555400,5.234555419921875,-0.04114683390259743,-0.1615561146883294,0.010398315623961388
1761413446568568600,5.244568603515625,-0.07947744134068489,-0.09690704384092241,0.03404226259440184
1761413446578582300,5.254582275390625,-0.08467734807133674,-0.041395949825458224,0.0375450830835849
1761413446588595500,5.264595458984375,-0.10654372744262218,-0.022680654896236954,0.0753116268981248
1761413446598609400,5.274609375,-0.1350380005210638,-0.016273052876256404,0.0934781653707847
1761413446608622300,5.284622314453125,-0.16007190401256083,0.023077874052897095,0.08199048360753804
1761413446618636300,5.29463623046875,-0.15230010096728802,0.03893964271452278,0.08298281911313533
1761413446628649500,5.3046494140625,-0.0987000282049179,0.06425802570320666,0.11597652250267565
1761413446638663200,5.3146630859375,-0.012288988208770751,0.0473196773186326,0.1422013893444091
1761413446648676400,5.32467626953125,0.03957680810689926,0.045690541746839876,0.1622495403125882
1761413446658690600,5.334690673828125,0.08529460318684577,0.05982877455148845,0.18328597166575492
1761413446668703200,5.344703125,0.11716507470011711,0.042195320042222734,0.18411120697613803
1761413446678717400,5.354717529296875,0.11374328355789184,0.03332476197481155,0.16913221249841154
1761413446688730400,5.36473046875,0.13409165958166122,0.022488675988093017,0.1414507536401972
1761413446698744300,5.374744384765625,0.12674363490641116,0.029524383311159908,0.10906791215799748
1761413446708757500,5.384757568359375,0.09728431618809699,0.04123874996975064,0.08710179873928427
1761413446718771500,5.394771484375,0.04877016838788986,0.03425148489829152,0.03691759883500635
1761413446728784400,5.404784423828125,-0.0471954664170742,0.013592873881570993,-0.032567331203632054
1761413446738798300,5.41479833984375,-0.09917816711068153,0.010841785075142978,-0.11196180696859954
1761413446748811500,5.4248115234375,-0.08415537002384663,-0.0478779687885195,-0.18078699445687232
1761413446758825200,5.4348251953125,-0.054821723511815065,-0.09725209441892801,-0.19309549108371138
1761413446768838400,5.44483837890625,0.007113631397485732,-0.1330814596258104,-0.19694197391141205
1761413446778852400,5.454852294921875,0.030486908200383186,-0.17349859101437032,-0.19621705717034638
1761413446788865300,5.464865234375,0.09678162736296653,-0.15367168158143757,-0.21490915388707071
1761413446798879500,5.47487939453125,0.14804244352281093,-0.11972849544733762,-0.19934921771623193
1761413446808892400,5.484892333984375,0.13734861555099487,-0.15414799385629593,-0.17703242769632488
1761413446818906400,5.49490625,0.11780804877877235,-0.15719327983632683,-0.18362360612228512
1761413446828919300,5.504919189453125,0.09915478623509406,-0.14912366288825868,-0.19091339780427513
1761413446838933500,5.51493359375,0.07724924389719963,-0.12545410655252634,-0.1877496000111103
1761413446848946400,5.524946533203125,0.06485270366072654,-0.11978731296248733,-0.1799874781096354
1761413446858960400,5.53496044921875,0.0975806687861681,-0.11132036725990474,-0.14976667349953204
1761413446868973600,5.5449736328125,0.11615618991851806,-0.09713102532252668,-0.1042336969345808
1761413446878987300,5.5549873046875,0.10546411551237106,-0.08704210444130003,-0.07019654890671372
1761413446889000400,5.56500048828125,0.1585842958033085,-0.0910843655694276,-0.01196041384153068
1761413446899014400,5.575014404296875,0.16538754607737063,-0.10079473546184599,0.02284063123092055
1761413446909027300,5.58502734375,0.17238953379392624,-0.09438391857147216,0.059725898698903615
1761413446919041300,5.595041259765625,0.15993512589037417,-0.06244659236706793,0.09079341979883611
1761413446929054500,5.605054443359375,0.11600713683664798,-0.06268113177530467,0.10495773689281195
1761413446939068400,5.615068359375,0.08354688273668288,-0.06848959885835647,0.1128917082298547
1761413446949081300,5.625081298828125,0.034703649112582204,-0.04441058493889868,0.10434877468161284
1761413446959094300,5.63509423828125,-0.034812954705953594,-0.03417392615005374,0.1336548755995929
1761413446969108200,5.645108154296875,-0.03939034562408924,-0.00837751385346055,0.13271803314089775
1761413446979121400,5.655121337890625,-0.06850070477426051,0.016451880041882395,0.14622520150039345
1761413446989135600,5.665135498046875,-0.09179097946882248,0.049822526985034345,0.1577019965434447
1761413446999148300,5.675148193359375,-0.09697685767412186,0.07401581493392587,0.1686228747367859
1761413447009162500,5.68516259765625,-0.11403495998084544,0.08768376334570348,0.1893529435545206
1761413447019175200,5.695175048828125,-0.14373276363015175,0.11103548590391873,0.1877767072137445
1761413447029189400,5.705189453125,-0.17382979573011398,0.12216449042260646,0.1720767780503258
1761413447039202600,5.71520263671875,-0.1600432624399662,0.12871208543516693,0.15414956475887448
1761413447049216300,5.72521630859375,-0.10310264707803726,0.113171840345487,0.14637805397454648
1761413447059229400,5.7352294921875,-0.05054360780119896,0.07244308572448789,0.14249956857338547
1761413447069243400,5.745243408203125,0.0036468320697546,0.03812222538441419,0.09135225925799459
1761413447079256300,5.75525634765625,0.059174658024311065,0.011576602155715227,0.031221469552628694
1761413447089270300,5.765270263671875,0.12802549141049385,0.0006013999592512846,0.01923975719474256
1761413447099283500,5.775283447265625,0.14916881720423697,-0.0258363059155643,-0.018322898078151045
1761413447109297200,5.785297119140625,0.126132225009799,-0.028328561122715472,-0.05027549491692334
1761413447119310300,5.795310302734375,0.12984627709686755,-0.050336613987013695,-0.0943288273833692
1761413447129324500,5.805324462890625,0.11228665500879287,-0.0564002979401499,-0.12604798079244792
1761413447139337200,5.815337158203125,0.12794833452105522,-0.07885770200714469,-0.1580026234578341
1761413447149351400,5.825351318359375,0.1442564952433109,-0.0996364322721958,-0.17166392293311655
1761413447159364400,5.8353642578125,0.15910276671946047,-0.12081161450892686,-0.1623588459059596
1761413447169378300,5.84537841796875,0.15366788218915461,-0.10232669426947831,-0.1355059833589941
1761413447179391500,5.8553916015625,0.17943945230543612,-0.10006320631690323,-0.1035485642146319
1761413447189405400,5.865405517578125,0.12721475954949854,-0.17846695401147006,-0.14743556367084384
1761413447199418400,5.87541845703125,0.11389233663976192,-0.17254677018225192,-0.199610900859721
1761413447209432300,5.885432373046875,0.13292729197740555,-0.1811067279305309,-0.17495288147591054
1761413447219445500,5.895445556640625,0.1453606570929289,-0.19580796491280197,-0.13039919827189295
1761413447229459200,5.905459228515625,0.12617431058585643,-0.2057259862065315,-0.10474456906616687
1761413447239472400,5.915472412109375,0.10670680904984474,-0.18926957612000406,-0.06483845593966543
1761413447249486300,5.925486328125,0.12674538847208022,-0.1658976144913584,-0.04747132421638817
1761413447259499300,5.935499267578125,0.147643215072155,-0.16223156626448035,-0.01614577323477715
1761413447269513500,5.945513427734375,0.17390110740065573,-0.17342391834296286,0.01472754046730697
1761413447279526400,5.9555263671875,0.18935411259829996,-0.20609277369230986,0.020010412773676215
1761413447289540400,5.965540283203125,0.14376374329030514,-0.21077209061495958,0.01304082948938012
1761413447299553300,5.97555322265625,0.08651976106762886,-0.19730024929717183,0.02522862234599888
1761413447309566500,5.98556640625,0.015820669466257094,-0.15235416924208403,0.043502968574687835
1761413447319580400,5.995580322265625,-0.045918286088109016,-0.1383278358466923,0.06035944736208766
1761413447329593300,6.00559326171875,-0.09524199670553207,-0.12376527668274938,0.06634444005582481
1761413447339607600,6.015607666015625,-0.0955108767747879,-0.09332790671251713,0.06592698182873427
1761413447349620200,6.0256201171875,-0.07337444829046726,-0.08995609219186007,0.08642305922750383
1761413447359634400,6.035634521484375,-0.022539164066314697,-0.08246712467595935,0.07830339259263128
1761413447369647600,6.045647705078125,-0.016792729368805884,-0.09332001566700637,0.06831267138887197
1761413447379661300,6.055661376953125,0.004666238245368003,-0.09105148621313273,0.04569919997733086
1761413447389674500,6.065674560546875,-0.005701426512002944,-0.10399565039500594,0.023517872905358672
1761413447399688400,6.0756884765625,-0.017840777117013932,-0.13690956654660402,0.002644084767997265
1761413447409701400,6.085701416015625,-0.02276946569085121,-0.12845372675992547,0.021100947956740855
1761413447419715300,6.09571533203125,-0.05068447757661342,-0.1160450576942414,0.016890344524383545
1761413447429728300,6.105728271484375,-0.0748234780550003,-0.08790551633760332,0.01312467184793204
1761413447439742200,6.1157421875,-0.07625497216284274,-0.013959844030439853,0.060675746769644316
1761413447449755400,6.12575537109375,-0.09287994374930858,0.0037839024528861045,0.10143555411603301
1761413447459769600,6.13576953125,-0.07065934411287307,0.032989319475367665,0.11495594728328287
1761413447469782300,6.1457822265625,-0.03240004834532738,0.03356028776373714,0.09117927731126546
1761413447479796500,6.15579638671875,0.0041167876690626146,0.01669164361450821,0.06845971517674625
1761413447489809200,6.16580908203125,0.03775719146430492,0.006319266149401664,0.08086272168662399
1761413447499823400,6.1758232421875,0.022677695754170415,-0.05693458747994155,0.07074910475555807
1761413447509836500,6.18583642578125,0.01658814670741558,-0.07778229132797569,0.028556013203039764
1761413447519850500,6.1958505859375,0.008694763109087943,-0.07038016184531151,0.020844342847168445
1761413447529863400,6.205863525390625,-0.0027986908078193665,-0.06838774591907859,0.015488478369824588
1761413447539877400,6.21587744140625,-0.029638182416558263,-0.07136953820884227,-0.033900223775207995
1761413447549890300,6.225890380859375,-0.024898878934979437,-0.0721549164328724,-0.07941982940193265
1761413447559904300,6.235904296875,0.006209960556030273,-0.06379026206098497,-0.12408753090705722
1761413447569917400,6.24591748046875,0.03126081518232822,-0.09028758916854858,-0.12590422494020312
1761413447579931400,6.255931396484375,0.006141571494936942,-0.09806940215118229,-0.15598087183926254
1761413447589944300,6.2659443359375,0.05221884753704071,-0.07072466443404554,-0.17155268111098557
1761413447599958500,6.27595849609375,0.10566402199864387,-0.12047945994511246,-0.1469904867844656
1761413447609971200,6.28597119140625,0.08833294796943664,-0.10173201631195843,-0.12793167564719915
1761413447619985400,6.2959853515625,0.08798457292318343,-0.07187449205629527,-0.10314933576397597
1761413447629998300,6.305998291015625,0.10610241341590881,-0.046465252446383234,-0.0955075157739222
1761413447640011300,6.31601123046875,0.08718553149998187,-0.0335721608646214,-0.06605309242643416
1761413447650025500,6.326025390625,0.03377952000498771,-0.03856668121628463,-0.07343472711034119
1761413447660038400,6.336038330078125,-0.012291326296329497,-0.012432049941271542,-0.08328081567902118
1761413447670052400,6.34605224609375,-0.013126608076691627,-0.021916940514743327,-0.0789786615056917
1761413447680065300,6.356065185546875,-0.011624386820197105,-0.03243453513681888,-0.06191650407835841
1761413447690079500,6.36607958984375,0.007208908465504646,-0.060830462407320735,-0.013047259230166672
1761413447700092400,6.376092529296875,0.06447042634487152,-0.0515072652015835,0.02065798996221274
1761413447710106400,6.3861064453125,0.08903320519328117,-0.05153342255614698,0.019569573670998215
1761413447720119600,6.39611962890625,0.10479600699245929,-0.05488507107160985,0.06745528737455606
1761413447730133200,6.40613330078125,0.11662673003971576,-0.04698094688355922,0.09661211601495742
1761413447740146400,6.416146484375,0.0927221228390932,-0.02184796693176031,0.12127462891079485
1761413447750160400,6.426160400390625,0.05192950920164585,-0.027103987763822078,0.15928290905933826
1761413447760173300,6.43617333984375,0.028818682727217673,-0.04669913426749408,0.16940861828699708
1761413447770187300,6.446187255859375,-0.0008849661409854889,-0.06957293711565435,0.17014186446499077
1761413447780200400,6.456200439453125,-0.003125438544154167,-0.07719605240523815,0.14577172211185097
1761413447790214400,6.46621435546875,0.022591771036386488,-0.07012384899668395,0.13277447603587061
1761413447800227300,6.476227294921875,0.09508008414208888,-0.073776380154863,0.14475381377357988
1761413447810241500,6.486241455078125,0.12075696171224116,-0.08745031991600989,0.17235380489341914
1761413447820254200,6.496254150390625,0.07982640090882778,-0.06126381232328713,0.1794063537534326
1761413447830268400,6.506268310546875,0.03779167825579643,-0.05921798570938408,0.15138901400435714
1761413447840281600,6.516281494140625,-0.004959668233990669,-0.06110781804397702,0.10321955145597457
1761413447850295300,6.52629541015625,-0.02779752298593521,-0.08781644981466233,0.0786404425272718
1761413447860308500,6.53630859375,0.00854629454910755,-0.09124773943759501,0.043117695584148165
1761413447870322400,6.546322509765625,0.018565584260225296,-0.10184665566757321,0.03591642243582755
1761413447880335400,6.55633544921875,0.04143500319421291,-0.11297894812189042,0.013910634593851863
1761413447890348500,6.5663486328125,0.07034487133622169,-0.10771474398337304,-0.013678908197209239
1761413447900362500,6.576362548828125,0.09254033653140067,-0.1181776858087629,0.021805479496903715
1761413447910375400,6.58637548828125,0.019963760620355604,-0.07200213702395558,0.002019669259339571
1761413447920389400,6.596389404296875,-0.018948446097970008,-0.04256612611599266,-0.041908283261768514
1761413447930402300,6.60640234375,-0.011845336094498634,-0.04994213477671146,-0.01494828881220892
1761413447940416300,6.616416259765625,0.023743863680958748,-0.02761741717867553,0.020683142669778318
1761413447950429400,6.626429443359375,0.011336217528581619,-0.010093377860635518,0.043582865410484374
1761413447960443400,6.636443359375,-0.002975216418504715,0.029127748676389453,0.055662448652274904
1761413447970456300,6.646456298828125,0.011800912430882453,0.026443039637058973,0.07455591315999627
1761413447980470500,6.656470458984375,0.01846855362653732,0.00009754209034144878,0.1093188364454545
1761413447990483200,6.666483154296875,0.03489244968295097,-0.02399111644029617,0.09112970254849642
1761413448000497400,6.676497314453125,0.047018940806388854,-0.02096029737703502,0.06438694931250065
1761413448010510300,6.68651025390625,0.05667465790212154,-0.009309972397983073,0.04073964134119451
1761413448020524500,6.696524658203125,0.10307108289599418,-0.026574410931766032,0.060272390133142464
1761413448030537500,6.706537353515625,0.1456026491552591,-0.0052998599737882615,0.1620341074636206
1761413448040551400,6.716551513671875,0.14029109874367712,0.00963277461156249,0.1336634972974658
1761413448050564400,6.726564453125,0.012059271106123924,-0.0416671314496547,0.046225123547576366
1761413448060578300,6.736578369140625,-0.09993044678270817,0.004963394561037421,0.006743446378223598
1761413448070591500,6.746591552734375,-0.1334089380145073,0.05884243039526045,0.004000139019452035
1761413448080605200,6.756605224609375,-0.10778174480497836,0.09762516551502048,0.07946691994667053
1761413448090618400,6.766618408203125,-0.03015899142026901,0.13551906203627587,0.09577131780926137
1761413448100632300,6.77663232421875,-0.0060369420766830445,0.06910553879961372,0.023044519772566854
1761413448110645200,6.786645263671875,0.06177344234585762,0.03925356750190258,-0.04078486872240901
1761413448120659500,6.796659423828125,0.13838205025196074,-0.00043729543872177596,-0.01932286890093237
1761413448130672400,6.80667236328125,0.17215864764750002,-0.024103636904060838,0.02126008404120803
1761413448140685300,6.816685302734375,0.22745324936807154,-0.03655928691662848,0.023848639229685067
1761413448150699300,6.82669921875,0.2551262691915035,-0.04261785630322992,0.017642514598555863
1761413448160712400,6.83671240234375,0.2720294731974602,-0.10728300150260328,0.022539967783913015
1761413448170726400,6.846726318359375,0.2587912214398384,-0.1278754154153168,0.02045600111670792
1761413448180739300,6.8567392578125,0.18916531202793122,-0.10558576913066207,0.014159385190531611
1761413448190753500,6.86675341796875,0.15817863761186599,-0.09213182879574597,0.008808854475431144
1761413448200766200,6.87676611328125,0.15914309872984886,-0.05647847774289548,0.030936734327115117
1761413448210780400,6.886780517578125,0.13196341538131237,-0.03274659676067531,0.08171765801552683
1761413448220793600,6.896793701171875,0.0904483326882124,0.010311331460252404,0.09485898873731494
1761413448230807300,6.906807373046875,0.0524240147203207,0.046973201968520874,0.10583229123763739
1761413448240820500,6.916820556640625,0.023276830691099166,0.04052548713386059,0.10872512660231441
1761413448250834400,6.92683447265625,0.005077157133817673,0.018168693897128104,0.11046619811598211
1761413448260847400,6.936847412109375,-0.04391863670349121,0.01357515556178987,0.10765256546735763
1761413448270861300,6.946861328125,-0.07194003157317638,0.014028744548186659,0.10010660706721246
1761413448280874500,6.95687451171875,-0.05592530083954334,-0.005117635274678468,0.12430983188822865
1761413448290888200,6.96688818359375,-0.0800216312199831,-0.018879618645459412,0.15692892981171608
1761413448300901400,6.9769013671875,-0.0812678318887949,0.012995821303874253,0.16897318601179867
1761413448310915600,6.98691552734375,-0.05609481218755245,0.04114500727169215,0.17473693717028946
1761413448320928300,6.99692822265625,-0.026080197674036024,0.01615735407471657,0.17696356371119618
1761413448330942500,7.0069423828125,-0.07068798568546772,0.02484692955203354,0.18885913215558975
1761413448340955400,7.016955322265625,-0.12152268538773059,0.027532734569907187,0.15239227276276796
1761413448350969300,7.02696923828125,-0.15387889459133147,0.043274274385347956,0.15119276077989488
1761413448360982500,7.036982421875,-0.16175766514241693,0.06282879661768674,0.13378763513378797
1761413448370995200,7.0469951171875,-0.12720248458981515,0.04401274472773075,0.13871877139303831
1761413448381009400,7.057009521484375,-0.06453063209950924,0.03924611484780907,0.10387783270161598
1761413448391022300,7.067022216796875,-0.005409165567159652,0.03763064247518778,0.059323857236653565
1761413448401036500,7.07703662109375,0.09089490741193294,0.006911240693181752,0.043936501153744756
1761413448411049500,7.087049560546875,0.1504752236276865,-0.03695340080074966,0.0382586381804198
1761413448421063400,7.0970634765625,0.1671142237395048,-0.050751989854872226,0.06583904781695454
1761413448431076400,7.107076416015625,0.1922726303935051,-0.07656060404591263,0.05853325484823435
1761413448441090300,7.11709033203125,0.23247429240047932,-0.05523899907581508,0.09165657596681266
1761413448451103500,7.127103515625,0.264150118124485,-0.0573001693893224,0.11017262199688702
1761413448461117200,7.1371171875,0.2595914319068193,-0.06280366217643023,0.09959463895708322
1761413448471130400,7.14713037109375,0.2114735899478197,-0.03566518762111664,0.10051686836853622
1761413448481144300,7.157144287109375,0.14934943446815013,-0.0010785890169441698,0.06782262284960597
1761413448491157200,7.1671572265625,0.10085048423707485,0.008074621916748582,0.07182959346864372
1761413448501171500,7.17717138671875,0.08241583288013934,0.018644860041514038,0.12001012540031224
1761413448511184400,7.187184326171875,0.08152326795458793,0.030761341227591037,0.11665555427540093
1761413448521198800,7.19719873046875,0.1190256078749895,0.05478117230571806,0.14673632936030626
1761413448531211800,7.207211669921875,0.10515081177949905,0.08483546124249697,0.1499702697802335
1761413448541225700,7.217225830078125,0.07148819615244865,0.10629212730173021,0.18498093901537357
1761413448551238700,7.22723876953125,0.006249708044528961,0.10238700962197035,0.15958200160376726
1761413448561252900,7.2372529296875,-0.03415302949249744,0.10289079442564397,0.12964965854622423
1761413448571265800,7.247265869140625,-0.05063128608465194,0.12233440362941474,0.0916034210074693
1761413448581278700,7.25727880859375,-0.03297171075344085,0.14019216841384768,0.12254041106291115
1761413448591293000,7.26729296875,-0.04865209496617317,0.0877750583583489,0.058608146715350445
1761413448601305600,7.2773056640625,-0.09478080893456935,0.04001695308983326,-0.026459990771859884
1761413448611319800,7.28731982421875,-0.11057400587201117,0.050498416952602564,-0.07221687575317919
1761413448621332700,7.297332763671875,-0.07914367934167385,0.05203147173877805,-0.06661898268088698
1761413448631346700,7.3073466796875,-0.025590952852368353,0.047158349277079105,-0.07794139087982475
1761413448641360000,7.31735986328125,-0.02018704798221588,0.048916773784346876,-0.05425382396336645
1761413448651373800,7.327373779296875,-0.01331774673461914,0.04571611457951367,-0.07141476559005677
1761413448661386800,7.33738671875,-0.04503215090334415,0.04651595972031355,-0.07372048524916172
1761413448671400700,7.347400634765625,-0.042349195429682726,0.012205072784982621,-0.06982903076857327
1761413448681413600,7.35741357421875,-0.041968087157607074,0.03522759992145002,-0.12979889429118482
1761413448691427600,7.367427490234375,-0.003803483936190605,0.01587477427367121,-0.13469068492073566
1761413448701440800,7.377440673828125,0.040081250497698784,-0.046278022778593,-0.11108977337442338
1761413448711455000,7.387455078125,0.06312368791103362,-0.06629296559691429,-0.1228101313823834
1761413448721467600,7.397467529296875,0.055064884617924685,-0.06069375735037028,-0.12929883581455795
1761413448731481900,7.40748193359375,0.04479951119124889,-0.07455014100633561,-0.15998086472824216
1761413448741494500,7.41749462890625,0.07751695492267609,-0.10286021662428975,-0.1695391127988696
1761413448751508700,7.4275087890625,0.08961714256107807,-0.10037855587638914,-0.18263086875788867
1761413448761522000,7.43752197265625,0.13210662324428557,-0.11706570597887038,-0.16911354433055967
1761413448771534600,7.44753466796875,0.12987374962568282,-0.1542186844723299,-0.16361699274089186
1761413448781548800,7.457548828125,0.08086100465357303,-0.16652652351204306,-0.15996336560416965
1761413448791561700,7.467561767578125,0.06376373938024044,-0.14060633870530873,-0.1623332365406677
1761413448801575700,7.47757568359375,0.04984627318680286,-0.10763977905102073,-0.1355308620719239
1761413448811588900,7.4875888671875,0.0762923815637827,-0.07497300606090575,-0.08456734835822134
1761413448821602800,7.497602783203125,0.13327858963310718,-0.06659702657740563,-0.03828256704527885
1761413448831615700,7.50761572265625,0.1375298173367977,-0.08042414760626852,-0.0054277241371572015
1761413448841629700,7.517629638671875,0.14581541512310503,-0.09531232199538499,-0.04057729038633406
1761413448851643000,7.527642822265625,0.14400982700586318,-0.07975600255373864,-0.029748072531819342
1761413448861656600,7.537656494140625,0.12412731492817401,-0.09963453257605433,-0.016172040187194942
1761413448871669800,7.547669677734375,0.10932605163753031,-0.08988836071789263,0.009845175253227352
1761413448881683700,7.55768359375,0.09420622391700743,-0.06326769949160516,0.04366637897547334
1761413448891696600,7.567696533203125,0.10048866518735886,-0.092773341569677,0.02120773279946297
1761413448901710800,7.5777109375,0.05656009161174297,-0.07802457565125077,0.023953524376265703
1761413448911723800,7.587723876953125,0.005842880809307098,-0.05916906853374093,0.036842414706945416
1761413448921737700,7.59773779296875,-0.06632394525706768,-0.04197572247479111,0.05692355462927371
1761413448931750700,7.607750732421875,-0.11735153718292712,-0.04174129266440868,0.05786510979570448
1761413448941764900,7.617764892578125,-0.060167760714888566,-0.019303725809045134,0.06841784879639744
1761413448951777800,7.62777783203125,-0.0895154357522726,-0.053277160950936375,0.11290208349339663
1761413448961790700,7.637790771484375,-0.13092355093955993,-0.04029167837798595,0.049021220539510246
1761413448971805000,7.647804931640625,-0.14034370571374893,-0.0796564511694014,0.0430969815896824
1761413448981817600,7.657817626953125,-0.1453513047426939,-0.11388024434316903,0.029134178417176006
1761413448991831800,7.667831787109375,-0.18576573271751404,-0.09249375744331627,0.03643478375412523
1761413449001844700,7.6778447265625,-0.15158932234942912,-0.08377955898139625,0.0656423196684569
1761413449011858700,7.687858642578125,-0.1201408756405115,-0.052580593521520495,0.07024009578749538
1761413449021871900,7.697871826171875,-0.062487143573164934,-0.05720386940799653,0.06850702491719275
1761413449031885800,7.7078857421875,-0.09339256944656371,-0.05991385901905596,0.05894815579205751
1761413449041898800,7.717898681640625,-0.1157668983399868,-0.0386177903490141,0.05033540841061621
1761413449051912700,7.72791259765625,-0.13296937755346297,-0.05241948467567563,0.008711933439597487
1761413449061925600,7.737925537109375,-0.08661854526698588,-0.05699720438737422,-0.01856236938983202
1761413449071939600,7.747939697265625,-0.006741290953755378,-0.06934493704605847,-0.01835446226019412
1761413449081952800,7.757952880859375,0.05564706842005253,-0.08547627989668398,-0.002493716511875391
1761413449091967000,7.767967041015625,0.11818155826628207,-0.08358652062732726,0.031631511658243835
1761413449101979600,7.777979736328125,0.1455517957508564,-0.11618490455634892,0.05507350631579756
1761413449111993900,7.787993896484375,0.15274375308156013,-0.11152845705263316,0.04591251393444836
1761413449122006500,7.798006591796875,0.14645429754853248,-0.08071947729103267,0.03989329017754644
1761413449132019700,7.808019775390625,0.10930734693706035,-0.08843275508210062,0.03457691746037453
1761413449142034000,7.818033935546875,0.08590192143023014,-0.10119144316185265,0.02386646714732051
1761413449152046600,7.828046630859375,0.06010170974135399,-0.1077813794787973,-0.00036996582355350256
1761413449162060800,7.838060791015625,0.03459317447543144,-0.11260985908117145,-0.028790698741748926
1761413449172073700,7.84807373046875,-0.00022211831808090208,-0.1194805851008743,-0.04923720137774944
1761413449182087700,7.858087646484375,-0.017343933510780334,-0.07175601677577942,-0.03163162125609815
1761413449192100900,7.868100830078125,0.027586510583758352,-0.050541306246258313,-0.007180522621236741
1761413449202114800,7.87811474609375,0.09357786288559436,-0.034750556994229555,0.020097470002621413
1761413449212127700,7.888127685546875,0.12173662039935589,-0.016703078323975204,0.05631298498287796
1761413449222141700,7.8981416015625,0.13907821582257746,-0.005446794163808226,0.08849095154274254
1761413449232155000,7.90815478515625,0.10652852987349033,0.018991956446133555,0.11632380157038569
1761413449242168600,7.91816845703125,0.03291208952069282,0.04976915282998234,0.1220087884042412
1761413449252181800,7.928181640625,-0.009715922850370406,0.0843050441602245,0.12395086238272487
1761413449262195700,7.93819580078125,-0.04709785126149654,0.12885964067969471,0.1263293550170958
1761413449272208600,7.948208740234375,-0.05473930592536926,0.10926822050306946,0.09869312354009598
1761413449282222800,7.958222900390625,-0.034169396105408666,0.07909724638406186,0.0689029654322192
1761413449292235800,7.96823583984375,-0.010471125131845473,0.03436773168910295,0.07905095955692232
1761413449302248700,7.978248779296875,0.009058920246362685,0.01549267962090671,0.060532283178344366
1761413449312262700,7.9882626953125,0.07431085235774516,-0.01651983071155846,0.010923106683045625
1761413449322275800,7.99827587890625,0.12097966455221175,-0.027852869902364907,0.029480361506342888
1761413449332289800,8.008289794921875,0.17166472665071486,-0.030420016976632176,0.030621238637156784
1761413449342302700,8.018302734375,0.22065993596613406,-0.018885171603411435,0.03763747407477349
1761413449352317000,8.02831689453125,0.2224322063356638,-0.022699542259797454,0.06699676648471505
1761413449362329600,8.03832958984375,0.2035620861709118,-0.04045611169207841,0.043966092574410136
1761413449372343800,8.04834375,0.13544482775628566,-0.045679764624498784,0.043092926469072694
1761413449382356700,8.058356689453126,0.07811901246905327,-0.06675550507474691,0.009959449282661079
1761413449392370700,8.06837060546875,0.04473872091472149,-0.09770477008987218,-0.024151823427341877
1761413449402384000,8.0783837890625,0.025455343773961067,-0.12711418525185436,-0.05607629015017301
1761413449412397800,8.088397705078124,0.0407908600717783,-0.1355367438234389,-0.049004123274236915
1761413449422410800,8.09841064453125,0.06621873131692409,-0.14954941401965915,-0.053736960482411084
1761413449432424700,8.1084248046875,0.07478782221972942,-0.16299363667815922,-0.016773878537863492
1761413449442437600,8.118437744140625,0.07318740128576755,-0.17084482510257512,0.013323263159953056
1761413449452451600,8.12845166015625,0.04072364005446434,-0.1320960653176531,0.0250140662798658
1761413449462464800,8.13846484375,-0.03777648068666458,-0.10223412061519921,0.04604976698067039
1761413449472477700,8.148477783203125,-0.09092179541885852,-0.08774027930591255,0.045842079046741126
1761413449482491600,8.15849169921875,-0.12961948260366915,-0.0652162397434935,0.04277954967096448
1761413449492504800,8.1685048828125,-0.15805588801503181,-0.046731904025934634,0.012676270493306219
1761413449502518500,8.1785185546875,-0.1605091263860464,-0.03187394211199134,0.00009293898046016692
1761413449512531700,8.18853173828125,-0.14028525352478027,-0.03528981497008353,-0.013559373470768332
1761413449522545400,8.19854541015625,-0.1340484049618244,-0.06091390290707349,-0.048560726888291536
1761413449532558000,8.20855810546875,-0.11484802992939948,-0.07878847269583493,-0.0787687085494399
1761413449542572300,8.218572265625,-0.11025134978890419,-0.09458031792640685,-0.08621314280387013
1761413449552585500,8.22858544921875,-0.07413724935650826,-0.08450703300572932,-0.11200316189229488
1761413449562599400,8.238599365234375,-0.0014162965387105942,-0.09875595964323729,-0.122465153869614
1761413449572612400,8.2486123046875,0.05017302092313766,-0.10421225228775292,-0.11779909828733652
1761413449582626300,8.258626220703125,0.10686346091628074,-0.11176084103640169,-0.09567987666614353
1761413449592639200,8.26863916015625,0.13198971886634825,-0.08269695137646049,-0.08841269867476076
1761413449602653200,8.278653076171874,0.12884908275306223,-0.07621401909794658,-0.10229761430546641
1761413449612666400,8.288666259765625,0.12152326990962027,-0.08303809296432882,-0.09985142672974616
1761413449622679300,8.29867919921875,0.13935878632962703,-0.07270071374736727,-0.11459997345246374
1761413449632693200,8.308693359375,0.13493044849336147,-0.05800462786424905,-0.11236954751927405
1761413449642706400,8.31870654296875,0.1224631811082363,-0.056967466836236415,-0.08131426484640687
1761413449652720000,8.32872021484375,0.14147475557029246,-0.03617839784026146,-0.05792323319111019
1761413449662733300,8.3387333984375,0.1407891113936901,-0.028395781140029427,0.0033151158973574635
1761413449672747300,8.348747314453124,0.13967092101871967,-0.015687398475408555,0.028488354794308543
1761413449682760200,8.35876025390625,0.13293079910874367,-0.024911811481788754,0.03501297079008073
1761413449692774400,8.3687744140625,0.13386720317602158,-0.0008194996893405913,0.07112013002503663
1761413449702787300,8.378787353515625,0.13427636849880217,-0.002549574884958565,0.08842603308036923
1761413449712801300,8.38880126953125,0.1248772565126419,-0.00587948649264872,0.10405033972430974
1761413449722814200,8.398814208984374,0.10852408760488033,0.028068558479659257,0.11134557476639748
1761413449732828400,8.408828369140625,0.09057049776315688,0.05849672223012894,0.15445347960889338
1761413449742841300,8.41884130859375,0.10985972012281417,0.06869659267254173,0.16556710389535872
1761413449752855300,8.428855224609375,0.07894844903051852,0.0748396254722029,0.16388974526766686
1761413449762868500,8.438868408203126,0.03914835356175899,0.05987118892110884,0.15725534875448793
1761413449772881200,8.448881103515625,0.01158580837547779,0.052606495147757226,0.1372786190547049
1761413449782895400,8.458895263671875,0.020559388425946235,0.06992909360956401,0.12705704823713748
1761413449792908300,8.468908203125,0.04080664216279983,0.04440795459039509,0.09264792509172111
1761413449802922200,8.478922119140625,0.07919394822418689,0.022309702691994605,0.0885014364041388
1761413449812935400,8.488935302734374,0.07812076603472233,-0.0012304551104083657,0.06482168746795505
1761413449822949400,8.498949462890625,0.06718377695679664,-0.01809493454117328,0.05496595428809523
1761413449832962300,8.50896240234375,0.026293548163771628,-0.029647900092974303,0.03160016667190939
1761413449842976300,8.518976318359375,0.01802548603415489,-0.03052150458972901,0.013077142911776899
1761413449852989200,8.5289892578125,0.0103828623265028,-0.040902065361291165,0.0027434900218620893
1761413449863003100,8.539003173828124,0.034648704054951664,0.030055129186995325,0.029975853405706583
1761413449873016300,8.549016357421875,0.1235480537354946,0.04272197426483035,0.10296283674854785
1761413449883030500,8.559030517578124,0.11953472644090651,0.020176526588201522,0.09830522020105271
1761413449893043200,8.569043212890625,0.11859598428606986,0.052790144618973134,0.08857647440172732
1761413449903057400,8.579057373046876,0.24957272671759126,0.02693747209049761,0.0959982584329322
1761413449913070000,8.589070068359375,0.3120949416041374,-0.0726759446322918,0.09284315540287644
1761413449923083300,8.599083251953125,0.3697428284525871,-0.12651800945699215,0.11558390645589679
1761413449933097500,8.609097412109374,0.14358838672339916,-0.23215455892682074,0.029453802292980252
1761413449943110100,8.619110107421875,-0.22846271867156026,-0.25149580373466013,-0.15050379213504492
1761413449953124400,8.629124267578124,-0.5399345599412918,-0.2828683721957728,-0.3326578371614218
1761413449963137300,8.63913720703125,-0.6511702445924281,-0.23941041180659084,-0.4016524629324674
1761413449973151200,8.649151123046876,-0.48403965424001216,-0.10688567274808883,-0.3171910226341337
1761413449983164400,8.659164306640625,-0.3338514308601618,-0.014082045638002454,-0.08127502881456165
1761413449993178400,8.669178466796875,-0.29465222389400003,0.11647800575140863,0.10689506163094192
1761413450003191300,8.67919140625,-0.2104980229139328,0.18234160348773001,0.26792693324945865
1761413450013205200,8.689205322265625,-0.07425473825633526,0.14485256144031883,0.2766108461709693
