time,seconds_elapsed,z,y,x
1761413687653193700,0.07919384765625,-0.08519172733426093,-0.13345332514550537,0.03173106304258108
1761413687663207700,0.089207763671875,-0.08457096508741378,-0.11558087424859403,0.03496471120156348
1761413687673220900,0.099220947265625,-0.06145838504731655,-0.08655271348915994,0.027496055821329354
1761413687683234800,0.10923486328125,-0.062495911401510236,-0.10194569559525697,0.03280950592905283
1761413687693247700,0.119247802734375,-0.047097266739606854,-0.043919951877743,0.040647871404513716
1761413687703262000,0.129261962890625,-0.04526888226866722,-0.030910284711606797,0.0094809450507164
1761413687713274600,0.139274658203125,-0.05448971507847309,-0.02617635152488947,-0.0070913465004414315
1761413687723288800,0.149288818359375,-0.09895487974882125,-0.034441673708148296,-0.06427000840194523
1761413687733301800,0.1593017578125,-0.08992635464072227,-0.01300970369875431,-0.08897387622147798
1761413687743315700,0.169315673828125,-0.08760930987000465,-0.02509597240965813,-0.08772044209428131
1761413687753329000,0.179328857421875,-0.11998247020840644,-0.03550046204607934,-0.10141732433959841
1761413687763342000,0.189342041015625,-0.10005728803277016,-0.01955645846109837,-0.11139350556135177
1761413687773356000,0.19935595703125,-0.0695166038185358,-0.004447736656479537,-0.09213942758031189
1761413687783369000,0.209368896484375,-0.03939268371164799,0.045022396694310005,-0.09325045756213367
1761413687793383200,0.219383056640625,-0.005171849679946899,0.08143650298658758,-0.06782083275131881
1761413687803396000,0.22939599609375,0.030853403425216672,0.08853705570679157,-0.0441723922688514
1761413687813410000,0.23941015625,0.05866203232705593,0.06887293562013655,-0.025549159537255763
1761413687823423200,0.24942333984375,0.09424655592739581,0.056673634988814586,-0.030545725715532896
1761413687833437000,0.25943701171875,0.11364566840231417,0.028248664286918936,-0.029378289371356368
1761413687843450000,0.2694501953125,0.14273030858933924,0.019993388573639095,-0.03250811182968318
1761413687853464000,0.279464111328125,0.17369652473926545,-0.01395779820382595,-0.033123540314286944
1761413687863477000,0.28947705078125,0.17227613654732704,-0.01786386573165655,-0.03976780063435435
1761413687873491000,0.299490966796875,0.1475859319269657,-0.018102935184538364,-0.028492008056119084
1761413687883504000,0.309504150390625,0.13800737172067165,-0.00020998948886990547,-0.008659545665234327
1761413687893518000,0.31951806640625,0.13392156371176242,0.031272322957031425,0.03599558861926198
1761413687903531000,0.329531005859375,0.15070844786167145,0.05891845477353781,0.0713804979942739
1761413687913545200,0.339545166015625,0.14543956754803658,0.07574994525015354,0.059649508994445204
1761413687923558000,0.349557861328125,0.10836100599765777,0.08254289332590997,0.06902699367068707
1761413687933571000,0.359571044921875,0.04268295742869377,0.10381123373880982,0.0707635351397097
1761413687943585000,0.3695849609375,-0.019531214421987533,0.14822079576440156,0.08658632349781692
1761413687953598000,0.379597900390625,-0.06078209322094917,0.21145762519370764,0.11947437455579638
1761413687963612200,0.389612060546875,-0.18403671696782112,0.2588284481776878,0.13437602948099375
1761413687973624800,0.399624755859375,-0.2675789235293865,0.29382739044241607,0.19579481317028402
1761413687983639000,0.40963916015625,-0.28711364508271214,0.29867311344053593,0.23447752198167143
1761413687993652200,0.41965234375,-0.3315525062680244,0.2699713716238737,0.2464289487991482
1761413688003666000,0.429666015625,-0.3633288697570562,0.2556097053268924,0.2624487210340798
1761413688013679000,0.43967919921875,-0.3324076617926359,0.252648809694685,0.27663075644783675
1761413688023693000,0.449693115234375,-0.2942150015205145,0.22546737278047949,0.287574175266549
1761413688033706000,0.4597060546875,-0.2305664129525423,0.16329904936552048,0.2637526432394981
1761413688043720000,0.469719970703125,-0.13991232855916022,0.1127223064796999,0.21696641521044074
1761413688053733000,0.479733154296875,-0.05962649344503879,0.05513268915712833,0.19160751754827796
1761413688063746800,0.489746826171875,-0.007194879940152167,0.028563575454987583,0.18618330054245888
1761413688073760000,0.499760009765625,0.015707856741547583,0.021840550810284912,0.16703662845864892
1761413688083774200,0.509774169921875,0.06151391462683677,0.006124255033954978,0.18795213684588669
1761413688093787000,0.519786865234375,0.10593640919923782,-0.04958177703171968,0.16848412385322153
1761413688103800000,0.529800048828125,0.12925240285694597,-0.08808529335130005,0.10952646958045661
1761413688113814000,0.53981396484375,0.1788169364929199,-0.11869637592062353,0.12793956669270992
1761413688123827000,0.549826904296875,0.26061025356054307,-0.17011187118552623,0.13403138076178728
1761413688133841200,0.559841064453125,0.34348142899274825,-0.18255769392382354,0.11075966463722288
1761413688143854000,0.56985400390625,0.40718496261835097,-0.23742219713144003,0.08964972965642809
1761413688153868000,0.579867919921875,0.39844811393320556,-0.24683555683866143,0.07580795904770493
1761413688163881000,0.589880859375,0.3548462880939245,-0.2400574410058558,0.0416043684117496
1761413688173895200,0.599895263671875,0.2757552157223224,-0.24183815041016785,0.030546456367895006
1761413688183908000,0.609908203125,0.23624738119840621,-0.23763978540487585,0.03400434173680842
1761413688193922000,0.619922119140625,0.2674795548081398,-0.2560470738308504,0.021169190887361765
1761413688203935200,0.629935302734375,0.2672726340591907,-0.2786331823114306,0.0009329700011759996
1761413688213949000,0.639948974609375,0.24566870501637458,-0.2806838677635416,-0.05807838722020387
1761413688223962000,0.649962158203125,0.18961480936110017,-0.26725250458661465,-0.09543510812483727
1761413688233976000,0.65997607421875,0.10861293493211269,-0.2660842645248398,-0.10234539896994829
1761413688243989000,0.669989013671875,0.00542494765818119,-0.25913243609294295,-0.12122940152958035
1761413688254003000,0.6800029296875,-0.05474748923182487,-0.21553802637513725,-0.1308046007350087
1761413688264016100,0.69001611328125,-0.1302975279957056,-0.21305585417058318,-0.13097148173451423
1761413688274029000,0.700029052734375,-0.18388240318894386,-0.19825053575932977,-0.11311645689643919
1761413688284043000,0.71004296875,-0.28223405634760856,-0.15581618279684334,-0.10623385777585208
1761413688294056000,0.720055908203125,-0.3146691760063171,-0.10964556591548025,-0.09505188096091151
1761413688304070000,0.73006982421875,-0.31122166590094563,-0.07751289980206638,-0.06603964842297136
1761413688314083000,0.7400830078125,-0.26613515446186065,-0.09104333943929523,-0.07285247024297714
1761413688324097000,0.750096923828125,-0.18264146321713923,-0.08978895546402782,-0.07526917599588633
1761413688334110000,0.76010986328125,-0.0727975251853466,-0.10991214442979544,-0.06892031842581928
1761413688344124200,0.770124267578125,0.011176643052697182,-0.1260302624726668,-0.05082512815631926
1761413688354136800,0.78013671875,0.08954407732486724,-0.11942717441320419,-0.02654050866216421
1761413688364151000,0.790151123046875,0.08332067276537418,-0.1151539175407961,0.003970730261877179
1761413688374164200,0.800164306640625,0.05123801980614662,-0.0794275377843529,0.020241481583192944
1761413688384178000,0.810177978515625,0.010224456894397735,-0.04225779081918299,0.02747720499038696
1761413688394191000,0.820191162109375,0.012473112604022025,-0.0020530235396698116,0.06840016700923443
1761413688404205000,0.830205078125,0.021912556600570676,-0.00234006032012403,0.07541340677216649
1761413688414218000,0.840218017578125,0.05383037438690662,0.01491648716814816,0.07162782381884754
1761413688424232000,0.85023193359375,0.10038111315965652,0.02267733042798936,0.12294212373159825
1761413688434245000,0.8602451171875,0.14279577504098415,0.042519839288853105,0.11311506865695119
1761413688444258000,0.870258056640625,0.19077566983401775,0.058330937209166586,0.12711436791494488
1761413688454272000,0.88027197265625,0.24224165317714214,0.04951028269808739,0.11662256532125174
1761413688464285200,0.89028515625,0.26762919241189953,0.05136858738325536,0.10779423896037041
1761413688474299000,0.900298828125,0.2878250082224607,0.03735098528359085,0.13291677058339119
1761413688484312000,0.91031201171875,0.28532267001271244,0.044393670336715874,0.14223558387495577
1761413688494326000,0.920325927734375,0.20306641160845756,0.07368819041475654,0.11240019838586449
1761413688504339000,0.9303388671875,0.130231477022171,0.0723844143398106,0.07839731795378029
1761413688514353200,0.940353271484375,0.08308744853138923,0.06818886234611272,0.05831409567221999
1761413688524366000,0.950365966796875,0.08189385483264923,0.035750966208428145,0.06535656152963638
1761413688534380000,0.960380126953125,0.1159364096879959,0.00700600630454719,0.06541326015293598
1761413688544393000,0.97039306640625,0.13148586099743842,-0.05017250946648419,0.052412543478235596
1761413688554407200,0.9804072265625,0.15143559309244156,-0.09634754679463803,0.023155396268516776
1761413688564420000,0.990420166015625,0.18172551741600035,-0.09350209423564373,0.032238574173301456
1761413688574434000,1.00043408203125,0.20526246034801005,-0.04351750855669379,0.0928233912564814
1761413688584447200,1.010447265625,0.1900491091251373,-0.010677753619849682,0.12221446704417466
1761413688594460000,1.0204599609375,0.13482231194376945,0.015308628290891647,0.11127404390014707
1761413688604474000,1.03047412109375,0.06988309904336928,0.03164550365097821,0.12312244873456656
1761413688614487000,1.040487060546875,0.002642623463273048,0.022199702978879212,0.10720504089556634
1761413688624501000,1.0505009765625,-0.07594868269264697,0.0011570610806345939,0.08421506432183086
1761413688634514200,1.06051416015625,-0.1184071837157011,0.01042290207594633,0.03964819284267723
1761413688644528000,1.070528076171875,-0.14468611883223056,-0.01291734924018383,0.025806714494898915
1761413688654541000,1.080541015625,-0.13266016547381876,-0.05493716658502817,-0.0063860477752983565
1761413688664555000,1.090554931640625,-0.1274351243019104,-0.057028220580145714,-0.03778181444890797
1761413688674568000,1.10056787109375,-0.08614800514578819,-0.05277582383267581,-0.0440549764342606
1761413688684582000,1.110581787109375,-0.026968086424469948,-0.06517550587430596,-0.06575659369789064
1761413688694595000,1.120594970703125,0.01457914497256279,-0.08244089425615966,-0.08397526421658694
1761413688704609300,1.130609375,0.07873977471590042,-0.05903882975019514,-0.08299166000671684
1761413688714622000,1.1406220703125,0.11225567534863948,-0.05309263469688594,-0.07719495642669498
1761413688724636200,1.15063623046875,0.10216741205453872,-0.04559906407110393,-0.12359912633560598
1761413688734648800,1.16064892578125,0.07964403007924556,-0.044405031980946655,-0.120041579984501
1761413688744663000,1.1706630859375,0.03210369574725628,-0.02450173284355551,-0.1088040735900402
1761413688754676200,1.18067626953125,-0.04154606235325336,-0.00650711687169969,-0.07281454938538372
1761413688764688600,1.190688720703125,-0.07155775425732136,0.04208027882780879,-0.029974793959781525
1761413688774702800,1.200702880859375,-0.06250409470796585,0.04012702586818486,-0.020025866071134806
1761413688784715800,1.2107158203125,-0.04921674311161041,0.05550133980643004,0.007139496491104364
1761413688794729700,1.220729736328125,-0.011128127735853194,0.04381239985004067,0.010315788439661263
1761413688804743000,1.230742919921875,0.014689035087823868,0.031379034734517336,-0.014356515197828412
1761413688814756900,1.2407568359375,0.04006897553801536,0.01877645053192973,-0.015717720548436044
1761413688824769800,1.250769775390625,0.08883855940401554,0.0008270254086703062,-0.022635902439057824
1761413688834783700,1.26078369140625,0.14316285478770732,-0.02896232898160815,-0.028946619955822823
1761413688844797000,1.270796875,0.17356559183597564,-0.0394623148817569,-0.028439766412228343
1761413688854810600,1.280810546875,0.16656711125075815,-0.06984532431624829,-0.02017199654355645
1761413688864823800,1.29082373046875,0.1261935998082161,-0.07679726234599947,-0.040070875234156846
1761413688874837800,1.300837646484375,0.1287017832368612,-0.07570844419598578,-0.023536796801537273
1761413688884850700,1.3108505859375,0.1266203007876873,-0.06868468303903937,-0.0203059981867671
1761413688894865000,1.320864990234375,0.11969254735112189,-0.05987586509622633,-0.026083193348720668
1761413688904877800,1.3308779296875,0.11571136876046657,-0.05375336362794041,-0.025504078286513684
1761413688914890800,1.340890869140625,0.09905892464518547,-0.08112082463353872,0.007338599259778857
1761413688924904700,1.35090478515625,0.0677343965768814,-0.06537380492538214,0.014652575534954667
1761413688934918000,1.36091796875,0.043857846426963804,-0.06399879024513065,0.030220439283922314
1761413688944931800,1.370931884765625,0.018283260187506676,-0.038479222128540276,0.03798888132832944
1761413688954944800,1.38094482421875,0.018582535395026207,-0.031097112520597874,0.04915171505138278
1761413688964959000,1.390958984375,0.03239537217020988,-0.026211861229687928,0.06407631246075034
1761413688974971600,1.4009716796875,0.06358487568199635,-0.04438208949677646,0.05218816013783216
1761413688984985900,1.41098583984375,0.10123334607481956,-0.0527601878721267,0.0762344408314675
1761413688994999000,1.4209990234375,0.11851532026529311,-0.0784864940745756,0.0940506680291146
1761413689005012700,1.4310126953125,0.12959843981564045,-0.06299611600860953,0.08818718282319604
1761413689015026000,1.44102587890625,0.04314882137477398,-0.03609590718857944,0.10663447446599603
1761413689025040000,1.451039794921875,-0.042353287082910536,-0.03418857572991401,0.11752302129231393
1761413689035052800,1.461052734375,-0.11055763925909995,0.009215060656145215,0.10415412889234721
1761413689045066000,1.47106591796875,-0.12580839988291262,0.031014037347026166,0.0984657079923898
1761413689055080000,1.481079833984375,-0.11694997064471244,0.03531231906283647,0.11957293955944477
1761413689065092900,1.4910927734375,-0.06872223857045173,0.020566548819094897,0.10752908521816133
1761413689075106800,1.50110693359375,-0.06713409259617328,-0.01759856585897505,0.09077610333785414
1761413689085119700,1.51111962890625,-0.07077098779380321,-0.029144078756682575,0.07833513943776488
1761413689095133700,1.5211337890625,-0.032819150540232656,-0.015565342998318374,0.07331139299161732
1761413689105147000,1.53114697265625,0.0016945289582014082,-0.023742365843616425,0.09581322072222828
1761413689115160800,1.541160888671875,0.04807166472971439,-0.03869797944575548,0.09799421802312135
1761413689125173800,1.551173828125,0.10616963343322276,-0.06495926930774003,0.09555398526415228
1761413689135188000,1.56118798828125,0.13821195438206196,-0.08630348796844482,0.08691168299466372
1761413689145200600,1.57120068359375,0.1544441272586584,-0.09638112027067691,0.026759265979379415
1761413689155214800,1.58121484375,0.1260579907298088,-0.10157861584853381,0.03092230394296348
1761413689165227800,1.591227783203125,0.077612231990695,-0.09724982939660548,0.015315715618804097
1761413689175242000,1.601241943359375,0.02704232070446014,-0.05727795755751431,0.024709932234138247
1761413689185255000,1.6112548828125,-0.009295651611685753,-0.014618600200116634,0.048696810890734195
1761413689195267800,1.621267822265625,-0.024072364982962606,-0.004056435783952475,0.06161452545709908
1761413689205281800,1.63128173828125,-0.004665653723478317,0.0011602028857916594,0.07731083789132535
1761413689215294700,1.641294677734375,0.03350654828250408,-0.013907090929895638,0.07794833207726479
1761413689225309000,1.651308837890625,0.08412380584180354,-0.026789295791462064,0.10535985142029822
1761413689235321900,1.66132177734375,0.10129822800457478,-0.037706155396811665,0.11187485933750867
1761413689245335800,1.671335693359375,0.1221323417186737,-0.052656581367179746,0.09585274901501833
1761413689255349000,1.681348876953125,0.08471709555983543,-0.05963982785064727,0.08300342350974678
1761413689265362700,1.69136279296875,0.015726561442017555,-0.07007496835365891,0.020937647153809667
1761413689275375900,1.7013759765625,-0.03108838122487068,-0.046552127012237904,-0.029465383132919666
1761413689285389800,1.711389892578125,-0.054290393114089966,-0.03492426959332078,-0.02498531510941684
1761413689295402800,1.72140283203125,-0.07665478513538837,-0.017189400536194444,-0.026544600315392016
1761413689305416700,1.731416748046875,-0.09386427861154079,0.0004737184589728713,-0.02834887325838208
1761413689315430000,1.741429931640625,-0.07882219230234623,0.014142105262167751,-0.00429302101880312
1761413689325443800,1.75144384765625,-0.050853404402732845,0.00905219824463129,0.00007087327912449836
1761413689335456800,1.761456787109375,0.03254091812074184,-0.005138714595325291,0.006116071727499365
1761413689345469700,1.7714697265625,0.0889227305561304,0.006314882235229015,0.039549993165209886
1761413689355483600,1.781483642578125,0.12344050170779228,0.012152027423493564,0.039006680068746205
1761413689365496800,1.791496826171875,0.13132453295588492,0.012885456264577806,-0.011817863565683364
1761413689375511000,1.801510986328125,0.10900339555442333,-0.02893120319098234,-0.06553118744418025
1761413689385523700,1.811523681640625,0.09250818782746792,-0.03443330773860216,-0.08966631546504795
1761413689395538000,1.821537841796875,0.07678571803867816,-0.056998519561626014,-0.09709215461686253
1761413689405550600,1.831550537109375,0.03580956452786922,-0.03470010544862598,-0.0985926953729242
1761413689415564800,1.841564697265625,0.05160393050909042,-0.03094162969794124,-0.0806143364161253
1761413689425578000,1.851577880859375,0.05764964041411876,0.01046893317475915,-0.044847588116675614
1761413689435592000,1.861592041015625,0.07209434535205364,0.022673457970470188,-0.028107100391760467
1761413689445604900,1.87160498046875,0.07259937226474285,0.021928996278718114,-0.006922931130975484
1761413689455618800,1.881618896484375,0.10232640200853348,0.0165633045271039,0.011552636758238076
1761413689465631700,1.8916318359375,0.13954875594377517,-0.005605382259003817,0.022223887572064994
1761413689475645000,1.90164501953125,0.13711597583889962,-0.0168238916920498,0.0074848027974367135
1761413689485659000,1.911658935546875,0.10445873786211013,-0.0363994201797992,-0.028700024783611295
1761413689495671800,1.921671875,0.07656067711114883,-0.040663068973645564,-0.03141848996207118
1761413689505685800,1.931685791015625,0.04446867180168628,-0.043836986302025614,-0.04148680644668638
1761413689515699000,1.941698974609375,0.04500935454964637,-0.04027523869983852,-0.023126973891630768
1761413689525712600,1.951712646484375,0.0517313562810421,-0.02511964554619044,-0.03789703832641244
1761413689535725800,1.961725830078125,0.05284487048089504,-0.022679522385075687,-0.017666370398178696
1761413689545739800,1.97173974609375,0.08933364944458007,-0.041871056523919106,0.01741743713840842
1761413689555752700,1.981752685546875,0.10165244826972485,-0.029804807687737047,0.03530234565809369
1761413689565767000,1.991766845703125,0.07178337970674037,-0.022100005464069546,0.049196796302124854
1761413689575779800,2.00177978515625,-0.008376783201098442,-0.025847009972669182,0.04254530252367258
1761413689585793800,2.011793701171875,-0.04487959069013595,-0.029369448477774857,0.05938735092692077
1761413689595806700,2.021806640625,-0.020660510712862012,-0.029430384884774684,0.06477386627085506
1761413689605820000,2.03181982421875,-0.014466332247853278,-0.016309220168180764,0.08848090507276356
1761413689615833900,2.041833740234375,0.0034767361998558045,-0.029783691834472117,0.11226480850316584
1761413689625846800,2.0518466796875,0.017795184409618376,-0.015344174528308212,0.10856310444101691
1761413689635861000,2.061861083984375,-0.002681201907992363,0.0023506182467564938,0.08587634859755634
1761413689645873700,2.071873779296875,-0.0028811083942651746,-0.012807276461832225,0.10107420999035238
1761413689655888000,2.081887939453125,0.03550152149200439,-0.03394110377486795,0.0995574487518519
1761413689665901000,2.091901123046875,0.08414543315172195,-0.06754493841938675,0.10975611361786722
1761413689675914800,2.101914794921875,0.13072715158462522,-0.10216273587942123,0.10179295271895825
1761413689685928000,2.111927978515625,0.14048632905483244,-0.15368107046429066,0.07365816060267388
1761413689695942000,2.12194189453125,0.1512801102697849,-0.1687458069967106,0.05408654110506177
1761413689705954800,2.131954833984375,0.08219663717150688,-0.17639840410910546,0.06183905492797494
1761413689715968800,2.14196875,0.03299509162902832,-0.14667963073700666,0.026876827944442627
1761413689725981700,2.151981689453125,0.01047170965373516,-0.1023684510519728,0.04631261916793883
1761413689735995600,2.16199560546875,-0.02093698956668377,-0.03276581291779876,0.07866385993547736
1761413689746008800,2.1720087890625,-0.036110008779168125,0.030132286076433954,0.11951828676275908
1761413689756021800,2.182021728515625,-0.04438566969335079,0.04609119496960193,0.09653897771351039
1761413689766036200,2.1920361328125,-0.06833119342625141,0.0677863459598273,0.08126914706304669
1761413689776049200,2.202049072265625,-0.11292203030288218,0.08309234390221536,0.07149754850268364
1761413689786063000,2.21206298828125,-0.12504852142632006,0.1492141907159239,0.04312704793438315
1761413689796076000,2.222075927734375,-0.09645897127985954,0.16095562804453073,0.03946764864400029
1761413689806090200,2.23209033203125,-0.10775193418860435,0.15190364899560807,-0.014543123811110854
1761413689816103200,2.242103271484375,-0.06873334448635578,0.14815788659602402,-0.06490552982650696
1761413689826117400,2.252117431640625,-0.006003039807081222,0.0850597715176642,-0.07355060857497155
1761413689836130000,2.262130126953125,0.005501520025730133,0.05801080187670886,-0.07344656367860734
1761413689846144300,2.272144287109375,0.0007283142745494843,0.06373677830807864,-0.08290953468121588
1761413689856157200,2.2821572265625,-0.011164368093013763,0.05649024124592542,-0.09709325059540569
1761413689866171100,2.292171142578125,-0.04190905044674873,0.08441519000381231,-0.11814407580010593
1761413689876184300,2.302184326171875,-0.07141688448190689,0.08743716817349195,-0.10393376413993537
1761413689886197000,2.312197021484375,-0.08308744853138923,0.08328560145199299,-0.10088635926805437
1761413689896211200,2.322211181640625,-0.07082476380765437,0.08631634745001793,-0.12840521144308148
1761413689906224000,2.33222412109375,-0.04939034611284732,0.07850684274286031,-0.11096673151664435
1761413689916238000,2.342238037109375,0.00907528685927391,0.04049757621362805,-0.10437244781814516
1761413689926251300,2.352251220703125,0.07791793693900108,0.018830153480544686,-0.10033135573379695
1761413689936265200,2.36226513671875,0.1037450366348028,0.0010243015464395284,-0.09571407119669019
1761413689946278100,2.372278076171875,0.1249076516509056,-0.026488486213982105,-0.0945792950130999
1761413689956292000,2.3822919921875,0.11524433577060698,-0.031177447747811674,-0.12183708509914576
1761413689966305300,2.39230517578125,0.10894202075600623,-0.033582316932454705,-0.13767112550362945
1761413689976319000,2.402319091796875,0.06678747111558914,-0.039311289038509126,-0.12480316836312412
1761413689986332200,2.412332275390625,0.03143734079301357,-0.016679185991734267,-0.09723280519656836
1761413689996346000,2.42234619140625,0.02458206807076931,0.007358546069264412,-0.07967216019518673
1761413690006359000,2.432359130859375,0.026870471268892287,0.03845028829500079,-0.06517470215670763
1761413690016372200,2.442372314453125,0.0182516960054636,0.05723550665527582,-0.04291815442405641
1761413690026386200,2.45238623046875,0.049962593042850494,0.05315525160431862,-0.03427884782925248
1761413690036399000,2.462399169921875,0.09536416178047656,0.050242359832301735,-0.03556917990073562
1761413690046413000,2.4724130859375,0.1405447812438011,0.026934987872466443,-0.009929419470578432
1761413690056426000,2.482426025390625,0.18012275839447975,0.023225246634334326,0.03714307815395295
1761413690066440200,2.492440185546875,0.18373744176030157,0.014720453139394522,0.07819507337994873
1761413690076453000,2.502453125,0.16512100409567354,0.033668314715474844,0.0920719883672893
1761413690086467300,2.51246728515625,0.12064064185619354,0.07072992513105272,0.09943484528549015
1761413690096480300,2.522480224609375,0.10636778635382652,0.0850011731982231,0.12425744411386548
1761413690106494200,2.532494140625,0.09471592700481414,0.11211597461700439,0.14391659576445817
1761413690116507100,2.542507080078125,0.06509937189817429,0.10316942870393395,0.15641228552646935
1761413690126521000,2.55252099609375,0.02539163088798523,0.12783311064355074,0.1538088250298053
1761413690136534300,2.5625341796875,-0.034708325287699696,0.1317375707361847,0.13719539775066078
1761413690146547200,2.572547119140625,-0.07187690320909022,0.13615348748229444,0.10879873982779681
1761413690156561200,2.58256103515625,-0.059360535985231395,0.15350217023342846,0.07775207885280251
1761413690166574300,2.59257421875,-0.015438976672291755,0.12587065146416426,0.05203545379415154
1761413690176588000,2.602588134765625,-0.006034603989124298,0.11811331533566116,0.03753923786468804
1761413690186601200,2.612601318359375,0.020629531052708625,0.10453202229402958,0.020561799578741193
1761413690196615200,2.622615234375,0.03774900815784931,0.11189173740707337,0.007635536379739642
1761413690206628000,2.632628173828125,0.043424715706706044,0.10731113161854446,0.010749649812281131
1761413690216642000,2.64264208984375,0.04788344868123531,0.1100860762245953,0.025574074782803654
1761413690226655200,2.6526552734375,0.039813539472222326,0.1091057599503547,0.028577567447721955
1761413690236669200,2.662669189453125,-0.00578092148900032,0.11093429055176675,0.03247976251803338
1761413690246682000,2.67268212890625,-0.004221417087316512,0.14302446923032403,0.03597929507158697
1761413690256696300,2.6826962890625,-0.0073953709483146664,0.13375314834229649,0.05075695829093456
1761413690266709000,2.692708984375,0.02138297976851463,0.14087722806856035,0.05790938732884824
1761413690276722200,2.70272216796875,0.06974807448685169,0.14822875987514852,0.051102191532030695
1761413690286736100,2.712736083984375,0.10107377159893512,0.12592325843423605,0.020823300059139727
1761413690296749000,2.7227490234375,0.10480243673324584,0.09763174138627946,-0.00244834300018847
1761413690306763300,2.73276318359375,0.09665829324424266,0.09057305504642427,-0.04461655583977699
1761413690316776200,2.742776123046875,0.0986433295816183,0.05597586198300123,-0.08438910571448505
1761413690326790100,2.7527900390625,0.1131394724458456,0.04240245998688042,-0.08266067448668181
1761413690336803000,2.762802978515625,0.1200888531923294,0.04710274663232267,-0.06426591674871743
1761413690346817300,2.7728173828125,0.13709668661653995,0.069526029234007,-0.061440557129681106
1761413690356830200,2.782830322265625,0.12656243312060833,0.08960990910269319,-0.04739668807759881
1761413690366844200,2.79284423828125,0.11584697783887386,0.10781856968402861,-0.03241195797882974
1761413690376857300,2.802857421875,0.10776304010450839,0.11935220948085189,-0.0347414238397032
1761413690386870300,2.812870361328125,0.10359130737781524,0.10691665240824222,-0.03523161850944161
1761413690396884200,2.82288427734375,0.15423662198781965,0.08059223418217151,-0.050916313571110365
1761413690406897200,2.832897216796875,0.1700420938849449,0.03502436896692961,-0.052063876171037554
1761413690416911000,2.8429111328125,0.12173778944313525,0.028764102995768186,-0.059169762653484934
1761413690426924300,2.85292431640625,0.08608546130359172,0.008885061516799032,-0.06970913071595132
1761413690436938000,2.86293798828125,0.04584638989567756,0.020490743636526167,-0.043404549701511856
1761413690446951200,2.872951171875,0.00170621939599514,0.025399521933495997,-0.05549648096822202
1761413690456965000,2.882965087890625,-0.010780921733379363,0.060118770474009216,-0.03380129344537854
1761413690466978000,2.89297802734375,-0.06394961734116077,0.08076883285809308,0.0035921792730689048
1761413690476992300,2.9029921875,-0.09990998851656913,0.1117805321175605,0.04031038307845592
1761413690487005200,2.913005126953125,-0.0960638344824314,0.11043854292407632,0.029267157147079705
1761413690497019100,2.92301904296875,-0.07839373775720596,0.0844090890565887,0.02240808503255248
1761413690507032000,2.933031982421875,-0.0649807139545679,0.05899911879431456,0.020194500636309384
1761413690517045200,2.943045166015625,-0.06040566112399101,0.037901458773203195,0.02627330909334123
1761413690527059200,2.95305908203125,-0.03843523685634136,0.0008616217980161308,-0.0017877601996064184
1761413690537072000,2.963072021484375,-0.03885258548557758,-0.02407521452717483,-0.01015307215861976
1761413690547086300,2.97308642578125,-0.021862872239947317,-0.03316043825857341,-0.022108444498851895
1761413690557099000,2.98309912109375,-0.012787000858783721,-0.04633424647785723,-0.025345234462991355
1761413690567113200,2.99311328125,0.006649521017074584,-0.018355448640882968,0.012156886261701583
1761413690577126100,3.003126220703125,-0.019412556478381155,0.012456928654201328,0.037322234113141894
1761413690587140000,3.01314013671875,-0.04654664711952209,0.030680932935141025,0.043066842179745435
1761413690597153300,3.0231533203125,-0.03944529068171978,0.035748153196834026,0.060039458160102366
1761413690607167200,3.033167236328125,-0.01559212140738964,0.05780939755309373,0.038544250188767906
1761413690617180200,3.04318017578125,0.01948328362703323,0.031172771572694182,0.019799729165062306
1761413690627194000,3.053194091796875,0.04083469921350479,-0.005946012390218675,0.015045958766713738
1761413690637207300,3.063207275390625,0.0678343498200178,-0.019789463499374688,0.02048003957942128
1761413690647220200,3.07322021484375,0.0822305394411087,-0.018452844600751996,0.018995280914381147
1761413690657234200,3.083234130859375,0.09040507806837558,-0.02958725594691932,0.012054814126715063
1761413690667247000,3.0932470703125,0.09098083212971687,-0.02180416432265192,0.019919483087211847
1761413690677261000,3.103260986328125,0.08771277024447917,0.006694346539489924,0.02188888346403837
1761413690687274200,3.113274169921875,0.045723055776953694,0.04966134507395327,0.04955642339475452
1761413690697288200,3.1232880859375,0.06147708974778652,0.07144165359698236,0.08732179816551507
1761413690707301000,3.133301025390625,0.06056523559987545,0.08499010381493717,0.09932458984404802
1761413690717315000,3.143315185546875,0.0643751492768526,0.09251881881933659,0.09470409043654798
1761413690727328000,3.153327880859375,0.03161503544747829,0.09069796006772667,0.1162348081126809
1761413690737342200,3.16334228515625,0.026961656683683395,0.09041585519071668,0.11289017385989426
1761413690747355100,3.173355224609375,0.03861117794513702,0.09103793261181563,0.0936996626343578
1761413690757368000,3.1833681640625,0.064406128937006,0.0862398846803233,0.1027579983588308
1761413690767381500,3.193381591796875,0.0762087949335575,0.06459558709450065,0.09097907856404781
1761413690777394400,3.20339453125,0.10961597449481486,0.04600048447884619,0.09388809787854552
1761413690787408600,3.21340869140625,0.13707505930662153,0.019561792223341763,0.09850903567746282
1761413690797421600,3.223421630859375,0.1109738188445568,0.0006108619073405861,0.11216624349951744
1761413690807435500,3.233435546875,0.07094283722937107,0.023649974852427837,0.12075287005901336
1761413690817448700,3.24344873046875,0.05615969411730766,0.04026058911997825,0.12123882694505154
1761413690827462400,3.25346240234375,0.02245090126097202,0.03905307649374008,0.14962218699492513
1761413690837475600,3.2634755859375,-0.01491933671236038,0.03530198033191263,0.1478269741412252
1761413690847489500,3.273489501953125,-0.013605916026234626,0.00836461783926934,0.1533241833180189
1761413690857502500,3.28350244140625,-0.0159206227093935,-0.004345993315055966,0.144795789751783
1761413690867516400,3.293516357421875,0.01483048938512802,-0.053130080630443985,0.14066197788268328
1761413690877529600,3.303529541015625,0.028645664247870444,-0.09157481596749276,0.14557050045132636
1761413690887542500,3.31354248046875,0.06341302624642849,-0.10374394065625965,0.1173521217048168
1761413690897556500,3.323556396484375,0.07482932327389717,-0.06642218146715313,0.08701375512965023
1761413690907569700,3.333569580078125,0.05645137054026127,-0.04792867606244981,0.06883819310031832
1761413690917583400,3.343583251953125,0.06379822617173195,-0.001318644850514829,0.07055054997615516
1761413690927596500,3.353596435546875,0.08254325865209103,0.02868709223680198,0.06742759565003216
1761413690937610800,3.36361083984375,0.054362873828411096,0.05848568937946111,0.052257718242704865
1761413690947623400,3.37362353515625,0.021190672066807744,0.09897307299263775,0.03769377083927393
1761413690957637600,3.3836376953125,-0.0026315175473690033,0.0834059398960322,0.025549744059145448
1761413690967650600,3.393650634765625,-0.051531449794769285,0.08134170084260403,-0.003409223921597004
1761413690977664500,3.40366455078125,-0.08818974010646342,0.10220222763959318,-0.015877660350501536
1761413690987677700,3.413677734375,-0.11642506998777388,0.11108973684180527,-0.06709989806562662
1761413690997691600,3.423691650390625,-0.076692779058218,0.11227072678729891,-0.11149382413066923
1761413691007704600,3.43370458984375,0.06165127727091312,0.09593169600274414,0.004907791916280985
1761413691017717500,3.443717529296875,0.08371288695335388,0.1199483852757141,0.007703413984179497
1761413691027731500,3.4537314453125,0.0717775344878435,0.1455802181277424,-0.01973528562672436
1761413691037744600,3.46374462890625,0.10955869134962558,0.12112400492634623,-0.010605382503382861
1761413691047758600,3.473758544921875,0.09683715694248676,0.11258596674893051,0.017376411008276044
1761413691057771500,3.483771484375,0.06655073975026607,0.13416154648009687,-0.02520977151505649
1761413691067785500,3.493785400390625,0.06418050348758697,0.12327438789326697,-0.049205746793560684
1761413691077798700,3.503798583984375,0.09345978946387767,0.08893913370165973,-0.030256350847519934
1761413691087812400,3.513812255859375,0.09654723408520222,0.09325016530118882,-0.024884960007481277
1761413691097825500,3.523825439453125,0.06797814220488071,0.07742602523621171,-0.017134601609036324
1761413691107839500,3.533839599609375,0.05430091450810432,0.07001198612004518,-0.0454571348497644
1761413691117852400,3.543852294921875,0.061193596631288524,0.07317947370763868,-0.03638736441582441
1761413691127865600,3.553865478515625,0.09204875362217425,0.051279374729841946,-0.043785840636678036
1761413691137879600,3.563879638671875,0.11422492959499359,0.011220409129187463,-0.02834481813777238
1761413691147892500,3.573892578125,0.13966741388738155,-0.046993514104187485,-0.04861402797810733
1761413691157906400,3.583906494140625,0.1550672275930643,-0.10261493662633,-0.06984722401238977
1761413691167919600,3.593919677734375,0.14175766416490077,-0.12081552349906415,-0.05733271995205432
1761413691177933600,3.60393359375,0.08821312098205089,-0.10415241185929626,-0.06202902454212308
1761413691187946500,3.613946533203125,0.02779927655160427,-0.08726173854134976,-0.04570288977175951
1761413691197960700,3.623960693359375,-0.06777940476238727,-0.07898362994175404,-0.057432417466863984
1761413691207973400,3.633973388671875,-0.13134499122202395,-0.06712499597426504,-0.05484002635348588
1761413691217987600,3.643987548828125,-0.19434300692677497,-0.05830415880009532,-0.037098873686045405
1761413691228000800,3.654000732421875,-0.22303367936015128,-0.02679543327130377,-0.02354333614017814
1761413691238013400,3.664013427734375,-0.23376316316723822,-0.03592913578692823,-0.0143564421325922
1761413691248027600,3.674027587890625,-0.23545593855977057,-0.01841061289422214,0.01153477230798453
1761413691258040300,3.684040283203125,-0.22356208714842796,-0.034015922576747834,0.01595584015324712
1761413691268054500,3.694054443359375,-0.16364274823665617,-0.042581871674396095,0.01792111234422773
1761413691278067700,3.704067626953125,-0.1312555593729019,-0.07570935751143842,0.03335957755986601
1761413691288081700,3.71408154296875,-0.06477671581506729,-0.10606467522140592,0.08178527989163994
1761413691298094600,3.724094482421875,-0.02632277425825596,-0.15534695784989744,0.07628295614831149
1761413691308108500,3.734108642578125,-0.004943301621079445,-0.1936275521337986,0.1342421374356374
1761413691318121500,3.74412158203125,0.054720016703009605,-0.20618713744487613,0.185771614469029
1761413691328135400,3.754135498046875,0.13306640818715096,-0.2047942583143711,0.22895532449409364
1761413691338148600,3.764148681640625,0.19704232901334762,-0.1923165060678497,0.328629385362938
1761413691348162600,3.77416259765625,0.23285540067255495,-0.19499694079086183,0.37092111498434094
1761413691358175500,3.784175537109375,0.24901217022538183,-0.16659297634437678,0.3880044978627935
1761413691368188700,3.794188720703125,0.2237871280759573,-0.14891100651826708,0.3674490914922207
1761413691378202400,3.804202392578125,0.16331716954410075,-0.09196476513314991,0.31396380421593784
1761413691388215600,3.814215576171875,0.10174421820640564,-0.05116605054847896,0.23161552014667539
1761413691398229500,3.8242294921875,0.02947276272177696,-0.04225965398270637,0.17792126629482954
1761413691408242400,3.834242431640625,0.003260463100671768,-0.02438723961841315,0.12149970637094229
1761413691418256600,3.844256591796875,-0.028919220492243766,0.014719211030378937,0.06272676101531834
1761413691428269600,3.85426953125,-0.08736381067633628,0.040972134922817344,0.029082411697320638
1761413691438283500,3.864283447265625,-0.10449673178493976,0.08385766571890563,0.0021837737798690794
1761413691448296400,3.87429638671875,-0.10406126297712326,0.13807345922682435,-0.02531272043287754
1761413691458310700,3.884310546875,-0.10954992352128028,0.1900265684997663,-0.055488809118419885
1761413691468323600,3.894323486328125,-0.14363631751835346,0.2229028195220977,-0.05361052109114826
1761413691478336500,3.90433642578125,-0.14045944104790686,0.24041337830405682,-0.09302983708139509
1761413691488350700,3.914350830078125,-0.1426011292517185,0.2412504501827061,-0.08614796861317008
1761413691498363400,3.92436328125,-0.11191782169640063,0.23633345204666256,-0.13538286843597888
1761413691508377600,3.934377685546875,-0.07324877608418465,0.20563688315097242,-0.17267503620442
1761413691518390500,3.944390625,-0.011734276935458183,0.1776618847062811,-0.19797529901452363
1761413691528404500,3.954404541015625,0.06098901396989822,0.12379808297380804,-0.22275084383077917
1761413691538417700,3.964417724609375,0.12206629074513911,0.08653068432044238,-0.2443759983247146
1761413691548431600,3.974431640625,0.16677695460915565,0.07380465640127658,-0.2629650730583817
1761413691558444500,3.984444580078125,0.18475334080457687,0.05125562852807343,-0.2622024546554312
1761413691568458500,3.99445849609375,0.18849194281101225,0.042603206723369653,-0.2895130709072575
1761413691578471400,4.004471435546875,0.21028058077096937,0.05303812803067267,-0.2892412682285532
1761413691588484600,4.014484619140625,0.2448404374986887,0.032822365410625935,-0.17924034953676163
1761413691598498600,4.02449853515625,0.23964111528992652,0.0375673679806292,-0.1949825834719464
1761413691608511500,4.034511474609375,0.18874913244247435,0.0163067724827677,-0.16804697454497217
1761413691618525400,4.044525390625,0.1912088005542755,-0.039693164495564995,-0.1954470591785386
1761413691628538600,4.05453857421875,0.19063596910238265,-0.06673811554852872,-0.16666626077629626
1761413691638552300,4.06455224609375,0.15563538286983966,-0.06113181997407227,-0.1730706113932654
1761413691648565500,4.0745654296875,0.13501111251413822,-0.04343728292733431,-0.18877916225455701
1761413691658579700,4.084579833984375,0.1435638368040323,-0.03796535432226956,-0.1584204104784876
1761413691668592400,4.09459228515625,0.11681085443496704,-0.07330668028388172,-0.12858780146837234
1761413691678606600,4.104606689453125,0.10144611204266547,-0.08800316802579909,-0.11451112612523137
1761413691688619500,4.11461962890625,0.058256958657503126,-0.10478906579501926,-0.1304123134817928
1761413691698633500,4.124633544921875,0.049338908186554904,-0.12568875555861742,-0.1177874078495428
1761413691708646700,4.134646728515625,0.02937339400053024,-0.10754000847097486,-0.1101995100038126
1761413691718659600,4.14465966796875,-0.0024058920979499816,-0.11825385631751269,-0.11527754392046481
1761413691728673500,4.154673583984375,0.002453238371014595,-0.11654241275712847,-0.09231792595237492
1761413691738686500,4.1646865234375,0.015497428861260413,-0.13050032055880872,-0.06438172514811158
1761413691748700700,4.17470068359375,0.015281155762076377,-0.1303306265477091,-0.06093242494445294
1761413691758713600,4.184713623046875,0.002709258958697319,-0.1292800580488518,-0.038771592671237885
1761413691768727300,4.194727294921875,-0.04445172066688537,-0.10801255788616836,-0.02299527380336076
1761413691778740500,4.204740478515625,-0.05629997937083244,-0.09183193253371864,-0.009612681671604513
1761413691788754400,4.21475439453125,-0.05818213985562324,-0.08520265058707445,0.005021517956443131
1761413691798767400,4.224767333984375,-0.05802782607674598,-0.09793182031139731,0.019785335313528774
1761413691808780500,4.234780517578125,-0.04055295966267586,-0.11117664794027805,0.0579118350142613
1761413691818794500,4.24479443359375,-0.015197569131851196,-0.07978650728985667,0.06033486091010272
1761413691828807400,4.254807373046875,0.003968903630971909,-0.06148421360831707,0.09092248953860252
1761413691838821400,4.2648212890625,-0.009963175609707832,-0.039548824121430515,0.09478438913114369
1761413691848834600,4.27483447265625,-0.015062544575333594,-0.02407872165851295,0.12490659220498054
1761413691858848300,4.28484814453125,-0.017919687572121618,-0.008279789100028573,0.11672872910946606
1761413691868861400,4.294861328125,0.016181903994083403,-0.006237798411026597,0.1492648979898542
1761413691878875400,4.30487548828125,0.02618365804851055,-0.014551380182802677,0.13917411394510418
1761413691888888300,4.314888427734375,0.03859773394167423,-0.02103610255960375,0.12017017480023205
1761413691898902500,4.324902587890625,0.02184884371459484,-0.006163710261508822,0.124968441927433
1761413691908915500,4.33491552734375,-0.018975334104895592,-0.005930230299197137,0.10415548059921712
1761413691918928400,4.344928466796875,-0.015978490376472473,-0.006413556836731732,0.10511756709702312
1761413691928942300,4.3549423828125,-0.009690788409113884,-0.001550334714539349,0.07935819887518883
1761413691938955300,4.364955322265625,0.024869652840495107,0.006588255816511809,0.09850914527531712
1761413691948969500,4.374969482421875,0.040595045238733286,0.030981011860258874,0.11676716142371296
1761413691958982400,4.384982421875,0.06457388671934604,0.03065112231876701,0.13715356790293007
1761413691968996600,4.39499658203125,0.08570844468474388,0.036355215711891646,0.15031685472819953
1761413691979009300,4.40500927734375,0.08065349938273429,0.03214793674778193,0.13528755483534186
1761413691989023500,4.4150234375,0.08970014466941356,0.029997590313479303,0.13939721864387392
1761413691999036400,4.425036376953125,0.11629530612826347,0.01480301685631275,0.13797456542961298
1761413692009050400,4.43505029296875,0.11449380966424941,-0.02707808613758534,0.1177179228099063
1761413692019063600,4.4450634765625,0.14414952773749828,-0.05044175486192107,0.11527790924664585
1761413692029077500,4.455077392578125,0.161720255741477,-0.07797825229149312,0.12399013494718819
1761413692039090400,4.46509033203125,0.17020809810161588,-0.05688051920514554,0.13244864161498843
1761413692049103600,4.475103515625,0.1661392412275076,-0.0695375004760921,0.1387867951279506
1761413692059117300,4.485117431640625,0.11812836677432059,-0.04442782833464443,0.13796952392831444
1761413692069130500,4.495130615234375,0.06688683983683585,-0.03924618791304529,0.16115261192135513
1761413692079144400,4.50514453125,0.03733458213806152,-0.013064466093294322,0.16467015505563468
1761413692089157400,4.515157470703125,0.016260229927301407,-0.016996325649507343,0.19878950147423893
1761413692099171300,4.52517138671875,-0.007872925332188606,-0.00991071477010846,0.19107962121665475
1761413692109184500,4.5351845703125,-0.0010574000984430313,-0.016135397971235213,0.15320212784092874
1761413692119198200,4.5451982421875,0.0015630115330219267,-0.016782902094535528,0.10924805449787527
1761413692129211400,4.55521142578125,-0.015084756407141684,-0.03660360098239034,0.09995762705057859
1761413692139224600,4.565224609375,-0.0332312384724617,-0.04790200725123286,0.07502356720436364
1761413692149238300,4.57523828125,-0.037628012126684186,-0.06494231817293912,0.027439064937084912
1761413692159251500,4.58525146484375,-0.033221886122226714,-0.06378255367856472,0.018113785372115672
1761413692169265400,4.595265380859375,-0.03841828572154045,-0.05053571675568819,0.026554464122280477
1761413692179278300,4.6052783203125,-0.02371931376159191,-0.03935852571371942,0.04409183784592897
1761413692189292500,4.61529248046875,0.004281622841954231,-0.02366246900781989,0.03885627528000623
1761413692199305200,4.62530517578125,0.0020446575701236723,-0.02251245872247964,0.051531340196914965
1761413692209319400,4.6353193359375,0.03329904301166534,-0.011941563010588288,0.07758691488634795
1761413692219332400,4.645332275390625,0.06582768617272376,-0.04341945500969886,0.07805741847492755
1761413692229346600,4.6553466796875,0.0838163473278284,-0.0765374788986519,0.04557276058606803
1761413692239359500,4.665359375,0.08192600353658198,-0.11649784296303987,0.0016727189851924776
1761413692249372400,4.675372314453125,0.06784896286725997,-0.12489720332212745,-0.037343678759969766
1761413692259386400,4.685386474609375,0.060891983336210244,-0.14980013737771658,-0.06403795321173966
1761413692269399300,4.6953994140625,0.06449322269856929,-0.14756393929086625,-0.07366250798422842
1761413692279413500,4.70541357421875,0.0821867002993822,-0.14326766686905174,-0.07851316288579255
1761413692289426400,4.715426513671875,0.09478782319724559,-0.13443163212575018,-0.064668140874058
1761413692299440400,4.7254404296875,0.09643734396994114,-0.10852872724737972,-0.019970446089468897
1761413692309453600,4.73545361328125,0.08128419850170612,-0.07391809018049389,-0.011893193824216722
1761413692319467300,4.74546728515625,0.04543605552911758,-0.03829133487362414,0.010389913121797144
1761413692329480400,4.75548046875,-0.012314122650027274,-0.0313970453152433,0.030777305981703102
1761413692339494400,4.765494384765625,-0.045289925056695934,-0.029566980343870817,0.01847772331368178
1761413692349507300,4.77550732421875,-0.05136018488109111,-0.01529865488614887,0.022927651927247644
1761413692359520500,4.7855205078125,-0.0614998861014843,-0.02157408189382404,0.037452801690250635
1761413692369534500,4.795534423828125,-0.05879004262089729,-0.010341872728988528,0.02393770575262606
1761413692379547400,4.80554736328125,-0.031125206103920933,-0.005659669729508459,0.030198775441385804
1761413692389561300,4.815561279296875,-0.0011924246549606323,-0.019073935641162096,0.04063866518475115
1761413692399574500,4.825574462890625,0.009788403564691543,-0.01632755954246968,0.010612031439878046
1761413692409588200,4.835588134765625,0.009476853397488593,-0.021756854582205415,-0.0046828240539878606
1761413692419601400,4.845601318359375,0.04408931709527969,-0.023705723627656695,0.009079341979883611
1761413692429615600,4.85561572265625,0.1018020858734846,-0.029944800680316984,0.00835928407702595
1761413692439628300,4.865628173828125,0.12032909168899059,-0.00841247556898743,0.037832704385928805
1761413692449642500,4.875642578125,0.14339257189035415,-0.0015360869934782386,0.0395703418334946
1761413692459655400,4.885655517578125,0.13912965374886987,-0.0004608589773997664,0.0377556936269626
1761413692469668400,4.89566845703125,0.14448504330217837,-0.003355082581564784,0.06390172307882458
1761413692479682600,4.9056826171875,0.14540040458142756,0.0013178046002984046,0.084949150750041
1761413692489695200,4.9156953125,0.1671066249549389,0.038743316424824294,0.08325487752016633
1761413692499709400,4.92570947265625,0.18373802628219127,0.05063450095504522,0.11190251452941447
1761413692509722400,4.935722412109375,0.17062369316518305,0.08216963956672697,0.08460917820595204
1761413692519736600,4.945736572265625,0.14359890811741352,0.055463930405490094,0.06555690640732646
1761413692529749500,4.95574951171875,0.13447861307263373,0.04278860976025462,0.057267618826590476
1761413692539763500,4.965763427734375,0.13627426431775091,-0.015786000011675058,0.03274210324864835
1761413692549776400,4.9757763671875,0.10088438650667667,-0.029949476855434476,0.022243724783696232
1761413692559789300,4.985789306640625,0.05675532192289829,-0.0173963578177616,0.003007365122437477
1761413692569803500,4.995803466796875,-0.0041571196794509884,-0.028400895706564188,0.008603029705025255
1761413692579816400,5.00581640625,-0.030478724893927573,-0.024937420847080647,0.01483757671304047
1761413692589830400,5.015830322265625,-0.055742930009961125,0.007661876397393644,0.033009229752235116
1761413692599843600,5.025843505859375,-0.07676058359742165,0.004784567395411432,0.021584530222602188
1761413692609857300,5.035857177734375,-0.07751286326944827,0.010790858605504034,0.02851122421324253
1761413692619870500,5.045870361328125,-0.05616963098943233,0.0012937296049669385,0.04527458135709166
1761413692629884400,5.055884521484375,-0.014458148941397667,-0.03801456375885755,0.025611959107778966
1761413692639897300,5.0658974609375,0.010387538501620292,-0.06550210748016834,0.021805516029521823
1761413692649911300,5.075911376953125,-0.0009112696260213852,-0.0749773899750784,-0.020009207197278736
1761413692659924500,5.085924560546875,0.001617372068762779,-0.06784951085653156,-0.043471440925262866
1761413692669937400,5.0959375,-0.018839140504598617,-0.07849113371707499,-0.037712840865924954
1761413692679951400,5.105951416015625,-0.06666004534363747,-0.08101425898652523,-0.034469438497908414
1761413692689964300,5.11596435546875,-0.08519289637804031,-0.035372196023911236,-0.021790428058244285
1761413692699978200,5.125978271484375,-0.0636737230092287,-0.014184921490587293,-0.01244783203229308
1761413692709991400,5.135991455078125,-0.030839959421753882,0.006312726810760796,0.009132204678282142
1761413692720005600,5.146005615234375,-0.0025368250012397764,0.014917619679309426,0.027632907008752226
1761413692730018300,5.156018310546875,-0.01527706410884857,0.023235877626202998,0.011869447622448206
1761413692740032500,5.166032470703125,-0.03434533719420433,0.03543762594293803,0.013952610572054982
1761413692750045200,5.176045166015625,-0.031710897037386894,0.026464484283886848,0.015722944712825117
1761413692760059400,5.186059326171875,-0.05886895307600498,0.013488134865462778,-0.015742781924456356
1761413692770072600,5.196072509765625,-0.023509470403194427,0.028671456276252866,-0.0162264372555539
1761413692780085500,5.20608544921875,0.03804594527781009,-0.0023704189257696268,-0.019489859498292208
1761413692790099700,5.216099609375,0.06736322517693043,-0.013978840991854667,-0.016298296915367244
1761413692800112400,5.2261123046875,0.07342705526053905,0.0058247240981087085,-0.011427293345518409
1761413692810126600,5.236126708984375,0.07475450447201729,0.025961466665193438,-0.007710757040418684
1761413692820139500,5.246139404296875,0.053552726489305494,0.0006811506645753979,-0.028233868576586246
1761413692830153500,5.256153564453125,0.03273322582244873,-0.007384557293355465,-0.04249704293515533
1761413692840166700,5.266166748046875,0.025915947023034094,-0.003786277073062956,-0.042380650013871486
1761413692850180600,5.2761806640625,0.023463293173909185,-0.0024024214992299673,-0.06777655521817505
1761413692860193500,5.286193603515625,0.049259997731447215,0.000550838815793395,-0.027988588578626513
1761413692870206700,5.296206787109375,0.07863397625386714,0.012107896020822226,-0.00795950763709843
1761413692880220700,5.306220703125,0.10119885928332804,0.059537317324243486,0.03263261499218643
1761413692890233600,5.316233642578125,0.12516367223858832,0.07917882372029125,0.10812445729542523
1761413692900247600,5.32624755859375,0.11057868204712867,0.08475819475520402,0.10045081739500164
1761413692910260500,5.336260498046875,0.09966565836668013,0.07453702579643577,0.09563691430725156
1761413692920274400,5.3462744140625,0.0828840349137783,0.06331007732860744,0.10411270090341568
1761413692930287600,5.35628759765625,0.08614625158011913,0.03542659309227019,0.09917944575231522
1761413692940301300,5.36630126953125,0.08868073849380016,0.040607466328889126,0.09572638268899172
1761413692950314500,5.376314453125,0.09485679678022861,0.03114314361941069,0.09335231050141155
1761413692960328700,5.38632861328125,0.06814706903100014,0.005904657466523349,0.10177242138758301
1761413692970341400,5.39634130859375,0.0701917266011238,0.006303337927907705,0.09284889102391898
1761413692980354600,5.4063544921875,0.0433569111675024,0.002929185319691896,0.10098821220733224
1761413692990368500,5.416368408203125,0.002855389431118965,0.00728076812531799,0.0911578691970557
1761413693000381400,5.42638134765625,-0.035757542079687114,0.01830693332403898,0.061570357521809636
1761413693010395600,5.436395751953125,-0.08218845386505126,0.03336889337748289,0.053792307398840784
1761413693020408600,5.44640869140625,-0.11250234358608723,0.04721884729266167,0.04925831723101437
1761413693030422500,5.456422607421875,-0.09946750544607638,0.03824270995892584,0.013991335147246717
1761413693040435500,5.466435546875,-0.036163200271129604,0.005095204247161746,0.021638854225724934
1761413693050449700,5.47644970703125,0.023415362378954887,-0.0057101578077301375,-0.0028366847306489943
1761413693060462600,5.486462646484375,0.061467152875661846,-0.022260858581587672,-0.02460274553261697
1761413693070475500,5.4964755859375,0.061874564632773396,-0.034122707419469954,-0.03576156066767871
1761413693080489700,5.50648974609375,0.049635260784626004,-0.02609232650324702,-0.06140391491372138
1761413693090502400,5.51650244140625,0.08504208973050117,-0.03811382288224995,-0.042947161322832106
1761413693100516600,5.5265166015625,0.0693248806387186,-0.04074515776652843,-0.036696430364996195
1761413693110529500,5.536529541015625,0.062146951833367346,-0.02702562529798597,-0.04494688377268612
1761413693120543500,5.54654345703125,0.029636428850889206,-0.02060337369814515,-0.008552906952984631
1761413693130556700,5.556556640625,0.0022878186762332916,0.026793935433961448,-0.029525990746356544
1761413693140570600,5.566570556640625,-0.008535188633203506,0.02412687164917588,-0.031291356451064345
1761413693150583600,5.57658349609375,-0.014323708906769752,0.02368891862332821,-0.023159560986980795
1761413693160596700,5.5865966796875,-0.011882745495438576,0.029716910208575427,0.0015317396119236945
1761413693170610400,5.5966103515625,0.060164838105440134,0.022896745332330465,0.00734422528296709
1761413693180623600,5.60662353515625,0.13540741835534573,0.011853592466190457,0.01770034573301673
1761413693190637600,5.616637451171875,0.18989830247759817,-0.018551555734872816,0.03591784720793366
1761413693200650500,5.626650390625,0.24218846168518066,-0.04733271946329623,0.054720783887989816
1761413693210664400,5.63666455078125,0.22314707660675048,-0.07029573496486992,0.038866029489040374
1761413693220677600,5.646677734375,0.1364800160229206,-0.06285469824392348,0.015528079727850853
1761413693230691300,5.65669140625,0.036620296388864514,-0.043745179832726716,-0.0032440599551424383
1761413693240704500,5.66670458984375,-0.04324877461791038,-0.01545899654701352,0.007715981204807758
1761413693250718700,5.67671875,-0.09728665427565573,0.02616703570727259,-0.019120733924955127
1761413693260731400,5.6867314453125,-0.11664718830585478,0.04620422689002007,-0.005817929031141102
1761413693270744600,5.69674462890625,-0.11762509342730045,0.052699982117488976,-0.010930194010958075
1761413693280758500,5.706758544921875,-0.08107786227464675,0.014072693287767469,-0.02596303756777197
1761413693290771500,5.716771484375,-0.03977320746183395,-0.0011536270145326851,-0.04785458791293203
1761413693300785700,5.72678564453125,-0.021080781951546668,-0.0002006006060168147,-0.042007907711341975
1761413693310798600,5.736798583984375,-0.006753565913438796,-0.00953603623881936,-0.04282609222643077
1761413693320812500,5.7468125,0.010848726272583008,-0.0011832915004342795,-0.053343650315888225
1761413693330825500,5.756825439453125,0.028162849166989325,0.006684336602129042,-0.08144658598918467
1761413693340839700,5.766839599609375,0.036812019568681714,-0.012663301413878798,-0.05933109069503843
1761413693350852600,5.7768525390625,0.04504559490680694,-0.004905526893958449,-0.05383855769336223
1761413693360865500,5.786865478515625,0.06467968518137931,0.006525931170023977,-0.051918001426942646
1761413693370879700,5.796879638671875,0.04408639448583126,0.016376659381203352,-0.062168688741140066
1761413693380892400,5.806892333984375,0.007486556363105774,0.04213054771032184,-0.030382388379983603
1761413693390906600,5.81690673828125,0.06652034461200237,0.05325140545517206,0.0055308922506868835
1761413693400919600,5.82691943359375,0.12593114947974682,0.0516314761031419,0.04114369209744036
1761413693410933500,5.83693359375,0.12627017217576503,0.06714052233695983,0.05840319872777909
1761413693420946700,5.84694677734375,0.10549041899740695,0.06581427870187909,0.03051766866482794
1761413693430960600,5.856960693359375,0.12463058827519416,0.05075988090038299,0.006205941968038677
1761413693440973600,5.8669736328125,0.14332710543870925,0.019148571779951454,0.06644786389768123
1761413693450986500,5.876986572265625,0.11968494856655597,0.024707740277051925,0.040559827794879676
1761413693461000400,5.88700048828125,0.09214227712452411,0.031170360419899224,0.006819032365083694
1761413693471013600,5.897013671875,0.07881751612722873,0.02788947558570653,0.026902985299006102
1761413693481027600,5.907027587890625,0.04671206681430339,0.04074208902660757,0.022955416717007755
1761413693491040500,5.91704052734375,0.030211598390340804,0.061129335756041105,-0.015972718222811818
1761413693501054500,5.927054443359375,0.049179333710670466,0.06604567630495875,-0.01048508059196174
1761413693511067600,5.937067626953125,0.04011749085485935,0.042270979094319046,-0.016103797256574032
1761413693521081300,5.947081298828125,0.012584756284952163,0.028937450268678364,-0.01769994387421757
1761413693531094500,5.957094482421875,-0.03132745067775249,0.0197578262520954,-0.04021203727051616
1761413693541107700,5.967107666015625,-0.10835223816931247,0.020126878760196268,-0.05876271622255444
1761413693551121400,5.977121337890625,-0.13197802842855452,0.00816931446287781,-0.0875867327120155
1761413693561134600,5.987134521484375,-0.12273147665560245,0.034457382733933624,-0.054730282368697224
1761413693571148500,5.9971484375,-0.05577624775767326,0.00811564804688096,-0.029479265527799725
1761413693581161500,6.007161376953125,-0.01268120239675045,-0.011638013486750424,-0.028531536348909137
