time,seconds_elapsed,z,y,x
1761413464137868300,0.069868408203125,-0.02002418227493763,0.023578038439154625,0.01947341114282608
1761413464147881500,0.079881591796875,-0.012950560078024864,0.029158426448702812,0.0019178539514541626
1761413464157894400,0.089894287109375,-0.006511351093649864,0.03509025648236275,-0.014794841408729553
1761413464167908400,0.099908447265625,-0.002761353738605976,0.033281970769166946,-0.025749223306775093
1761413464177921300,0.10992138671875,-0.004988378845155239,0.01592138782143593,-0.02299460954964161
1761413464187934500,0.1199345703125,-0.007154594175517559,-0.0055101350881159306,-0.017268814146518707
1761413464197948400,0.129948486328125,-0.005601654760539532,-0.013631797395646572,-0.004454345442354679
1761413464207961300,0.13996142578125,-0.0043648830614984035,-0.007448203861713409,0.0017297810409218073
1761413464217975300,0.149975341796875,0.000036266574170440435,0.010399095714092255,0.006712134927511215
1761413464227988500,0.159988525390625,0.008082474581897259,0.027600716799497604,0.0010100409854203463
1761413464238001400,0.17000146484375,0.01567194238305092,0.04313081502914429,-0.009222734719514847
1761413464248015400,0.180015380859375,0.02320389449596405,0.0492081493139267,-0.020771533250808716
1761413464258028500,0.190028564453125,0.029744459316134453,0.0459342822432518,-0.030351337045431137
1761413464268041500,0.20004150390625,0.026675432920455933,0.03469334542751312,-0.029195258393883705
1761413464278055400,0.210055419921875,0.024785032495856285,0.019563158974051476,-0.03222290053963661
1761413464288068400,0.220068359375,0.025519000366330147,0.00277059618383646,-0.030300630256533623
1761413464298081300,0.230081298828125,0.025493472814559937,-0.0034134758170694113,-0.030504871159791946
1761413464308095500,0.240095458984375,0.029680494219064713,0.005508113652467728,-0.0401172861456871
1761413464318108400,0.2501083984375,0.037958141416311264,0.019109267741441727,-0.054656170308589935
1761413464328121300,0.260121337890625,0.04727734252810478,0.030060186982154846,-0.06173032522201538
1761413464338135600,0.270135498046875,0.05164629593491554,0.02234240248799324,-0.06830883771181107
1761413464348148200,0.280148193359375,0.05592573061585426,0.003951676655560732,-0.07082206010818481
1761413464358161400,0.290161376953125,0.056329693645238876,-0.02377401664853096,-0.0639766976237297
1761413464368175600,0.300175537109375,0.04999136924743652,-0.05657164379954338,-0.060966264456510544
1761413464378188300,0.310188232421875,0.04351295530796051,-0.07793591171503067,-0.059800706803798676
1761413464388201500,0.320201416015625,0.03182833641767502,-0.07631485164165497,-0.06391609460115433
1761413464398215200,0.330215087890625,0.02847336418926716,-0.072210893034935,-0.06541631370782852
1761413464408228400,0.340228271484375,0.03136608749628067,-0.050110649317502975,-0.07079269737005234
1761413464418241500,0.350241455078125,0.03133299574255943,-0.01818324252963066,-0.06904389709234238
1761413464428255200,0.360255126953125,0.03374155983328819,0.0013124290853738785,-0.06101100519299507
1761413464438268400,0.370268310546875,0.0614008754491806,0.004630601964890957,-0.0427442267537117
1761413464448282400,0.380282470703125,0.09581450372934341,0.007762479595839977,-0.012727472931146622
1761413464458295300,0.39029541015625,0.10695915669202805,0.005080488510429859,0.029542451724410057
1761413464468308500,0.40030859375,0.09583193808794022,-0.0075452919118106365,0.05435672029852867
1761413464478322400,0.410322509765625,0.09047167003154755,-0.014281836338341236,0.06382215768098831
1761413464488335400,0.42033544921875,0.08862823247909546,-0.01614631526172161,0.06667467206716537
1761413464498348500,0.4303486328125,0.07599693536758423,-0.003383538220077753,0.05740532651543617
1761413464508362200,0.4403623046875,0.06195728853344917,0.009341311641037464,0.03803562372922897
1761413464518375400,0.45037548828125,0.05624707415699959,0.01771240308880806,0.012827551923692226
1761413464528388600,0.460388671875,0.04137571528553963,0.04462683945894241,-0.0053631700575351715
1761413464538402300,0.47040234375,0.024108627811074257,0.06414346396923065,-0.011481646448373795
1761413464548415200,0.480415283203125,0.01745472103357315,0.07055049389600754,-0.01890627108514309
1761413464558428200,0.49042822265625,0.017932945862412453,0.07098962366580963,-0.026418190449476242
1761413464568442400,0.5004423828125,0.019700219854712486,0.06659168004989624,-0.027505293488502502
1761413464578455300,0.510455322265625,0.021242722868919373,0.06882047653198242,-0.02748452126979828
1761413464588468200,0.52046826171875,0.030098531395196915,0.055069249123334885,-0.022155534476041794
1761413464598482400,0.530482421875,0.036355894058942795,0.023347007110714912,-0.013219831511378288
1761413464608495400,0.540495361328125,0.031121186912059784,-0.005617531947791576,-0.0010417286539450288
1761413464618509300,0.55050927734375,0.03266673907637596,-0.02365317940711975,0.0051833754405379295
1761413464628522200,0.560522216796875,0.03486490994691849,-0.027692129835486412,0.005869139917194843
1761413464638535200,0.57053515625,0.03242401406168938,-0.03279789537191391,0.008315132930874825
1761413464648549400,0.58054931640625,0.028093181550502777,-0.032172851264476776,0.01069679856300354
1761413464658562300,0.590562255859375,0.035170454531908035,-0.03742010146379471,0.00915515422821045
1761413464668575200,0.6005751953125,0.038870919495821,-0.02358631044626236,0.004274378996342421
1761413464678589400,0.61058935546875,0.041876766830682755,-0.014520149677991867,0.007648354396224022
1761413464688602000,0.62060205078125,0.03878776729106903,-0.0165817029774189,0.004125525243580341
1761413464698615300,0.630615234375,0.04168874770402908,-0.021439308300614357,0.005290391854941845
1761413464708629200,0.640629150390625,0.03546201065182686,-0.018111689016222954,0.01154535822570324
1761413464718642200,0.65064208984375,0.019984418526291847,-0.00673688855022192,0.01809113658964634
1761413464728655400,0.6606552734375,0.012995483353734016,0.007304628379642963,0.02495117299258709
1761413464738669000,0.6706689453125,0.0049083721823990345,0.02115195244550705,0.03276660293340683
1761413464748682200,0.68068212890625,-0.01578172668814659,0.019610781222581863,0.036601558327674866
1761413464758695400,0.6906953125,-0.03514054790139198,0.022062519565224648,0.029206575825810432
1761413464768709000,0.700709228515625,-0.04686325043439865,0.013280212879180908,0.01878296211361885
1761413464778722300,0.710722412109375,-0.05271124094724655,0.005095347296446562,0.008425157517194748
1761413464788735200,0.7207353515625,-0.06345576047897339,-0.00013004103675484657,0.0020684583578258753
1761413464798749200,0.730749267578125,-0.06835643947124481,-0.0030162103939801455,0.00020061153918504715
1761413464808762400,0.740762451171875,-0.06259708851575851,0.004712016321718693,0.006882748566567898
1761413464818775300,0.750775390625,-0.05661981180310249,0.012091480195522308,0.016115712001919746
1761413464828789200,0.760789306640625,-0.05840199813246727,0.014969291165471077,0.020372508093714714
1761413464838802400,0.770802490234375,-0.058243077248334885,0.027251359075307846,0.024128535762429237
1761413464848816000,0.780816162109375,-0.06054218113422394,0.0414167121052742,0.021671237424016
1761413464858829300,0.790829345703125,-0.05693455785512924,0.05468311905860901,0.012557110749185085
1761413464868842200,0.80084228515625,-0.050337374210357666,0.0740906372666359,0.01360772829502821
1761413464878856200,0.810856201171875,-0.042999301105737686,0.08328626304864883,0.013406393118202686
1761413464888869400,0.820869384765625,-0.03711318224668503,0.08799766004085541,0.021008387207984924
1761413464898882000,0.830882080078125,-0.02559695392847061,0.1048211008310318,0.03960902616381645
1761413464908896300,0.840896240234375,-0.0069119492545723915,0.11267928779125214,0.059125736355781555
1761413464918909200,0.8509091796875,0.007139430847018957,0.10691685974597931,0.0726294070482254
1761413464928922000,0.860922119140625,0.02089119516313076,0.09208837896585464,0.07651735097169876
1761413464938936300,0.870936279296875,0.037941474467515945,0.07416581362485886,0.07086752355098724
1761413464948949200,0.88094921875,0.052778210490942,0.05295906215906143,0.059974126517772675
1761413464958962200,0.890962158203125,0.054242148995399475,0.031734734773635864,0.047519054263830185
1761413464968976400,0.900976318359375,0.05073849484324455,0.020712444558739662,0.043056927621364594
1761413464978989300,0.9109892578125,0.04480587691068649,0.018095843493938446,0.03502122685313225
1761413464989002200,0.921002197265625,0.039520833641290665,0.019064700230956078,0.03701620176434517
1761413464999016200,0.93101611328125,0.03268279507756233,0.02526911348104477,0.0357353650033474
1761413465009029000,0.941029052734375,0.02441314607858658,0.03218374401330948,0.02896188385784626
1761413465019042300,0.951042236328125,0.01174489501863718,0.04618537798523903,0.017171457409858704
1761413465029056300,0.96105615234375,0.00943060778081417,0.05726519227027893,-0.0001497413031756878
1761413465039069200,0.971069091796875,0.003284958889707923,0.05828724801540375,-0.02140302024781704
1761413465049082400,0.981082275390625,-0.00127517175860703,0.03880729526281357,-0.03953861817717552
1761413465059096300,0.991096435546875,-0.007671828381717205,0.012563047930598259,-0.053428974002599716
1761413465069109200,1.001109130859375,-0.013476453721523285,-0.008542504161596298,-0.05772465467453003
1761413465079123200,1.011123291015625,-0.022495446726679802,-0.023319421336054802,-0.07355385273694992
1761413465089136400,1.021136474609375,-0.03332146257162094,-0.021456807851791382,-0.08670134842395782
1761413465099149300,1.0311494140625,-0.04385192692279816,-0.010713654570281506,-0.08847206830978394
1761413465109163300,1.041163330078125,-0.059295594692230225,-0.002654929179698229,-0.08078591525554657
1761413465119176200,1.05117626953125,-0.0707329511642456,0.0053131855092942715,-0.06758934259414673
1761413465129189400,1.061189453125,-0.07768646627664566,0.013035554438829422,-0.04979410395026207
1761413465139203300,1.071203369140625,-0.07935981452465057,0.022630508989095688,-0.036060232669115067
1761413465149216300,1.08121630859375,-0.08511810004711151,0.03673061355948448,-0.026014525443315506
1761413465159229200,1.091229248046875,-0.08208633214235306,0.03850598633289337,-0.021319303661584854
1761413465169243400,1.101243408203125,-0.0836179107427597,0.03772221878170967,-0.0211041197180748
1761413465179256300,1.11125634765625,-0.08321551978588104,0.03782888501882553,-0.022690944373607635
1761413465189269200,1.121269287109375,-0.0814192146062851,0.037496790289878845,-0.026296596974134445
1761413465199283500,1.131283447265625,-0.07677847146987915,0.02899116277694702,-0.02635193057358265
1761413465209296100,1.141296142578125,-0.06894078850746155,0.024025965481996536,-0.028798310086131096
1761413465219309300,1.151309326171875,-0.06380364298820496,0.01574338786303997,-0.03069506399333477
1761413465229323300,1.1613232421875,-0.058801423758268356,0.012889277189970016,-0.027669448405504227
1761413465239336200,1.171336181640625,-0.0516551174223423,0.017637088894844055,-0.021013211458921432
1761413465249349400,1.181349365234375,-0.04392475634813309,0.01802857220172882,-0.017229925841093063
1761413465259363000,1.191363037109375,-0.03947457671165466,0.024508366361260414,-0.016929494217038155
1761413465269376300,1.201376220703125,-0.028165465220808983,0.01943637616932392,-0.023955978453159332
1761413465279389400,1.211389404296875,-0.027076024562120438,0.01583174802362919,-0.03774501010775566
1761413465289403100,1.221403076171875,-0.028204405680298805,0.013533439487218857,-0.04976412281394005
1761413465299416300,1.231416259765625,-0.027071762830018997,0.01168840192258358,-0.057808466255664825
1761413465309429200,1.24142919921875,-0.02944197691977024,0.014195235446095467,-0.05988413468003273
1761413465319443200,1.251443115234375,-0.032631922513246536,0.020930511876940727,-0.056819744408130646
1761413465329456400,1.261456298828125,-0.031478505581617355,0.02316916547715664,-0.05060126632452011
1761413465339469300,1.27146923828125,-0.028011109679937363,0.024512406438589096,-0.04917756840586662
1761413465349483300,1.281483154296875,-0.02539988048374653,0.022866839542984962,-0.04928063228726387
1761413465359496400,1.291496337890625,-0.01845243200659752,0.025629108771681786,-0.04584516957402229
1761413465369509000,1.301509033203125,-0.015887541696429253,0.02660968527197838,-0.04550108686089516
1761413465379523300,1.3115234375,-0.017131594941020012,0.024044379591941833,-0.03573666140437126
1761413465389536300,1.321536376953125,-0.020648298785090446,0.020389724522829056,-0.030574923381209373
1761413465399550200,1.33155029296875,-0.02547341398894787,0.014756073243916035,-0.025045668706297874
1761413465409563400,1.3415634765625,-0.027966665104031563,0.008518418297171593,-0.020351046696305275
1761413465419576000,1.351576171875,-0.03203602507710457,0.005472912918776274,-0.02355816215276718
1761413465429590300,1.36159033203125,-0.03357267007231712,0.008997606113553047,-0.0248777586966753
1761413465439603500,1.371603515625,-0.03517783433198929,0.013105509802699089,-0.03110523521900177
1761413465449616100,1.3816162109375,-0.037556570023298264,0.023182643577456474,-0.03380834683775902
1761413465459630300,1.39163037109375,-0.040191974490880966,0.021493973210453987,-0.032614730298519135
1761413465469643300,1.401643310546875,-0.04157735034823418,0.02506527118384838,-0.028883108869194984
1761413465479656200,1.41165625,-0.03715316951274872,0.01746467314660549,-0.019561592489480972
1761413465489670400,1.42167041015625,-0.03866664320230484,0.007694067899137735,-0.015512787736952305
1761413465499683300,1.431683349609375,-0.03734951093792915,0.0015497244894504547,-0.010106133297085762
1761413465509696300,1.4416962890625,-0.03693113103508949,-0.003299092873930931,0.0001720711588859558
1761413465519710200,1.451710205078125,-0.03640475124120712,-0.001779430778697133,-0.0021641310304403305
1761413465529723100,1.46172314453125,-0.03922716900706291,-0.0007048454135656357,-0.004196122754365206
1761413465539736800,1.47173681640625,-0.0421980544924736,0.0013916580937802792,-0.010005353018641472
1761413465549750800,1.481750732421875,-0.04369474947452545,0.008227193728089333,-0.006316342856734991
1761413465559764000,1.491763916015625,-0.04503101855516434,0.012294860556721687,-0.004379570949822664
1761413465569777000,1.50177685546875,-0.042190492153167725,0.009501736611127853,0.0024005707819014788
1761413465579790800,1.511790771484375,-0.04066426306962967,0.0029086177237331867,0.004232644569128752
1761413465589803800,1.5218037109375,-0.03868526965379715,-0.004810022190213203,0.009995192289352417
1761413465599816700,1.531816650390625,-0.03319519758224487,-0.0036240839399397373,0.013281353749334812
1761413465609831000,1.541830810546875,-0.03179384395480156,-0.0028363210149109364,0.016377011314034462
1761413465619843800,1.55184375,-0.027478082105517387,-0.0006960723549127579,0.02018853649497032
1761413465629856800,1.561856689453125,-0.025481510907411575,0.005669681821018457,0.024230947718024254
1761413465639871000,1.57187109375,-0.026002978906035423,0.009150980971753597,0.028736261650919914
1761413465649883600,1.581883544921875,-0.0224913340061903,0.00973554514348507,0.03278612717986107
1761413465659896800,1.591896728515625,-0.02339489571750164,0.011412452906370163,0.03613545745611191
1761413465669910800,1.601910888671875,-0.022649211809039116,0.016783514991402626,0.03775971755385399
1761413465679923700,1.611923828125,-0.017981387674808502,0.029306771233677864,0.03317445516586304
1761413465689937000,1.62193701171875,-0.015403714962303638,0.037299446761608124,0.023834479972720146
1761413465699950600,1.63195068359375,-0.009074258618056774,0.0431852787733078,0.009455601684749126
1761413465709963800,1.6419638671875,-0.008953085169196129,0.037378787994384766,-0.004780858755111694
1761413465719977000,1.65197705078125,-0.009006417356431484,0.020591389387845993,-0.01755453832447529
1761413465729990700,1.66199072265625,-0.01174707617610693,-0.005728632211685181,-0.02406836487352848
1761413465740003800,1.67200390625,-0.015294970944523811,-0.0274654608219862,-0.02994336560368538
1761413465750017000,1.68201708984375,-0.016236664727330208,-0.03609197214245796,-0.022256949916481972
1761413465760030700,1.69203076171875,-0.015162010677158833,-0.03796987235546112,-0.018721243366599083
1761413465770044000,1.7020439453125,-0.01330498792231083,-0.03737625107169151,-0.014201592653989792
1761413465780056800,1.712056884765625,-0.008983743377029896,-0.02893376350402832,-0.010857727378606796
1761413465790070800,1.72207080078125,-0.006860936991870403,-0.014277590438723564,-0.007185494527220726
1761413465800084000,1.732083984375,-0.0018382533453404903,-0.0088197635486722,-0.00045331637375056744
1761413465810096600,1.7420966796875,-0.0004366316134110093,-0.004038856364786625,0.0018825421575456858
1761413465820110800,1.75211083984375,-0.005562033969908953,-0.003777788020670414,0.009256268851459026
1761413465830123800,1.762123779296875,-0.007892300374805927,0.001560252159833908,0.012456855736672878
1761413465840136700,1.77213671875,-0.008850030601024628,0.00012157345190644264,0.010090653784573078
1761413465850151000,1.78215087890625,-0.011198672465980053,-0.0024611603002995253,0.005938253365457058
1761413465860163800,1.792163818359375,-0.018048670142889023,-0.007959545589983463,0.001238100929185748
1761413465870176800,1.8021767578125,-0.020956309512257576,-0.013133002445101738,-0.0008442248217761517
1761413465880191000,1.81219091796875,-0.02276706136763096,-0.021105870604515076,-0.004791922867298126
1761413465890203600,1.82220361328125,-0.02270953729748726,-0.01644853502511978,-0.005650792270898819
1761413465900216800,1.832216796875,-0.02679840475320816,-0.012330036610364914,-0.0020791932474821806
1761413465910230800,1.842230712890625,-0.029718028381466866,-0.0006635268218815327,-0.0025939822662621737
1761413465920243700,1.85224365234375,-0.03082771971821785,0.014057276770472527,-0.0005746351089328527
1761413465930258000,1.8622578125,-0.030622921884059906,0.02033328264951706,-0.0039802854880690575
1761413465940270800,1.872270751953125,-0.029605969786643982,0.01515720784664154,-0.00629709055647254
1761413465950283800,1.88228369140625,-0.03170960023999214,0.0011830697767436504,-0.013751278631389141
1761413465960297700,1.892297607421875,-0.02870146930217743,-0.006557791493833065,-0.015402385964989662
1761413465970311000,1.902310791015625,-0.02743859961628914,-0.014117973856627941,-0.01473233476281166
1761413465980323800,1.91232373046875,-0.02350613661110401,-0.020212296396493912,-0.010915467515587807
1761413465990337800,1.922337890625,-0.023045143112540245,-0.021568376570940018,-0.007544704247266054
1761413466000350700,1.932350830078125,-0.020857110619544983,-0.017977088689804077,-0.006475134752690792
1761413466010364000,1.942364013671875,-0.013744340278208256,-0.007766795344650745,-0.0045073251239955425
1761413466020377900,1.9523779296875,-0.007818669080734253,-0.0012366620358079672,-0.007113039493560791
1761413466030390800,1.962390869140625,-0.003954954445362091,0.005827372428029776,-0.009097094647586346
1761413466040404000,1.972404052734375,0.003345855977386236,0.016205694526433945,-0.006795900873839855
1761413466050418000,1.98241796875,0.01057900208979845,0.01749652996659279,0.004858625121414661
1761413466060430800,1.992430908203125,0.015018518082797527,0.01848103106021881,0.01207783818244934
1761413466070443800,2.00244384765625,0.016961826011538506,0.013346988707780838,0.017646240070462227
1761413466080458000,2.0124580078125,0.01716684177517891,0.01176675409078598,0.021127119660377502
1761413466090471000,2.022470947265625,0.0218630600720644,0.015399839729070663,0.01763065531849861
1761413466100483800,2.03248388671875,0.024568576365709305,0.014036426320672035,0.013032021000981331
1761413466110497800,2.042497802734375,0.025816800072789192,0.01965835876762867,-0.003022046759724617
1761413466120510700,2.0525107421875,0.024418767541646957,0.03514803946018219,-0.01633111760020256
1761413466130524000,2.06252392578125,0.020193662494421005,0.04153935983777046,-0.02728097140789032
1761413466140537900,2.072537841796875,0.01542087271809578,0.031533267349004745,-0.029941124841570854
1761413466150550800,2.08255078125,0.0027072092052549124,0.03444037213921547,-0.03070598468184471
1761413466160563700,2.092563720703125,0.006698222365230322,0.031238457188010216,-0.02270212024450302
1761413466170577700,2.10257763671875,0.00958668626844883,0.025200538337230682,-0.008803614415228367
1761413466180590800,2.1125908203125,0.010746631771326065,0.004757376853376627,0.0030636200681328773
1761413466190603800,2.122603759765625,0.016143260523676872,-0.0021468682680279016,0.006151288747787476
1761413466200617700,2.13261767578125,0.01902051270008087,-0.00013770954683423042,0.004748954437673092
1761413466210631000,2.142630859375,0.018248194828629494,-0.00021254410967230797,0.006641663145273924
1761413466220643800,2.152643798828125,0.016182489693164825,-0.0033103800378739834,0.007116890512406826
1761413466230657800,2.16265771484375,0.008422037586569786,-0.00553065724670887,0.011817369610071182
1761413466240671000,2.1726708984375,-0.001637184526771307,-0.008782745338976383,0.006500463932752609
1761413466250684000,2.182683837890625,-0.012077574618160725,-0.0031959661282598972,-0.0002706234809011221
1761413466260697900,2.19269775390625,-0.020352117717266083,0.00533040426671505,-0.0058722118847072124
1761413466270710800,2.202710693359375,-0.02538975328207016,0.015713803470134735,-0.008178509771823883
1761413466280723700,2.2127236328125,-0.028292469680309296,0.01876812055706978,-0.010361691005527973
1761413466290738000,2.222738037109375,-0.026865549385547638,0.017613640055060387,-0.005817539524286985
1761413466300750800,2.232750732421875,-0.03064788691699505,0.01567957177758217,-0.002828640630468726
1761413466310763800,2.242763671875,-0.03229798004031181,0.011336755938827991,-0.00011541205458343029
1761413466320778000,2.252778076171875,-0.03487454354763031,0.01175105944275856,0.001040804898366332
1761413466330790700,2.262790771484375,-0.035081204026937485,0.010416015982627869,0.004801720846444368
1761413466340803800,2.272803955078125,-0.030429353937506676,0.004586045630276203,0.010592088103294373
1761413466350817800,2.28281787109375,-0.03426270931959152,0.000829656608402729,0.01803429238498211
1761413466360830700,2.292830810546875,-0.03244767338037491,-0.00369091285392642,0.02651890553534031
1761413466370844000,2.302843994140625,-0.032057251781225204,0.0020497972145676613,0.033236198127269745
1761413466380857600,2.312857666015625,-0.036939963698387146,0.019275758415460587,0.026975277811288834
1761413466390870800,2.322870849609375,-0.04135681688785553,0.02349819988012314,0.012506856583058834
1761413466400884000,2.332884033203125,-0.04917578399181366,0.03325139358639717,-0.006097626406699419
1761413466410897700,2.342897705078125,-0.05021175369620323,0.03573212772607803,-0.02293120138347149
1761413466420910800,2.352910888671875,-0.054479777812957764,0.04184376075863838,-0.030127089470624924
1761413466430923800,2.362923828125,-0.04913800582289696,0.03714567795395851,-0.0236622653901577
1761413466440937700,2.372937744140625,-0.048448141664266586,0.029173457995057106,-0.008369474671781063
1761413466450951000,2.382950927734375,-0.04442650452256203,0.011500721797347069,0.006995100062340498
1761413466460963800,2.3929638671875,-0.03855301812291145,0.004970038775354624,0.03270049765706062
1761413466470977800,2.402977783203125,-0.03816233202815056,0.011467885226011276,0.04977988079190254
1761413466480991000,2.412990966796875,-0.03150094673037529,0.009679822251200676,0.057097140699625015
1761413466491003600,2.423003662109375,-0.02693309262394905,0.010839628987014294,0.057037752121686935
1761413466501017900,2.433017822265625,-0.020904701203107834,0.010315824300050735,0.0565173514187336
1761413466511031000,2.443031005859375,-0.015572254545986652,0.013337980955839157,0.055899497121572495
1761413466521043700,2.453043701171875,-0.014936797320842743,0.01556271594017744,0.04814455658197403
1761413466531058000,2.463057861328125,-0.016093142330646515,0.012674516998231411,0.043606530874967575
1761413466541071000,2.473071044921875,-0.018708297982811928,0.013805726543068886,0.03592819720506668
1761413466551084300,2.483084228515625,-0.020863328129053116,0.011755093932151794,0.03243306279182434
1761413466561098000,2.493097900390625,-0.01791561208665371,0.013815516605973244,0.0254181120544672
1761413466571111200,2.503111083984375,-0.009943973273038864,0.010214658454060555,0.021713389083743095
1761413466581124000,2.5131240234375,-0.00022781267762184143,0.01950075477361679,0.025567812845110893
1761413466591138000,2.523137939453125,0.012914088554680347,0.02172955498099327,0.031177228316664696
1761413466601151200,2.533151123046875,0.021027537062764168,0.014315783977508545,0.04301851987838745
1761413466611164200,2.5431640625,0.026600999757647514,-0.00030363816767930984,0.04608754813671112
1761413466621178000,2.55317822265625,0.02978109009563923,-0.01583746448159218,0.04461279883980751
1761413466631191300,2.56319140625,0.03356464207172394,-0.02619476616382599,0.041509948670864105
1761413466641204200,2.573204345703125,0.03283259645104408,-0.027624309062957764,0.036654725670814514
1761413466651218200,2.58321826171875,0.03397030010819435,-0.021979739889502525,0.023839594796299934
1761413466661231400,2.5932314453125,0.03655141592025757,-0.01606697402894497,0.008012739941477776
1761413466671244000,2.603244140625,0.04155522957444191,-0.017886444926261902,-0.004875629208981991
1761413466681258200,2.61325830078125,0.04110348969697952,-0.021077075973153114,-0.018649326637387276
1761413466691271200,2.623271240234375,0.043275561183691025,-0.0274801142513752,-0.02745586633682251
1761413466701284000,2.6332841796875,0.03998112678527832,-0.027720818296074867,-0.03590460121631622
1761413466711298300,2.64329833984375,0.03415785729885101,-0.023385725915431976,-0.03710941597819328
1761413466721311000,2.65331103515625,0.0330214761197567,-0.01125515066087246,-0.03437632694840431
1761413466731324200,2.66332421875,0.0344337522983551,-0.0070478892885148525,-0.029712863266468048
1761413466741338400,2.67333837890625,0.036292292177677155,0.0005607390776276588,-0.023181932047009468
1761413466751351000,2.68335107421875,0.03693970665335655,-0.0018965594936162233,-0.015865961089730263
1761413466761364200,2.6933642578125,0.03595716878771782,-0.004916147794574499,-0.0042961360886693
1761413466771378200,2.703378173828125,0.039537522941827774,-0.010454457253217697,-0.002727268263697624
1761413466781391000,2.71339111328125,0.04099319875240326,-0.008649492636322975,-0.006660868413746357
1761413466791404300,2.723404296875,0.042770858854055405,-0.006514435634016991,-0.008719225414097309
1761413466801418000,2.73341796875,0.04779617115855217,-0.008519161492586136,-0.016919992864131927
1761413466811431200,2.74343115234375,0.047101352363824844,-0.012740271165966988,-0.022966966032981873
1761413466821444400,2.7534443359375,0.04479352757334709,-0.014513240195810795,-0.024833746254444122
1761413466831458000,2.7634580078125,0.04073780030012131,-0.009799977764487267,-0.021126892417669296
1761413466841471200,2.77347119140625,0.04002662003040314,-0.010913042351603508,-0.020368428900837898
1761413466851484400,2.783484375,0.03922101482748985,-0.004769396036863327,-0.01694839634001255
1761413466861498000,2.793498046875,0.041876547038555145,-0.0032507150899618864,-0.02000991813838482
1761413466871511300,2.80351123046875,0.042892277240753174,-0.000026159919798374176,-0.019809914752840996
1761413466881524000,2.81352392578125,0.04172385856509209,0.0065707857720553875,-0.01976800337433815
1761413466891538200,2.8235380859375,0.03896163031458855,0.012484867125749588,-0.01731150411069393
1761413466901551400,2.83355126953125,0.03415507823228836,0.016783401370048523,-0.010683671571314335
1761413466911564000,2.84356396484375,0.02897762879729271,0.01641135849058628,0.0010166605934500694
1761413466921578200,2.853578125,0.028136322274804115,0.013563034124672413,0.008333887904882431
1761413466931591200,2.863591064453125,0.026226302608847618,0.016742050647735596,0.007577816490083933
1761413466941604000,2.87360400390625,0.024348173290491104,0.0217659380286932,0.000292112585157156
1761413466951618300,2.883618408203125,0.02310847118496895,0.020615186542272568,-0.005600397475063801
1761413466961631200,2.89363134765625,0.023767443373799324,0.016205212101340294,-0.006610412150621414
1761413466971644200,2.90364404296875,0.020521583035588264,0.01744597963988781,-0.003009551903232932
1761413466981658000,2.913658203125,0.023801404982805252,0.027501871809363365,-0.00024047493934631348
1761413466991671000,2.923671142578125,0.019437547773122787,0.03552784025669098,0.00946861132979393
1761413467001684200,2.933684326171875,0.018664676696062088,0.03698087856173515,0.016043202951550484
1761413467011698200,2.9436982421875,0.020351257175207138,0.03776491433382034,0.018873609602451324
1761413467021711000,2.953711181640625,0.020980017259716988,0.034574851393699646,0.007444277405738831
1761413467031724300,2.963724365234375,0.024521222338080406,0.023577596992254257,-0.004260048735886812
1761413467041738200,2.97373828125,0.021402856335043907,0.023150045424699783,-0.02032722346484661
1761413467051751200,2.983751220703125,0.023837517946958542,0.0254741869866848,-0.026075124740600586
1761413467061764400,2.993764404296875,0.019624512642621994,0.0268804132938385,-0.026515375822782516
1761413467071778300,3.0037783203125,0.006959318183362484,0.06466561555862427,-0.034397002309560776
1761413467081791200,3.013791259765625,0.008336114697158337,0.10132451355457306,-0.04645897448062897
1761413467091804200,3.02380419921875,0.015631312504410744,0.13655653595924377,-0.055882569402456284
1761413467101818000,3.033818115234375,0.014739652164280415,0.1558382511138916,-0.052510008215904236
1761413467111831300,3.043831298828125,0.006700101308524609,0.1761336624622345,-0.05126684531569481
1761413467121844200,3.05384423828125,0.009009131230413914,0.20013797283172607,-0.049085889011621475
1761413467131858200,3.063858154296875,0.018451103940606117,0.22389842569828033,-0.04788986220955849
1761413467141871000,3.07387109375,0.022861680015921593,0.22098714113235474,-0.048749830573797226
1761413467151884000,3.083884033203125,0.02807561680674553,0.18448558449745178,-0.04252016544342041
1761413467161898200,3.093898193359375,0.035245008766651154,0.13852666318416595,-0.026660097762942314
1761413467171911200,3.1039111328125,0.043861132115125656,0.09804953634738922,-0.0032599668484181166
1761413467181924000,3.113924072265625,0.05618301033973694,0.04831676557660103,0.017516884952783585
1761413467191938000,3.12393798828125,0.06839147210121155,0.009301988407969475,0.03591480106115341
1761413467201951200,3.133951171875,0.08325660228729248,-0.018331991508603096,0.04427167400717735
1761413467211964200,3.143964111328125,0.09045831859111786,-0.030799847096204758,0.042966194450855255
1761413467221978000,3.15397802734375,0.09844856709241867,-0.027674201875925064,0.039560746401548386
1761413467231991300,3.1639912109375,0.09744482487440109,-0.014658534899353981,0.03930108994245529
1761413467242004200,3.174004150390625,0.09610432386398315,0.0038311067037284374,0.034029584378004074
1761413467252017200,3.18401708984375,0.08684957772493362,0.024772606790065765,0.027832942083477974
1761413467262031000,3.194031005859375,0.08441292494535446,0.040745463222265244,0.009022654965519905
1761413467272044300,3.204044189453125,0.08076732605695724,0.04571199044585228,-0.003060638904571533
1761413467282058200,3.214058349609375,0.08344186097383499,0.0372307226061821,-0.01723434217274189
1761413467292071200,3.2240712890625,0.08679771423339844,0.017245296388864517,-0.023417668417096138
1761413467302084000,3.234083984375,0.0906098261475563,-0.0030249974224716425,-0.02074570022523403
1761413467312097000,3.244096923828125,0.09156270325183868,-0.01483158953487873,-0.019725441932678223
1761413467322111200,3.254111328125,0.09582139551639557,-0.021406611427664757,-0.01447153091430664
1761413467332124200,3.264124267578125,0.09709065407514572,-0.020926974713802338,-0.009313253685832024
1761413467342137000,3.27413720703125,0.09547852724790573,-0.023761458694934845,-0.00924291368573904
1761413467352151000,3.284151123046875,0.09443670511245728,-0.012845959514379501,-0.012662678956985474
1761413467362164200,3.294164306640625,0.09740603715181351,-0.012563811615109444,-0.019716909155249596
1761413467372177200,3.30417724609375,0.09327200800180435,-0.022427627816796303,-0.03869219869375229
1761413467382191000,3.314191162109375,0.09053269773721695,-0.04075271263718605,-0.052105098962783813
1761413467392204300,3.324204345703125,0.08159246295690536,-0.06169261783361435,-0.07037997990846634
1761413467402217200,3.33421728515625,0.06434270739555359,-0.07026783376932144,-0.0738675594329834
1761413467412231200,3.344231201171875,0.05286368355154991,-0.07490865886211395,-0.07352028042078018
1761413467422244000,3.354244140625,0.047240082174539566,-0.07847292721271515,-0.06975653022527695
1761413467432257300,3.36425732421875,0.03786895051598549,-0.08083967864513397,-0.059573668986558914
1761413467442271200,3.374271240234375,0.03407609835267067,-0.08202160894870758,-0.05220820754766464
1761413467452284200,3.3842841796875,0.03172585740685463,-0.08216115832328796,-0.045049894601106644
1761413467462297000,3.394297119140625,0.024947062134742737,-0.08090592920780182,-0.03384750336408615
1761413467472311300,3.404311279296875,0.018254538998007774,-0.07789096981287003,-0.0255403034389019
1761413467482324200,3.41432421875,0.011366620659828186,-0.07202853262424469,-0.01506135892122984
1761413467492337200,3.424337158203125,0.005499675869941711,-0.06752033531665802,-0.005608469247817993
1761413467502351400,3.434351318359375,-0.0038856645114719868,-0.06311476230621338,-0.0015964293852448463
1761413467512364000,3.444364013671875,-0.007851909846067429,-0.05383790656924248,-0.0018757949583232403
1761413467522377200,3.454377197265625,-0.019616365432739258,-0.04386863857507706,-0.009138020686805248
1761413467532391200,3.46439111328125,-0.034276265650987625,-0.03228362277150154,-0.010341769084334373
1761413467542404000,3.474404052734375,-0.044011615216732025,-0.025398014113307,-0.014353130012750626
1761413467552417300,3.484417236328125,-0.0525776706635952,-0.024296265095472336,-0.022313585504889488
1761413467562431200,3.49443115234375,-0.06030900031328201,-0.02854013256728649,-0.026129845529794693
1761413467572444200,3.504444091796875,-0.06778156757354736,-0.0303950235247612,-0.028256114572286606
1761413467582457300,3.514457275390625,-0.07546860724687576,-0.03212729096412659,-0.031438641250133514
1761413467592471300,3.52447119140625,-0.0807720273733139,-0.03035096265375614,-0.03423789143562317
1761413467602484200,3.534484130859375,-0.07815458625555038,-0.03369693458080292,-0.04053712636232376
1761413467612497400,3.544497314453125,-0.07444161176681519,-0.04532456398010254,-0.045788347721099854
1761413467622511000,3.554510986328125,-0.06852271407842636,-0.064697265625,-0.04694530740380287
1761413467632524300,3.564524169921875,-0.06123257428407669,-0.08627419173717499,-0.04695462808012962
1761413467642537500,3.574537353515625,-0.05907652527093887,-0.10665527731180191,-0.042788781225681305
1761413467652551200,3.58455126953125,-0.06105871871113777,-0.10430902987718582,-0.0354887917637825
1761413467662564400,3.594564453125,-0.06777707487344742,-0.07970382273197174,-0.03276757523417473
1761413467672577300,3.604577392578125,-0.0743902325630188,-0.055357206612825394,-0.04102284088730812
1761413467682591200,3.61459130859375,-0.07621236145496368,-0.026272699236869812,-0.04996402561664581
1761413467692604400,3.6246044921875,-0.07105647772550583,-0.006036403588950634,-0.06181163340806961
1761413467702617000,3.6346171875,-0.06463161110877991,0.011650590226054192,-0.05895230546593666
1761413467712631300,3.64463134765625,-0.06381828337907791,0.022308826446533203,-0.04452090337872505
1761413467722644200,3.654644287109375,-0.05690043419599533,0.0323350764811039,-0.02397466078400612
1761413467732657200,3.6646572265625,-0.049716025590896606,0.034068264067173004,-0.00827878899872303
1761413467742671400,3.67467138671875,-0.041508372873067856,0.024435915052890778,-0.0012339444365352392
1761413467752684300,3.684684326171875,-0.03482862934470177,0.0011987704783678055,0.0031094050500541925
1761413467762697200,3.694697265625,-0.03037123940885067,-0.014551389962434769,0.0031858214642852545
1761413467772710400,3.70471044921875,-0.0327739454805851,-0.012796900235116482,0.006377620622515678
1761413467782724400,3.714724365234375,-0.033962104469537735,-0.0015202148351818323,0.015962257981300354
1761413467792737300,3.7247373046875,-0.04295480251312256,0.015529608353972435,0.020503481850028038
1761413467802751200,3.734751220703125,-0.056267641484737396,0.03340134024620056,0.024665232747793198
1761413467812764200,3.74476416015625,-0.0632573738694191,0.058029185980558395,0.021638283506035805
1761413467822777300,3.75477734375,-0.06473077833652496,0.0717281624674797,0.009872250258922577
1761413467832790300,3.764790283203125,-0.06398428976535797,0.07248663157224655,-0.00453704921528697
1761413467842804200,3.77480419921875,-0.06134944036602974,0.05949651077389717,-0.026406865566968918
1761413467852817400,3.7848173828125,-0.06422273069620132,0.03408462554216385,-0.03678067773580551
1761413467862830000,3.794830078125,-0.0714581236243248,0.005109618417918682,-0.04084622487425804
1761413467872844300,3.80484423828125,-0.0718860924243927,-0.016911260783672333,-0.03651432693004608
1761413467882857200,3.814857177734375,-0.06900042295455933,-0.02204589918255806,-0.024919914081692696
1761413467892870100,3.8248701171875,-0.06771758198738098,-0.023098647594451904,-0.019979216158390045
1761413467902884400,3.83488427734375,-0.06603777408599854,-0.015392869710922241,-0.015885639935731888
1761413467912897300,3.844897216796875,-0.06131066009402275,0.0038537951186299324,-0.02148919552564621
1761413467922910200,3.85491015625,-0.05589895695447922,0.02148391678929329,-0.0334397591650486
1761413467932924200,3.864924072265625,-0.052043501287698746,0.04084989055991173,-0.04444180801510811
1761413467942937300,3.874937255859375,-0.05319024249911308,0.06320033222436905,-0.05278671160340309
1761413467952950300,3.8849501953125,-0.04980723187327385,0.08044642955064774,-0.060757286846637726
1761413467962964200,3.894964111328125,-0.04477150738239288,0.08431129157543182,-0.07321968674659729
1761413467972977200,3.90497705078125,-0.03579612076282501,0.06272956728935242,-0.0839407742023468
1761413467982990300,3.914990234375,-0.024044135585427284,0.022825967520475388,-0.09307979047298431
1761413467993004300,3.92500439453125,-0.010471334680914879,-0.016646340489387512,-0.0992886871099472
1761413468003017200,3.935017333984375,0.004910735413432121,-0.05620389059185982,-0.0879768431186676
1761413468013030400,3.945030517578125,0.01783798635005951,-0.08890485018491745,-0.06617913395166397
1761413468023044400,3.95504443359375,0.027600277215242386,-0.10154904425144196,-0.03372584283351898
1761413468033057300,3.965057373046875,0.03771469369530678,-0.08855202049016953,-0.003222528612241149
1761413468043070200,3.9750703125,0.04248528555035591,-0.06588329374790192,0.015714239329099655
1761413468053084400,3.98508447265625,0.04037073627114296,-0.0394412986934185,0.008331423625349998
1761413468063097300,3.995097412109375,0.033667098730802536,-0.0007757637649774551,-0.009320180863142014
1761413468073110300,4.0051103515625,0.030636684969067574,0.0307757705450058,-0.02706295996904373
1761413468083124200,4.015124267578125,0.024014191702008247,0.038807742297649384,-0.040954384952783585
1761413468093137200,4.02513720703125,0.01314210332930088,0.02073233388364315,-0.04725808650255203
1761413468103150300,4.035150390625,0.005466618109494448,-0.008222227916121483,-0.041877325624227524
1761413468113164300,4.045164306640625,0.005737461615353823,-0.04100174829363823,-0.02722860872745514
1761413468123177200,4.05517724609375,0.002507394878193736,-0.05965370684862137,-0.011899247765541077
1761413468133190100,4.065190185546875,-0.004880746826529503,-0.06674916297197342,0.008476330898702145
1761413468143204000,4.0752041015625,-0.012279112823307514,-0.06653345376253128,0.017395099624991417
1761413468153217300,4.08521728515625,-0.023941626772284508,-0.056690409779548645,0.02319306693971157
1761413468163230200,4.095230224609375,-0.03312472626566887,-0.03692403808236122,0.013893951661884785
1761413468173243400,4.105243408203125,-0.03879859298467636,-0.007453498430550098,0.0009722947143018246
1761413468183257300,4.11525732421875,-0.04400153085589409,0.01644067093729973,-0.01814766600728035
1761413468193270300,4.125270263671875,-0.05117901414632797,0.030933327972888947,-0.03311969339847565
1761413468203283200,4.135283203125,-0.05148469656705856,0.03623666241765022,-0.03801017999649048
1761413468213297400,4.14529736328125,-0.05206499993801117,0.01902119070291519,-0.02831973508000374
1761413468223310300,4.155310302734375,-0.05029941722750664,-0.005588646046817303,-0.011864877305924892
1761413468233323300,4.1653232421875,-0.04742933064699173,-0.03440751135349274,0.010872126556932926
1761413468243337200,4.175337158203125,-0.03915305808186531,-0.05022572726011276,0.032826896756887436
1761413468253350100,4.18535009765625,-0.03229701891541481,-0.049705345183610916,0.04946419596672058
1761413468263363300,4.19536328125,-0.023370275273919106,-0.040430743247270584,0.06195366755127907
1761413468273377300,4.205377197265625,-0.01322096772491932,-0.0334647111594677,0.06858281791210175
1761413468283390200,4.21539013671875,-0.00017967680469155312,-0.014547972939908504,0.07274957746267319
1761413468293403100,4.225403076171875,0.009973358362913132,-0.0014838359784334898,0.06989546865224838
1761413468303417000,4.2354169921875,0.00748857157304883,-0.02217450737953186,0.0794391930103302
1761413468313430300,4.24543017578125,-0.002806410426273942,-0.04715282842516899,0.07456506788730621
1761413468323443200,4.255443115234375,-0.005700791720300913,-0.04248194769024849,0.05852966010570526
1761413468333457200,4.26545703125,-0.001063962117768824,-0.026103507727384567,0.04148409515619278
1761413468343470300,4.27547021484375,-0.0034802136942744255,-0.015258792787790298,0.03025704249739647
1761413468353483300,4.285483154296875,-0.011738942004740238,-0.007327632512897253,0.023357855156064034
1761413468363497200,4.295497314453125,-0.01939496584236622,0.003035584930330515,0.01896287314593792
1761413468373510400,4.305510498046875,-0.024432335048913956,0.020512312650680542,0.018857944756746292
1761413468383523300,4.3155234375,-0.026864677667617798,0.03026084043085575,0.014757835306227207
1761413468393537300,4.325537353515625,-0.027324073016643524,0.029854172840714455,0.014781271107494831
1761413468403550200,4.33555029296875,-0.024385888129472733,0.025845827534794807,0.016852740198373795
1761413468413563100,4.345563232421875,-0.019770098850131035,0.015013687312602997,0.025169525295495987
1761413468423577300,4.355577392578125,-0.014299190603196621,0.002517887856811285,0.037734366953372955
1761413468433590300,4.36559033203125,-0.009932138957083225,-0.006531267426908016,0.046330250799655914
1761413468443603200,4.375603271484375,-0.009679380804300308,-0.01590268313884735,0.05508561059832573
1761413468453616400,4.385616455078125,-0.015669096261262894,-0.013420350849628448,0.05032627657055855
1761413468463630000,4.395630126953125,-0.021114680916070938,-0.0032423657830804586,0.043506063520908356
1761413468473643300,4.405643310546875,-0.03317693993449211,0.014413060620427132,0.035309117287397385
1761413468483656200,4.41565625,-0.04245900362730026,0.03265664353966713,0.023024490103125572
1761413468493670100,4.425670166015625,-0.044219087809324265,0.055019207298755646,0.017080847173929214
1761413468503683300,4.435683349609375,-0.03856157138943672,0.06822501122951508,0.024458711966872215
1761413468513696300,4.4456962890625,-0.02550143003463745,0.06847907602787018,0.02472582645714283
1761413468523710200,4.455710205078125,-0.003399450331926346,0.04861382767558098,0.020293183624744415
1761413468533723400,4.465723388671875,0.013618415221571922,0.022648006677627563,0.008683399297297001
1761413468543736300,4.475736328125,0.02283409796655178,-0.004949776455760002,-0.0027003453578799963
1761413468553750300,4.485750244140625,0.026663990691304207,-0.012599706649780273,-0.009571034461259842
1761413468563763500,4.495763427734375,0.028633978217840195,-0.008556579239666462,-0.009951459243893623
1761413468573776100,4.505776123046875,0.022257570177316666,-0.001110647339373827,0.0014889480080455542
1761413468583790300,4.515790283203125,0.018898919224739075,0.008622345514595509,0.015312430448830128
1761413468593803500,4.525803466796875,0.016291150823235512,0.017880823463201523,0.02877897024154663
1761413468603816200,4.535816162109375,0.019022246822714806,0.02738376520574093,0.04111601784825325
1761413468613830400,4.545830322265625,0.030291413888335228,0.03397029638290405,0.04441168159246445
1761413468623843000,4.555843017578125,0.04210655018687248,0.034172363579273224,0.04562360793352127
1761413468633856300,4.565856201171875,0.050364747643470764,0.028161074966192245,0.044491495937108994
1761413468643870500,4.575870361328125,0.05527712032198906,0.022875133901834488,0.04221953824162483
1761413468653883100,4.585883056640625,0.05201927572488785,0.010862148366868496,0.04203284904360771
1761413468663896300,4.595896240234375,0.04572635516524315,-0.008991779759526253,0.03853939101099968
1761413468673909500,4.605909423828125,0.040044497698545456,-0.027713803574442863,0.037357479333877563
1761413468683923200,4.615923095703125,0.03165026009082794,-0.03232807666063309,0.025729196146130562
1761413468693936400,4.625936279296875,0.019710246473550797,-0.0230240598320961,0.009610414505004883
1761413468703949300,4.63594921875,0.012773069553077221,-0.011522253975272179,-0.0009423143928870559
1761413468713963300,4.64596337890625,0.0011305289808660746,0.008257576264441013,-0.006936823949217796
1761413468723976400,4.6559765625,-0.005705632735043764,0.018963603302836418,-0.005911554209887981
1761413468733989000,4.665989013671875,-0.00987188145518303,0.022805480286478996,-0.009312677197158337
1761413468744003300,4.67600341796875,-0.01580825261771679,0.011195451021194458,-0.008838430047035217
1761413468754016500,4.6860166015625,-0.01385988388210535,0.0002858121879398823,-0.01379297487437725
1761413468764029200,4.696029296875,-0.01286466047167778,-0.005652504041790962,-0.010201436467468739
1761413468774043400,4.70604345703125,-0.012252666056156158,-0.013869155198335648,-0.012965264730155468
1761413468784056300,4.716056396484375,-0.011446506716310978,-0.016352351754903793,-0.009539451450109482
1761413468794069200,4.7260693359375,-0.01570676453411579,-0.0145264882594347,-0.0043177916668355465
1761413468804083500,4.73608349609375,-0.012769319117069244,-0.0055917841382324696,0.0014048859011381865
1761413468814096100,4.74609619140625,-0.01003957912325859,-0.0030149095691740513,0.006228669546544552
1761413468824109300,4.756109375,-0.008062170818448067,-0.00524252001196146,0.008397924713790417
1761413468834123300,4.766123291015625,-0.003167280461639166,-0.010038340464234352,0.01109836995601654
1761413468844136200,4.77613623046875,-0.00044098077341914177,-0.014168702065944672,0.01853623427450657
1761413468854149400,4.7861494140625,0.0016570574371144176,-0.015397485345602036,0.019004950299859047
1761413468864163300,4.796163330078125,0.0021289121359586716,-0.012203330174088478,0.017303738743066788
1761413468874176300,4.80617626953125,0.003406430594623089,-0.013597228564321995,0.018843311816453934
1761413468884189400,4.816189453125,0.006623598746955395,-0.008484328165650368,0.012762077152729034
1761413468894202000,4.8262021484375,0.01469510793685913,-0.000604566652327776,0.012385772541165352
1761413468904216300,4.83621630859375,0.01968609169125557,-0.0002199220471084118,0.015053853392601013
1761413468914229500,4.8462294921875,0.016639968380331993,-0.0004942277446389198,0.010895060375332832
1761413468924242200,4.8562421875,0.01758776232600212,-0.00412329938262701,0.000657650176435709
1761413468934256400,4.86625634765625,0.01914597861468792,-0.015970105305314064,-0.006866578944027424
1761413468944269300,4.876269287109375,0.018971726298332214,-0.02146449312567711,-0.017598522827029228
1761413468954282200,4.8862822265625,0.01506673265248537,-0.020175790414214134,-0.02373524382710457
1761413468964296400,4.89629638671875,0.016362696886062622,-0.01583520695567131,-0.02977440133690834
1761413468974309000,4.90630908203125,0.01815766841173172,-0.0143856480717659,-0.02809554524719715
1761413468984322300,4.916322265625,0.020688887685537338,-0.020954947918653488,-0.0281386561691761
1761413468994336300,4.926336181640625,0.02160288393497467,-0.022365624085068703,-0.030092084780335426
1761413469004349200,4.93634912109375,0.02183549292385578,-0.023737603798508644,-0.023431017994880676
1761413469014362400,4.9463623046875,0.021918317303061485,-0.019721023738384247,-0.0131323067471385
1761413469024376300,4.956376220703125,0.01950390636920929,-0.013787644915282726,-0.00524870865046978
1761413469034389200,4.96638916015625,0.015458566136658192,-0.007820566184818745,0.006539774127304554
1761413469044402400,4.97640234375,0.011099748313426971,-0.002130123320966959,0.009069855324923992
1761413469054416400,4.98641650390625,0.005633876193314791,0.00394028564915061,0.006891123950481415
1761413469064429300,4.99642919921875,0.004222423303872347,0.009920347481966019,0.00555200781673193
1761413469074442500,5.0064423828125,0.0009459360735490918,0.008314195089042187,0.0019721866119652987
1761413469084456200,5.016456298828125,-0.0020634359680116177,0.0012267250567674637,-0.0051291324198246
1761413469094469400,5.026469482421875,-0.0018016472458839417,0.0017883856780827045,-0.008760352618992329
1761413469104482300,5.036482421875,-0.0018319498049095273,-0.0017999170813709497,-0.004681737162172794
1761413469114495200,5.0464951171875,-0.0010444531217217445,0.00053807208314538,0.00021208799444139004
1761413469124509400,5.056509521484375,-0.009901593439280987,0.00014205975458025932,0.0009441908914595842
1761413469134522000,5.066522216796875,-0.01136526744812727,0.00012261886149644852,0.002933572046458721
1761413469144535300,5.076535400390625,-0.0137933986261487,0.004688937682658434,-0.0014798970660194755
1761413469154549200,5.08654931640625,-0.008326461538672447,0.0005959249101579189,-0.0024173296988010406
1761413469164562200,5.096562255859375,-0.00517587224021554,-0.009437371045351028,-0.003777311882004142
1761413469174575400,5.106575439453125,0.000643134699203074,-0.02136540412902832,-0.0031820954754948616
1761413469184589300,5.11658935546875,0.006009449250996113,-0.028221260756254196,0.006380392238497734
1761413469194602200,5.126602294921875,0.010862527415156364,-0.027018312364816666,0.01333044283092022
1761413469204615400,5.136615478515625,0.011378254741430283,-0.020847706124186516,0.02240402065217495
1761413469214629400,5.14662939453125,0.014688564464449883,-0.013269681483507156,0.022370731458067894
1761413469224642300,5.156642333984375,0.01631607860326767,-0.0075837913900613785,0.019350958988070488
1761413469234655500,5.166655517578125,0.018859397619962692,-0.00006568804383277893,0.010507399216294289
1761413469244669200,5.176669189453125,0.017174046486616135,0.0034310854971408844,-0.002625040477141738
1761413469254682400,5.186682373046875,0.01925131306052208,0.007939551025629044,-0.010451538488268852
1761413469264695300,5.1966953125,0.015128714963793755,0.012042434886097908,-0.013319714926183224
1761413469274709200,5.206709228515625,0.014159857295453548,0.009260497987270355,-0.019627410918474197
1761413469284722400,5.216722412109375,0.00799071416258812,0.006656090263277292,-0.023405810818076134
1761413469294735000,5.226735107421875,0.008858106099069118,0.004909323062747717,-0.02193254977464676
1761413469304748300,5.236748291015625,0.013622094877064228,0.0067787994630634785,-0.021882670000195503
1761413469314762200,5.24676220703125,0.02198202535510063,0.002463147509843111,-0.019208591431379318
1761413469324775200,5.256775146484375,0.025162719190120697,0.0028661051765084267,-0.014837607741355896
1761413469334788400,5.266788330078125,0.025400273501873016,-0.004050656221807003,-0.01341681182384491
1761413469344802300,5.27680224609375,0.02899329550564289,-0.0024088984355330467,-0.007428396493196487
1761413469354815200,5.286815185546875,0.026051834225654602,0.008825380355119705,0.00452893041074276
1761413469364828400,5.296828369140625,0.02753024362027645,0.01172006968408823,0.010874461382627487
1761413469374842400,5.30684228515625,0.026971779763698578,0.00856182724237442,0.016151515766978264
1761413469384855300,5.316855224609375,0.03105403482913971,0.01380829606205225,0.012842677533626556
1761413469394868500,5.326868408203125,0.0341920405626297,0.013803769834339619,0.010614410042762756
1761413469404882200,5.336882080078125,0.0352812223136425,0.012980092316865921,0.010228880681097507
1761413469414895400,5.346895263671875,0.03213629499077797,0.010715605691075325,0.0008774574380367994
1761413469424908300,5.356908203125,0.027911240234971046,0.0010442985221743584,-0.0004949658177793026
1761413469434922200,5.366922119140625,0.021703144535422325,-0.001942170551046729,0.0004437984898686409
1761413469444935400,5.376935302734375,0.014346741139888763,-0.0024988544173538685,-0.0010879101464524865
1761413469454948400,5.3869482421875,0.008619080297648907,-0.0007946975529193878,-0.005533524788916111
1761413469464961300,5.396961181640625,0.0035291898529976606,0.0011009005829691887,-0.01743197999894619
1761413469474975200,5.406975341796875,-0.003403817070648074,0.004940379876643419,-0.034971825778484344
1761413469484988200,5.41698828125,-0.014142747968435287,0.008619803935289383,-0.053326066583395004
1761413469495001300,5.42700146484375,-0.02215220406651497,0.012374592944979668,-0.06636223942041397
1761413469505015300,5.437015380859375,-0.02915540523827076,0.015735849738121033,-0.0755472481250763
1761413469515028200,5.4470283203125,-0.031122416257858276,0.01921260729432106,-0.0772431492805481
1761413469525041400,5.45704150390625,-0.023582924157381058,0.019638467580080032,-0.07744934409856796
1761413469535055400,5.467055419921875,-0.015311678871512413,0.01734335534274578,-0.07769035547971725
1761413469545067500,5.477067626953125,-0.013522891327738762,0.011004460044205189,-0.07771164178848267
1761413469555080400,5.48708056640625,-0.014526902697980404,0.00808723270893097,-0.07413368672132492
1761413469565094400,5.497094482421875,-0.013299939222633839,0.0021296581253409386,-0.069245845079422
1761413469575107600,5.507107666015625,-0.015822485089302063,-0.009509420953691006,-0.06925037503242493
1761413469585120500,5.51712060546875,-0.017170533537864685,-0.015118388459086418,-0.07124653458595276
1761413469595134500,5.527134521484375,-0.013978201895952225,-0.011413930915296078,-0.07004092633724213
1761413469605147600,5.537147705078125,-0.012921016663312912,-0.003013621550053358,-0.06857647001743317
1761413469615160600,5.54716064453125,-0.006976041942834854,0.014846068806946278,-0.05967245623469353
1761413469625174500,5.557174560546875,-0.00019732635701075196,0.023402392864227295,-0.052426308393478394
1761413469635187700,5.567187744140625,0.010337339714169502,0.02951621077954769,-0.04709625989198685
1761413469645200400,5.577200439453125,0.016011737287044525,0.03054126165807247,-0.03845323622226715
1761413469655213600,5.587213623046875,0.021005164831876755,0.029780132696032524,-0.02948663756251335
1761413469665227500,5.5972275390625,0.027023443952202797,0.029452994465827942,-0.02034604176878929
1761413469675240400,5.607240478515625,0.03716156631708145,0.024486731737852097,-0.013833281584084034
1761413469685253600,5.617253662109375,0.04213881865143776,0.016336025670170784,-0.005150217562913895
1761413469695267300,5.627267333984375,0.0462171845138073,0.004945418331772089,0.0003255079500377178
1761413469705280500,5.637280517578125,0.050813253968954086,-0.010163085535168648,0.002768582897260785
1761413469715293400,5.64729345703125,0.05100979655981064,-0.02088976465165615,0.002834629500284791
1761413469725307400,5.657307373046875,0.04470185935497284,-0.020735852420330048,0.0035232745576649904
1761413469735320600,5.667320556640625,0.04164854437112808,-0.013083525002002716,0.006571794860064983
1761413469745333500,5.67733349609375,0.04008457064628601,0.0005147978663444519,0.0019476090092211962
1761413469755347500,5.687347412109375,0.0328088141977787,0.014026345685124397,0.0007065760437399149
1761413469765360600,5.697360595703125,0.03315139189362526,0.015435302630066872,0.0016773436218500137
1761413469775373600,5.70737353515625,0.03129756450653076,0.00796513631939888,0.0008895806968212128
1761413469785387500,5.717387451171875,0.031769800931215286,-0.0034334189258515835,0.004940500017255545
1761413469795400700,5.727400634765625,0.03149895742535591,-0.010169618763029575,0.006683805491775274
1761413469805413400,5.737413330078125,0.03227060288190842,-0.015567108988761902,0.013344448991119862
1761413469815426600,5.747426513671875,0.036111947149038315,-0.019563449546694756,0.022010374814271927
1761413469825440500,5.7574404296875,0.03392535075545311,-0.018216483294963837,0.03485434874892235
1761413469835453400,5.767453369140625,0.02994925156235695,-0.008581433445215225,0.04172423854470253
1761413469845466600,5.777466552734375,0.02303162030875683,0.01137666404247284,0.046139396727085114
1761413469855480300,5.787480224609375,0.018809445202350616,0.02967098355293274,0.04588879644870758
1761413469865493500,5.797493408203125,0.014516683295369148,0.046901777386665344,0.034025900065898895
1761413469875506400,5.80750634765625,0.011645795777440071,0.05912834778428078,0.028981609269976616
1761413469885520400,5.817520263671875,0.012098196893930435,0.06696879863739014,0.020688163116574287
1761413469895533600,5.827533447265625,0.014264145866036415,0.06509153544902802,0.017486246302723885
1761413469905546500,5.83754638671875,0.015702346339821815,0.05867080017924309,0.018491368740797043
1761413469915560400,5.847560546875,0.02131522446870804,0.04163988307118416,0.02768753096461296
1761413469925573600,5.85757373046875,0.019417570903897285,0.03031007945537567,0.031259067356586456
1761413469935586600,5.867586669921875,0.026335133239626884,0.031046178191900253,0.036668211221694946
1761413469945599500,5.877599609375,0.033206745982170105,0.03346533328294754,0.035048022866249084
1761413469955613700,5.88761376953125,0.02951853536069393,0.030469540506601334,0.030463924631476402
1761413469965626400,5.89762646484375,0.029817398637533188,0.026788026094436646,0.017886599525809288
1761413469975639600,5.9076396484375,0.02826504223048687,0.027133706957101822,0.01284257136285305
1761413469985653500,5.917653564453125,0.031493186950683594,0.022107193246483803,0.004153554327785969
1761413469995666400,5.92766650390625,0.027786333113908768,0.015643702819943428,-0.001622841926291585
1761413470005679600,5.9376796875,0.024766378104686737,0.011232605203986168,-0.008871340192854404
1761413470015693300,5.947693359375,0.030653562396764755,0.004935828503221273,-0.01796763390302658
1761413470025706500,5.95770654296875,0.029330389574170113,-0.004002354107797146,-0.01638408750295639
1761413470035719700,5.9677197265625,0.03254615515470505,-0.017220687121152878,-0.019401447847485542
1761413470045733400,5.9777333984375,0.032045599073171616,-0.02925356663763523,-0.015833375975489616
1761413470055746600,5.98774658203125,0.032822441309690475,-0.04207215830683708,-0.007068912498652935
1761413470065759500,5.997759521484375,0.028381379321217537,-0.04711061343550682,0.005739511456340551
1761413470075773400,6.0077734375,0.018692266196012497,-0.04288577660918236,0.018128536641597748
1761413470085786600,6.01778662109375,0.014977929182350636,-0.0334099605679512,0.0201864093542099
1761413470095799600,6.027799560546875,0.007790324278175831,-0.021826811134815216,0.02271428145468235
1761413470105812500,6.0378125,-0.003475677687674761,-0.004860136657953262,0.008969142101705074
1761413470115826700,6.04782666015625,-0.009073642082512379,0.01230473443865776,0.002637743018567562
1761413470125839400,6.05783935546875,-0.01891559548676014,0.028281286358833313,0.0002123541198670864
1761413470135852500,6.0678525390625,-0.02687152288854122,0.03706518933176994,-0.0018436061218380928
1761413470145866800,6.07786669921875,-0.030086180195212364,0.039348501712083817,0.008311701938509941
1761413470155879400,6.08787939453125,-0.033942170441150665,0.03630903363227844,0.019172072410583496
1761413470165892600,6.097892578125,-0.031993504613637924,0.0367322713136673,0.031463123857975006
1761413470175906300,6.10790625,-0.033025212585926056,0.03296549618244171,0.03844886273145676
1761413470185919500,6.11791943359375,-0.03103388473391533,0.03481614962220192,0.0457671694457531
1761413470195932700,6.1279326171875,-0.028972331434488297,0.04161466658115387,0.04452800005674362
1761413470205946400,6.1379462890625,-0.028225047513842583,0.05117035284638405,0.04383131489157677
1761413470215959600,6.14795947265625,-0.024453746154904366,0.054760295897722244,0.04206537455320358
1761413470225972500,6.157972412109375,-0.019560890272259712,0.051515113562345505,0.040913067758083344
1761413470235985400,6.1679853515625,-0.017412252724170685,0.031599193811416626,0.03455716744065285
1761413470245999600,6.17799951171875,-0.018022548407316208,0.011221975088119507,0.028359055519104004
1761413470256012500,6.188012451171875,-0.020382110029459,-0.009669192135334015,0.014660021290183067
1761413470266025500,6.198025390625,-0.021243711933493614,-0.023666132241487503,0.005045915488153696
1761413470276039700,6.208039794921875,-0.01886417716741562,-0.03996787220239639,-0.0006412648363038898
1761413470286052400,6.21805224609375,-0.018956754356622696,-0.05491171404719353,-0.0034326619934290648
1761413470296065500,6.2280654296875,-0.01323175709694624,-0.06484956294298172,-0.0016462134663015604
1761413470306079700,6.238079833984375,-0.013164650648832321,-0.06217209994792938,0.006078734528273344
1761413470316092400,6.248092529296875,-0.013553205877542496,-0.05831584334373474,0.016077838838100433
1761413470326105600,6.258105712890625,-0.014639699831604958,-0.0440804697573185,0.023275209590792656
1761413470336119300,6.268119384765625,-0.012789069674909115,-0.019528523087501526,0.02973603643476963
1761413470346132500,6.278132568359375,-0.012060346081852913,0.002414081245660782,0.031655848026275635
1761413470356145700,6.288145751953125,-0.014125627465546131,0.00690044229850173,0.03078659065067768
1761413470366158600,6.29815869140625,-0.01950019784271717,0.010358639992773533,0.039419081062078476
1761413470376172500,6.308172607421875,-0.026569025591015816,0.012472124770283699,0.04871351644396782
1761413470386185500,6.318185546875,-0.03174661844968796,0.004465269390493631,0.050031594932079315
1761413470396198400,6.328198486328125,-0.030448324978351593,-0.005245415028184652,0.04574230685830116
1761413470406212600,6.338212646484375,-0.028646906837821007,-0.018244531005620956,0.03029009699821472
1761413470416225500,6.3482255859375,-0.03324112668633461,-0.035145215690135956,0.013724436983466148
1761413470426238500,6.358238525390625,-0.03857707977294922,-0.043486155569553375,0.002777637680992484
1761413470436252700,6.368252685546875,-0.04491540417075157,-0.038437336683273315,-0.0009547825902700424
1761413470446265300,6.378265380859375,-0.0511176660656929,-0.02257472835481167,0.0019632920157164335
1761413470456278500,6.388278564453125,-0.053668707609176636,-0.013967657461762428,-0.0008402175735682249
1761413470466292700,6.398292724609375,-0.057482898235321045,-0.03600437194108963,-0.00014098011888563633
1761413470476305400,6.408305419921875,-0.04801136627793312,-0.01856679469347,-0.001210771850310266
1761413470486318600,6.418318603515625,-0.037284575402736664,-0.009820704348385334,-0.0007365756900981069
1761413470496331500,6.42833154296875,-0.036031823605298996,-0.001058904454112053,0.001481837360188365
1761413470506345500,6.438345458984375,-0.040630586445331573,-0.009039190597832203,0.001152828335762024
1761413470516358700,6.448358642578125,-0.042618636041879654,-0.006891617551445961,-0.002046693582087755
1761413470526371600,6.45837158203125,-0.041617076843976974,-0.005434376187622547,-0.003094898769631982
1761413470536385500,6.468385498046875,-0.03642044961452484,-0.011155910789966583,-0.004774820990860462
1761413470546399500,6.4783994140625,-0.029289331287145615,-0.020944608375430107,-0.005729248747229576
1761413470556412700,6.48841259765625,-0.022788820788264275,-0.0266799908131361,0.0004948251880705357
1761413470566427000,6.498427001953125,-0.014753740280866623,-0.033465951681137085,0.008905339054763317
1761413470576439600,6.508439453125,-0.00947535503655672,-0.03685242682695389,0.017088167369365692
1761413470586452700,6.51845263671875,-0.004630868788808584,-0.036348454654216766,0.023182451725006104
1761413470596466700,6.528466796875,-0.005575492046773434,-0.03059416264295578,0.031061414629220963
1761413470606479600,6.538479736328125,-0.007328092586249113,-0.01703895814716816,0.03732139244675636
1761413470616492800,6.548492919921875,-0.007774704601615667,-0.0051527367904782295,0.04314545914530754
1761413470626505700,6.558505615234375,-0.010352866724133492,0.008788561448454857,0.04674379527568817
1761413470636519700,6.568519775390625,-0.007667068857699633,0.012502606958150864,0.04751691222190857
1761413470646532900,6.578532958984375,-0.002915722783654928,0.009341433644294739,0.040448881685733795
1761413470656545500,6.588545654296875,0.001088606077246368,-0.007761918939650059,0.03529459983110428
1761413470666559700,6.598559814453125,0.0032534326892346144,-0.018473992124199867,0.029467089101672173
1761413470676572700,6.60857275390625,0.00981972273439169,-0.025935903191566467,0.030126487836241722
1761413470686585600,6.618585693359375,0.010595278814435005,-0.025757553055882454,0.03498636558651924
1761413470696599800,6.628599853515625,0.00842560175806284,-0.022033656015992165,0.039761945605278015
1761413470706612500,6.638612548828125,0.005311549175530672,-0.013060071505606174,0.041336480528116226
1761413470716625700,6.648625732421875,0.005693712737411261,0.00006878003478050232,0.04743059352040291
1761413470726638800,6.658638916015625,0.0034346282482147217,0.007807636633515358,0.050497133284807205
1761413470736652500,6.668652587890625,0.004467668477445841,0.012145926244556904,0.05426657199859619
1761413470746665700,6.678665771484375,0.0066391401924192905,0.011136957444250584,0.054950110614299774
1761413470756678700,6.6886787109375,0.005815424490720034,0.011079167015850544,0.045931048691272736
1761413470766692600,6.698692626953125,0.009137953631579876,0.01292201317846775,0.036514341831207275
1761413470776705800,6.708705810546875,0.011394982226192951,0.012263413518667221,0.03258325159549713
1761413470786718700,6.71871875,0.016002358868718147,0.015909817069768906,0.0212886743247509
1761413470796732700,6.728732666015625,0.01626121811568737,0.016309823840856552,0.008733467198908329
1761413470806745900,6.738745849609375,0.019529329612851143,0.011269664391875267,-0.005755722522735596
1761413470816758500,6.748758544921875,0.023399701341986656,0.0075257932767271996,-0.018449679017066956
1761413470826772700,6.758772705078125,0.02036675438284874,0.021684693172574043,0.005474640987813473
1761413470836786000,6.768785888671875,0.014800745993852615,0.012964438647031784,0.03414196893572807
1761413470846798600,6.778798583984375,0.013915974646806717,-0.017112134024500847,0.09594292938709259
1761413470856811800,6.788811767578125,0.014394810423254967,-0.08050335198640823,0.1394193023443222
1761413470866825500,6.798825439453125,0.018903600051999092,-0.09451580792665482,0.15953972935676575
1761413470876838700,6.808838623046875,0.020196031779050827,-0.07962393760681152,0.15000082552433014
1761413470886851800,6.818851806640625,0.01816737651824951,-0.026593150570988655,0.11680550128221512
1761413470896865500,6.828865478515625,0.01797589473426342,0.04613138735294342,0.06963959336280823
1761413470906878700,6.838878662109375,0.014582171104848385,0.09143491089344025,0.029297776520252228
1761413470916891600,6.8488916015625,0.0024053994566202164,0.11041285842657089,0.007878502830862999
1761413470926905600,6.858905517578125,-0.0061130886897444725,0.11197937279939651,-0.004953001160174608
1761413470936918800,6.868918701171875,-0.006585266906768084,0.08249818533658981,-0.04785652458667755
1761413470946931700,6.878931640625,0.013680564239621162,0.022998657077550888,-0.07630782574415207
1761413470956944600,6.888944580078125,0.033565323799848557,0.034231334924697876,-0.09519097208976746
1761413470966958800,6.898958740234375,0.05507170408964157,0.03739408776164055,-0.08618154376745224
1761413470976971500,6.908971435546875,0.06998194009065628,0.02765943482518196,-0.05484945327043533
1761413470986984700,6.918984619140625,0.06637635082006454,0.0036498275585472584,-0.014544839039444923
1761413470996999000,6.9289990234375,0.058492597192525864,-0.0014589144848287106,0.027216190472245216
1761413471007011600,6.939011474609375,0.05555848032236099,0.007257530465722084,0.05571816861629486
