time,seconds_elapsed,z,y,x
1761413452401792300,0.071792236328125,0.07581078261137009,0.025032082572579384,-0.0641126036643982
1761413452411805400,0.081805419921875,0.07000376284122467,0.025083480402827263,-0.06329261511564255
1761413452421819400,0.0918193359375,0.06924748420715332,0.02810540422797203,-0.06156265363097191
1761413452431832300,0.101832275390625,0.06532571464776993,0.03952131047844887,-0.04756214842200279
1761413452441845500,0.111845458984375,0.061263393610715866,0.029741153120994568,-0.03146043419837952
1761413452451859500,0.121859375,0.05879996716976166,0.022619329392910004,-0.022109543904662132
1761413452461872400,0.131872314453125,0.0664030984044075,0.027365241199731827,-0.008120948448777199
1761413452471886300,0.14188623046875,0.07118666917085648,0.029346633702516556,0.00937788374722004
1761413452481899300,0.151899169921875,0.06609495729207993,0.01459179725497961,0.013321926817297935
1761413452491913200,0.161913330078125,0.06361342966556549,0.003659786656498909,0.014580270275473595
1761413452501926400,0.171926513671875,0.055122341960668564,0.004851084668189287,0.016636423766613007
1761413452511940400,0.1819404296875,0.04635947570204735,0.01814744994044304,0.02292414754629135
1761413452521951700,0.19195166015625,0.03631410002708435,0.024809513241052628,0.03390951827168465
1761413452531964700,0.201964599609375,0.031894583255052567,0.022864338010549545,0.05307229608297348
1761413452541979000,0.211978759765625,0.027777941897511482,0.01322798803448677,0.0660271942615509
1761413452551991800,0.22199169921875,0.0266727302223444,0.009299824945628643,0.07250560075044632
1761413452562005800,0.232005859375,0.02616266906261444,0.001777424942702055,0.07266328483819962
1761413452572019000,0.24201904296875,0.02869054116308689,-0.0035552887711673975,0.07665962725877762
1761413452582032600,0.25203271484375,0.03056998737156391,-0.006061011925339699,0.07463537156581879
1761413452592045800,0.2620458984375,0.029338542371988297,-0.009761208668351173,0.07962320744991302
1761413452602059800,0.272059814453125,0.02511005289852619,-0.016980614513158798,0.08172476291656494
1761413452612072700,0.28207275390625,0.023814691230654716,-0.020392922684550285,0.0758623406291008
1761413452622086000,0.2920859375,0.021087413653731346,-0.025775935500860214,0.06682887673377991
1761413452632099800,0.302099853515625,0.015897711738944054,-0.025645973160862923,0.059766970574855804
1761413452642112800,0.31211279296875,0.011127329431474209,-0.018545392900705338,0.05163784325122833
1761413452652126700,0.322126708984375,0.007839923724532127,-0.008375579491257668,0.05553724616765976
1761413452662140000,0.332139892578125,0.0024320962838828564,-0.003521824022755027,0.0567379891872406
1761413452672153600,0.342153564453125,0.0023215750698000193,0.00117439404129982,0.06082034483551979
1761413452682166800,0.352166748046875,0.008519547060132027,0.001732462551444769,0.0536683090031147
1761413452692181000,0.362180908203125,0.014621381647884846,-0.0003866148181259632,0.05136920139193535
1761413452702193700,0.372193603515625,0.018453218042850494,-0.003991449251770973,0.04776531457901001
1761413452712206800,0.382206787109375,0.013264315202832222,-0.008173944428563118,0.05692792311310768
1761413452722220500,0.392220458984375,0.009537345729768276,-0.01443549431860447,0.07091188430786133
1761413452732233700,0.402233642578125,0.0008463856065645814,-0.018662195652723312,0.0810667872428894
1761413452742248000,0.412248046875,-0.003930187784135342,-0.014231068082153797,0.0841449424624443
1761413452752260600,0.422260498046875,-0.0020230980589985847,-0.005660749040544033,0.07541510462760925
1761413452762274800,0.43227490234375,-0.000688055413775146,0.002253366634249687,0.06108356639742851
1761413452772287700,0.442287841796875,-0.0005058951792307198,0.004117845557630062,0.048575498163700104
1761413452782300700,0.45230078125,0.004160361364483833,0.004348143469542265,0.030352622270584106
1761413452792315000,0.46231494140625,0.0051321485079824924,-0.004800879862159491,0.02237885259091854
1761413452802327800,0.472327880859375,0.002847751136869192,-0.005588472355157137,0.01881912723183632
1761413452812341800,0.482341796875,0.002443216973915696,-0.008103561587631702,0.022760605439543724
1761413452822354700,0.492354736328125,0.003352557308971882,-0.012154299765825272,0.0331919901072979
1761413452832369000,0.502368896484375,0.007577395997941494,-0.012221411801874638,0.03502770885825157
1761413452842381800,0.5123818359375,0.009472568519413471,-0.008920524269342422,0.04222845658659935
1761413452852395800,0.522395751953125,0.01105528511106968,-0.008416653610765934,0.0435994528234005
1761413452862409000,0.532408935546875,0.007123315706849098,-0.011802751570940018,0.04222787544131279
1761413452872421600,0.542421630859375,0.002451598411425948,-0.013409703969955444,0.03849944844841957
1761413452882435800,0.552435791015625,0.001231600996106863,-0.01803334802389145,0.03336102515459061
1761413452892448800,0.56244873046875,0.005141388159245253,-0.03209963068366051,0.026863180100917816
1761413452902462700,0.572462646484375,0.0037317888345569372,-0.04455258324742317,0.022027630358934402
1761413452912476000,0.582475830078125,0.0011839426588267088,-0.05135456100106239,0.024625010788440704
1761413452922489900,0.59248974609375,-0.018832238391041756,-0.04099733382463455,0.019156526774168015
1761413452932502800,0.602502685546875,-0.044342394918203354,-0.01937779225409031,0.014449921436607838
1761413452942516700,0.612516845703125,-0.061324506998062134,0.0036780270747840405,0.009602677077054977
1761413452952529700,0.62252978515625,-0.06753525882959366,0.02444562315940857,-0.0029655792750418186
1761413452962542800,0.63254296875,-0.06842955201864243,0.039054129272699356,-0.0187288299202919
1761413452972556800,0.642556884765625,-0.06507343798875809,0.03481783717870712,-0.03178657591342926
1761413452982569700,0.65256982421875,-0.05768530070781708,0.013702566735446453,-0.037169478833675385
1761413452992583700,0.662583740234375,-0.04381582513451576,-0.01727905124425888,-0.03647146373987198
1761413453002596900,0.672596923828125,-0.027108225971460342,-0.0407932884991169,-0.04104740172624588
1761413453012610600,0.682610595703125,-0.0059145232662558556,-0.0589858740568161,-0.050467003136873245
1761413453022623700,0.692623779296875,0.020956119522452354,-0.0628812313079834,-0.06670654565095901
1761413453032638000,0.702637939453125,0.038835249841213226,-0.05771709233522415,-0.08075525611639023
1761413453042650600,0.712650634765625,0.03624272719025612,-0.04456356540322304,-0.07333769649267197
1761413453052663800,0.722663818359375,0.023469140753149986,-0.032212890684604645,-0.04136804863810539
1761413453062677800,0.732677734375,0.007002548314630985,-0.03044215776026249,-0.006836436223238707
1761413453072690700,0.742690673828125,-0.011973273009061813,-0.028259962797164917,0.02297072857618332
1761413453082705000,0.752704833984375,-0.02810889482498169,-0.017847172915935516,0.039728812873363495
1761413453092717800,0.7627177734375,-0.03088444098830223,0.003717506770044565,0.04351023584604263
1761413453102731800,0.772731689453125,-0.02544100396335125,0.033877771347761154,0.03585154563188553
1761413453112744700,0.78274462890625,-0.009429282508790493,0.06392515450716019,0.01677851751446724
1761413453122757600,0.792757568359375,0.01646769605576992,0.08794040977954865,-0.0038590452168136835
1761413453132771800,0.802771728515625,0.040065962821245193,0.08645915985107422,-0.03216392174363136
1761413453142784800,0.81278466796875,0.06611240655183792,0.0673912912607193,-0.04952380806207657
1761413453152799000,0.822799072265625,0.0834897980093956,0.04708602651953697,-0.04978400096297264
1761413453162811600,0.832811767578125,0.08801896870136261,0.03379242494702339,-0.029651664197444916
1761413453172825900,0.842825927734375,0.07999087125062943,0.020885679870843887,-0.005717037245631218
1761413453182838800,0.8528388671875,0.06842149794101715,0.009968549013137817,0.02404674142599106
1761413453192852700,0.862852783203125,0.059250641614198685,0.0048789819702506065,0.03126843646168709
1761413453202866000,0.872865966796875,0.05433231219649315,0.020262334495782852,0.020839110016822815
1761413453212878600,0.882878662109375,0.0465707965195179,0.037077803164720535,-0.0010962834348902106
1761413453222892800,0.892892822265625,0.044774819165468216,0.06777450442314148,-0.03149786591529846
1761413453232906000,0.902906005859375,0.039470333606004715,0.10466834157705307,-0.059260252863168716
1761413453242919700,0.912919677734375,0.03963744640350342,0.1400468945503235,-0.07297853380441666
1761413453252932900,0.922932861328125,0.03453988954424858,0.16760022938251495,-0.07904202491044998
1761413453262946800,0.93294677734375,0.02598702162504196,0.18067415058612823,-0.06885138154029846
1761413453272959700,0.942959716796875,0.01604650542140007,0.17126654088497162,-0.055404022336006165
1761413453282973700,0.9529736328125,0.008515628054738045,0.15755696594715118,-0.04086492583155632
1761413453292987000,0.96298681640625,0.007510550320148468,0.13696621358394623,-0.02666947990655899
1761413453302999800,0.972999755859375,0.003327447921037674,0.11191782355308533,-0.0159565769135952
1761413453313013800,0.983013671875,0.006608196068555117,0.07829887419939041,-0.0055334968492388725
1761413453323027000,0.99302685546875,0.013913849368691444,0.06135214865207672,-0.00233562127687037
1761413453333040600,1.00304052734375,0.017649998888373375,0.047899454832077026,-0.0024277667980641127
1761413453343053800,1.0130537109375,0.012107026763260365,0.034622468054294586,0.002716467250138521
1761413453353067800,1.02306787109375,0.004779605194926262,0.023903511464595795,0.0012655772734433413
1761413453363080700,1.033080810546875,-0.005634147673845291,0.02516743913292885,0.0000918989535421133
1761413453373094000,1.043093994140625,-0.012294979766011238,0.020177476108074188,-0.013297409750521183
1761413453383107600,1.053107666015625,-0.016064081341028214,0.020702946931123734,-0.035177990794181824
1761413453393120800,1.063120849609375,-0.013195325620472431,0.022640397772192955,-0.06012009084224701
1761413453403134700,1.073134765625,-0.011555827222764492,0.016771232709288597,-0.07808855921030045
1761413453413147600,1.083147705078125,-0.014395022764801979,0.015210352838039398,-0.08869432657957077
1761413453423161900,1.093161865234375,-0.015375463292002678,0.020585477352142334,-0.09018524736166
1761413453433174800,1.1031748046875,-0.008553776890039444,0.030238904058933258,-0.08722380548715591
1761413453443188700,1.113188720703125,-0.006353411823511124,0.023619787767529488,-0.08203478902578354
1761413453453201700,1.12320166015625,-0.01099530141800642,0.02225092239677906,-0.07075203955173492
1761413453463214800,1.13321484375,-0.003997316583991051,0.011546749621629715,-0.061662252992391586
1761413453473228800,1.143228759765625,0.0011079630348831415,-0.00004439288750290871,-0.056897591799497604
1761413453483241700,1.15324169921875,0.007923797704279423,-0.010111946612596512,-0.05823798477649689
1761413453493256000,1.163255859375,0.015512475743889809,-0.011925559490919113,-0.05204107612371445
1761413453503268600,1.1732685546875,0.019427122548222542,-0.005574819631874561,-0.049879562109708786
1761413453513282800,1.18328271484375,0.022802945226430893,0.005377430003136396,-0.05200716108083725
1761413453523295700,1.193295654296875,0.018199671059846878,0.019825078547000885,-0.052579738199710846
1761413453533308400,1.203308349609375,0.019432716071605682,0.03130650147795677,-0.04628802090883255
1761413453543322600,1.213322509765625,0.017807859927415848,0.036019325256347656,-0.039460062980651855
1761413453553335600,1.22333544921875,0.016883475705981255,0.03345603123307228,-0.027436954900622368
1761413453563349500,1.233349609375,0.016894588246941566,0.02228444255888462,-0.020379651337862015
1761413453573362700,1.24336279296875,0.01638059876859188,0.004405844025313854,-0.02238580957055092
1761413453583376400,1.25337646484375,0.022356066852808,-0.010790619999170303,-0.022231951355934143
1761413453593389600,1.2633896484375,0.01828036643564701,-0.029170161113142967,-0.026283152401447296
1761413453603402500,1.273402587890625,0.01348867081105709,-0.03850673884153366,-0.0338299460709095
1761413453613416400,1.28341650390625,0.00447706738486886,-0.040383994579315186,-0.03985188901424408
1761413453623429600,1.2934296875,-0.003298891941085458,-0.05118568241596222,-0.04073058441281319
1761413453633443600,1.303443603515625,-0.013816513121128082,-0.05637644976377487,-0.03359544277191162
1761413453643456500,1.31345654296875,-0.01987687312066555,-0.05359507352113724,-0.02919798158109188
1761413453653470500,1.323470458984375,-0.02403167076408863,-0.037875499576330185,-0.02762165665626526
1761413453663483600,1.333483642578125,-0.024018634110689163,-0.025569021701812744,-0.025723040103912354
1761413453673497300,1.343497314453125,-0.028649872168898582,-0.007099466864019632,-0.023258019238710403
1761413453683510500,1.353510498046875,-0.03108079731464386,0.005764926318079233,-0.01859671249985695
1761413453693523700,1.363523681640625,-0.03011699952185154,0.009692555293440819,-0.01343444176018238
1761413453703537400,1.373537353515625,-0.02863668091595173,0.006514670792967081,-0.008063717745244503
1761413453713550600,1.383550537109375,-0.027645185589790344,0.0037140906788408756,-0.0031541804783046246
1761413453723564500,1.393564453125,-0.026565881446003914,0.007896692492067814,-0.00030733225867152214
1761413453733577500,1.403577392578125,-0.019965237006545067,0.01298759039491415,0.005373190622776747
1761413453743591400,1.41359130859375,-0.015281658619642258,0.01923542469739914,0.005354716442525387
1761413453753604400,1.423604248046875,-0.013845682144165039,0.013377536088228226,0.0018747637514024973
1761413453763617500,1.433617431640625,-0.016721220687031746,0.00990709662437439,0.003761637955904007
1761413453773631500,1.443631591796875,-0.01764027774333954,0.013527929782867432,0.012698140926659107
1761413453783644400,1.45364453125,-0.012334871105849743,0.02146156132221222,0.019568273797631264
1761413453793658400,1.463658447265625,-0.009523105807602406,0.030924038961529732,0.02568395622074604
1761413453803671600,1.473671630859375,-0.0064255837351083755,0.03806903585791588,0.022335032001137733
1761413453813685500,1.483685546875,0.000217139080632478,0.041540466248989105,0.016503507271409035
1761413453823698400,1.493698486328125,0.004939658101648092,0.03694327920675278,0.00753826554864645
1761413453833711600,1.503711669921875,0.007909880951046944,0.028142599388957024,-0.0032768312375992537
1761413453843725600,1.5137255859375,0.005954972933977842,0.020068641752004623,-0.00740567222237587
1761413453853738500,1.523738525390625,0.0016265370650216937,0.014427533373236656,-0.010932762175798416
1761413453863752700,1.533752685546875,0.0008279333706013858,0.009856771677732468,-0.013440203852951527
1761413453873765400,1.543765380859375,-0.0019838321022689342,0.00754115404561162,-0.021282680332660675
1761413453883779600,1.553779541015625,-0.00041402410715818405,0.0035693752579391003,-0.028185956180095673
1761413453893792500,1.56379248046875,0.000936997530516237,0.005858095828443766,-0.036204468458890915
1761413453903805400,1.573805419921875,0.004222128540277481,0.008867545053362846,-0.04253615811467171
1761413453913819600,1.583819580078125,0.010334615595638752,0.010947206988930702,-0.04291139543056488
1761413453923832300,1.593832275390625,0.013036806136369705,0.01488953735679388,-0.03291028365492821
1761413453933846500,1.603846435546875,0.01083490438759327,0.013377928175032139,-0.018862908706068993
1761413453943859500,1.613859375,0.013604913838207722,0.005365452263504267,-0.007425817660987377
1761413453953873700,1.623873779296875,0.012217406183481216,0.0053145852871239185,-0.002775139408186078
1761413453963886600,1.633886474609375,0.013507047668099403,0.006138229742646217,-0.0017582967411726713
1761413453973899500,1.6438994140625,0.012773878872394562,0.008674358017742634,-0.004493629559874535
1761413453983913500,1.65391357421875,0.011633777059614658,0.0019952869042754173,-0.009440838359296322
1761413453993926400,1.663926513671875,0.012802371755242348,-0.008601430803537369,-0.006053031422197819
1761413454003940600,1.673940673828125,0.013394061475992203,-0.022997716441750526,-0.0009839461417868733
1761413454013953500,1.68395361328125,0.013961048796772957,-0.02548857219517231,0.008850574493408203
1761413454023967500,1.693967529296875,0.019090887159109116,-0.025947656482458115,0.02315760962665081
1761413454033980700,1.703980712890625,0.021025139838457108,-0.010437142103910446,0.03267920762300491
1761413454043994400,1.713994384765625,0.019731245934963226,0.0016187871806323528,0.036056555807590485
1761413454054007600,1.724007568359375,0.02252783253788948,0.010143832303583622,0.03428608924150467
1761413454064020700,1.734020751953125,0.02480841986835003,0.013783516362309456,0.02653292752802372
1761413454074034400,1.744034423828125,0.03010491468012333,0.01651778258383274,0.019869165495038033
1761413454084047600,1.754047607421875,0.03774966672062874,0.0153801329433918,0.015783220529556274
1761413454094061600,1.7640615234375,0.03910388424992561,0.0075714788399636745,0.015961386263370514
1761413454104074500,1.774074462890625,0.04072854667901993,-0.004218134097754955,0.02111733704805374
1761413454114088400,1.78408837890625,0.038898419588804245,-0.020979804918169975,0.02915848419070244
1761413454124101600,1.7941015625,0.03565708547830582,-0.02956516668200493,0.030882230028510094
1761413454134114600,1.804114501953125,0.03634844347834587,-0.029804052785038948,0.03193976730108261
1761413454144128500,1.81412841796875,0.034917596727609634,-0.023243993520736694,0.028421275317668915
1761413454154141400,1.824141357421875,0.03403928503394127,-0.014097366482019424,0.021513566374778748
1761413454164155400,1.8341552734375,0.03057277575135231,-0.000795203261077404,0.01792692020535469
1761413454174168600,1.84416845703125,0.023789703845977783,0.015344617888331413,0.014525797218084335
1761413454184182500,1.8541826171875,0.01769559644162655,0.018203651532530785,0.01391551923006773
1761413454194195500,1.864195556640625,0.008960428647696972,0.018881158903241158,0.017573107033967972
1761413454204208600,1.874208740234375,0.005606109742075205,0.014546433463692665,0.017724277451634407
1761413454214222300,1.884222412109375,-0.0011178395943716168,0.015165351331233978,0.019258789718151093
1761413454224235500,1.894235595703125,-0.0026942354161292315,0.008601163513958454,0.013855818659067154
1761413454234249500,1.90424951171875,-0.003598112380132079,0.00111448485404253,0.014806566759943962
1761413454244262400,1.914262451171875,-0.008008361794054508,-0.008005687035620213,0.011548841372132301
1761413454254276600,1.924276611328125,-0.007835788652300835,-0.01921147108078003,0.00475431839004159
1761413454264289500,1.93428955078125,-0.013586298562586308,-0.024982627481222153,0.0001716972328722477
1761413454274302500,1.944302490234375,-0.015774084255099297,-0.024346135556697845,0.0021554860286414623
1761413454284316400,1.95431640625,-0.01566915214061737,-0.017055334523320198,0.0034179450012743473
1761413454294329600,1.96432958984375,-0.017848949879407883,-0.006059142295271158,0.014148887246847153
1761413454304343600,1.974343505859375,-0.014905163086950779,0.0030523017048835754,0.016622744500637054
1761413454314356500,1.9843564453125,-0.010766077786684036,0.010483319871127605,0.017830222845077515
1761413454324370700,1.99437060546875,-0.013290803879499435,0.007279887329787016,0.015327213332057
1761413454334383400,2.00438330078125,-0.011106212623417377,-0.0019442373886704445,0.008480759337544441
1761413454344396500,2.014396484375,-0.01090249978005886,-0.008750993758440018,0.006877609994262457
1761413454354410500,2.024410400390625,-0.008623632602393627,-0.011156361550092697,0.002304163295775652
1761413454364423400,2.03442333984375,-0.010004072450101376,-0.01553294062614441,0.0018649098929017782
1761413454374437600,2.044437744140625,-0.0062026772648096085,-0.022138379514217377,-0.0005484465509653091
1761413454384450600,2.054450439453125,-0.004094803240150213,-0.023218940943479538,-0.004154701251536608
1761413454394463500,2.06446337890625,-0.0017514880746603012,-0.02257445454597473,-0.001099522807635367
1761413454404477700,2.074477783203125,0.0037751079071313143,-0.02116604708135128,-0.001665324904024601
1761413454414490400,2.084490478515625,-0.00214110454544425,-0.02290429174900055,-0.0018117987783625722
1761413454424504600,2.094504638671875,-0.009817475453019142,-0.03287506103515625,0.00158392870798707
1761413454434517500,2.104517578125,-0.01739470101892948,-0.036807745695114136,0.006158174481242895
1761413454444531500,2.114531494140625,-0.02513475902378559,-0.038463521748781204,0.01105652004480362
1761413454454544600,2.124544677734375,-0.02807195857167244,-0.03484082221984863,0.00698108458891511
1761413454464557300,2.134557373046875,-0.02632913365960121,-0.0210244320333004,0.011383971199393272
1761413454474571500,2.144571533203125,-0.028505202382802963,-0.008467093110084534,0.0010354600381106138
1761413454484584400,2.15458447265625,-0.027531681582331657,-0.007954902946949005,-0.010612747631967068
1761413454494598700,2.1645986328125,-0.027017692103981972,-0.01499949675053358,-0.017384899780154228
1761413454504611600,2.174611572265625,-0.028944024816155434,-0.02332869917154312,-0.02412412501871586
1761413454514625500,2.18462548828125,-0.039056845009326935,-0.038263704627752304,-0.02352491393685341
1761413454524639200,2.19463916015625,-0.047195129096508026,-0.042533788830041885,-0.014946389012038708
1761413454534652000,2.20465185546875,-0.05449884757399559,-0.03860243037343025,-0.008538823574781418
1761413454544666000,2.214666015625,-0.05739910155534744,-0.033873219043016434,-0.005884401500225067
1761413454554679000,2.224678955078125,-0.059334952384233475,-0.027254730463027954,-0.0059637632220983505
1761413454564693200,2.234693359375,-0.05745716020464897,-0.01551378145813942,-0.006933539640158415
1761413454574706200,2.2447060546875,-0.05418253690004349,-0.006107763387262821,-0.00836445577442646
1761413454584720100,2.25472021484375,-0.04627833515405655,0.0010780715383589268,-0.0037131025455892086
1761413454594733000,2.264733154296875,-0.042462293058633804,-0.00427568145096302,0.0034912806004285812
1761413454604746000,2.27474609375,-0.0388471893966198,-0.015125198289752007,0.010355917736887932
1761413454614760200,2.28476025390625,-0.03581491485238075,-0.025347208604216576,0.019834907725453377
1761413454624773000,2.294773193359375,-0.03927363082766533,-0.03358040004968643,0.02147306688129902
1761413454634787000,2.304787109375,-0.041842248290777206,-0.03669789806008339,0.0202805045992136
1761413454644800300,2.31480029296875,-0.03993668779730797,-0.03237662464380264,0.014171428978443146
1761413454654814000,2.32481396484375,-0.039859723299741745,-0.02742660604417324,0.011347413063049316
1761413454664827100,2.3348271484375,-0.035853058099746704,-0.027297478169202805,0.01786339282989502
1761413454674840300,2.34484033203125,-0.035186734050512314,-0.0252780020236969,0.02393806353211403
1761413454684854000,2.35485400390625,-0.035702455788850784,-0.020387575030326843,0.032755449414253235
1761413454694867200,2.3648671875,-0.03307551145553589,-0.007297872565686703,0.036602385342121124
1761413454704881200,2.374881103515625,-0.028346482664346695,0.004977212753146887,0.03958220034837723
1761413454714894000,2.38489404296875,-0.022769557312130928,0.010448677465319633,0.04536338895559311
1761413454724908000,2.394907958984375,-0.02225801907479763,0.015577083453536034,0.04923082888126373
1761413454734921200,2.404921142578125,-0.022524600848555565,0.00809706375002861,0.046600159257650375
1761413454744934100,2.41493408203125,-0.023067833855748177,0.0006848666816949844,0.04471665248274803
1761413454754948000,2.424947998046875,-0.019132748246192932,-0.00520684476941824,0.04507884383201599
1761413454764961000,2.4349609375,-0.0205581896007061,-0.0160989873111248,0.04237495735287666
1761413454774975000,2.44497509765625,-0.022954236716032028,-0.022272992879152298,0.037505101412534714
1761413454784988200,2.45498828125,-0.02110554277896881,-0.016966139897704124,0.0373605415225029
1761413454795001000,2.4650009765625,-0.025596164166927338,-0.008197150193154812,0.03779197111725807
1761413454805015000,2.47501513671875,-0.025424795225262642,-0.006146710366010666,0.027049534022808075
1761413454815028200,2.4850283203125,-0.02234085462987423,-0.0003543351776897907,0.015171302482485771
1761413454825042000,2.4950419921875,-0.023134872317314148,0.005236633587628603,0.009956613183021545
1761413454835055000,2.50505517578125,-0.019989145919680595,0.010709162801504135,0.004467039369046688
1761413454845069000,2.515069091796875,-0.02228759229183197,0.009261274710297585,0.0029580462723970413
1761413454855082000,2.52508203125,-0.021755225956439972,0.003724828828126192,0.004191089887171984
1761413454865095200,2.53509521484375,-0.021517064422369003,-0.0033904463052749634,0.0037176492623984814
1761413454875109000,2.545109130859375,-0.019742334261536598,-0.00436250027269125,0.0021128286607563496
1761413454885122000,2.5551220703125,-0.020770132541656494,-0.0026238735299557447,-0.0006814014632254839
1761413454895136000,2.565135986328125,-0.024086833000183105,-0.005946166813373566,0.0008826730772852898
1761413454905149200,2.575149169921875,-0.02324160933494568,-0.0025887556839734316,0.002411083783954382
1761413454915163100,2.5851630859375,-0.02348741888999939,-0.0011056410148739815,0.005891036242246628
1761413454925176000,2.595176025390625,-0.02638266794383526,-0.00003991648554801941,0.00686073862016201
1761413454935189000,2.60518896484375,-0.027217036113142967,-0.006879180204123259,0.00945359282195568
1761413454945203000,2.615202880859375,-0.028922857716679573,-0.01050177775323391,0.010572822764515877
1761413454955216100,2.625216064453125,-0.027594206854701042,-0.007860987447202206,0.014342792332172394
1761413454965230300,2.635230224609375,-0.02930421754717827,-0.006263227201998234,0.019156042486429214
1761413454975243000,2.645242919921875,-0.03267817571759224,0.0037681013345718384,0.020499076694250107
1761413454985257200,2.65525732421875,-0.034505851566791534,0.007887257263064384,0.018395183607935905
1761413454995270000,2.665269775390625,-0.03135612979531288,0.014375250786542892,0.009977730922400951
1761413455005283000,2.675282958984375,-0.03139659762382507,0.024793390184640884,0.004897310398519039
1761413455015297300,2.68529736328125,-0.030759302899241447,0.026052534580230713,-0.008831018581986427
1761413455025310000,2.69531005859375,-0.028271714225411415,0.020044414326548576,-0.013685911893844604
1761413455035324200,2.70532421875,-0.03420550376176834,0.021850036457180977,-0.014057155698537827
1761413455045337000,2.715337158203125,-0.03547648712992668,0.012423835694789886,-0.015860483050346375
1761413455055350000,2.72535009765625,-0.03920704126358032,0.002757626585662365,-0.018448276445269585
1761413455065364200,2.7353642578125,-0.04325072467327118,-0.0042001125402748585,-0.026997046545147896
1761413455075377200,2.745377197265625,-0.042804911732673645,-0.013564319349825382,-0.03257716819643974
1761413455085391000,2.75539111328125,-0.039457932114601135,-0.01612243615090847,-0.04254036024212837
1761413455095404000,2.765404052734375,-0.038071226328611374,-0.015544263646006584,-0.05136873945593834
1761413455105418200,2.775418212890625,-0.04011144861578941,-0.014039333909749985,-0.05607143044471741
1761413455115431200,2.78543115234375,-0.041939977556467056,-0.013564225286245346,-0.05119810998439789
1761413455125444000,2.795444091796875,-0.04072658717632294,-0.008820423856377602,-0.036865897476673126
1761413455135458000,2.8054580078125,-0.040421124547719955,-0.005519967991858721,-0.01859314739704132
1761413455145471000,2.815470947265625,-0.03408706188201904,-0.004781069699674845,-0.0009498253930360079
1761413455155485200,2.825485107421875,-0.01958455517888069,-0.007507613860070705,0.012327097356319427
1761413455165498000,2.835498046875,-0.005187832284718752,-0.01064658910036087,0.011451592668890953
1761413455175512000,2.845511962890625,0.007687752600759268,-0.023897679522633553,0.01167476549744606
1761413455185525200,2.855525146484375,0.009802032262086868,-0.042170554399490356,-0.0029897841159254313
1761413455195538000,2.865537841796875,0.012765331193804741,-0.05928509682416916,-0.016023827716708183
1761413455205552000,2.87555224609375,0.013329786248505116,-0.07050558924674988,-0.022836918011307716
1761413455215565300,2.8855654296875,0.017575928941369057,-0.07434426993131638,-0.030049292370676994
1761413455225579000,2.8955791015625,0.020899157971143723,-0.07129115611314774,-0.030546043068170547
1761413455235592200,2.90559228515625,0.04152507334947586,-0.05376835912466049,-0.0423654206097126
1761413455245604900,2.91560498046875,0.0641700029373169,-0.027933930978178978,-0.03778362274169922
1761413455255619000,2.925619140625,0.07056877762079239,-0.002548679243773222,-0.016343574970960617
1761413455265632300,2.93563232421875,0.05713014677166939,0.007725350558757782,0.006823111325502396
1761413455275646200,2.945646240234375,0.04601624235510826,0.011447650380432606,0.030489293858408928
1761413455285659100,2.9556591796875,0.04079769179224968,0.016420291736721992,0.04825853928923607
1761413455295673000,2.965673095703125,0.03377759829163551,0.021254461258649826,0.057569485157728195
1761413455305686000,2.97568603515625,0.035494476556777954,0.020856281742453575,0.050333164632320404
1761413455315699200,2.98569921875,0.04545203596353531,0.018675152212381363,0.041918374598026276
1761413455325713200,2.995713134765625,0.05015331134200096,0.016160467639565468,0.032239265739917755
1761413455335726000,3.00572607421875,0.0511448048055172,0.009924408048391342,0.032227545976638794
1761413455345740000,3.015739990234375,0.0512644425034523,0.0025285808369517326,0.03468295931816101
1761413455355753200,3.025753173828125,0.04679219424724579,-0.0032688546925783157,0.04717850685119629
1761413455365767000,3.035766845703125,0.04082313925027847,0.00023644743487238884,0.058151669800281525
1761413455375780000,3.045780029296875,0.03479933366179466,0.00027932412922382355,0.068389393389225
1761413455385793300,3.055793212890625,0.03165093809366226,0.006220448762178421,0.0661088302731514
1761413455395807000,3.065806884765625,0.035701870918273926,0.01752929389476776,0.05297732353210449
1761413455405820200,3.075820068359375,0.027416838333010674,0.025006689131259918,0.04311774671077728
1761413455415834000,3.085834228515625,0.01536523550748825,0.006691331509500742,0.033031024038791656
1761413455425847000,3.095846923828125,0.012099409475922585,-0.01351967267692089,0.03163683041930199
1761413455435860200,3.105860107421875,0.014473085291683674,-0.019698472693562508,0.026144592091441154
1761413455445874200,3.115874267578125,0.01563042402267456,-0.02911410480737686,0.022604767233133316
1761413455455887000,3.12588720703125,0.013740377500653267,-0.03695045784115791,0.016810797154903412
1761413455465901000,3.135901123046875,0.009822335094213486,-0.02713111788034439,0.010791518725454807
1761413455475914000,3.1459140625,0.013628524728119373,-0.010914329439401627,0.001620125025510788
1761413455485928000,3.155927978515625,0.0008831098093651235,-0.0003276383504271507,-0.007389206439256668
1761413455495941000,3.165941162109375,-0.003203244647011161,0.03099140338599682,-0.01804211735725403
1761413455505954000,3.1759541015625,-0.0008002786198630929,0.0671098604798317,-0.02730764076113701
1761413455515968000,3.185968017578125,-0.0006119931349530816,0.08292105048894882,-0.025299616158008575
1761413455525981200,3.195981201171875,-0.0007044092053547502,0.07961487025022507,-0.01917686127126217
1761413455535995000,3.205994873046875,0.00005725485971197486,0.07060033828020096,-0.011650236323475838
1761413455546008000,3.216008056640625,0.011869641952216625,0.05903393030166626,-0.007253334857523441
1761413455556021200,3.226021240234375,0.02408316545188427,0.0399627648293972,-0.014521101489663124
1761413455566035000,3.236034912109375,0.033348631113767624,0.023014578968286514,-0.02116263471543789
1761413455576048000,3.246048095703125,0.03934447094798088,0.012814939022064209,-0.019615070894360542
1761413455586062000,3.25606201171875,0.04041140526533127,0.006650016643106937,-0.02068305015563965
1761413455596075000,3.266074951171875,0.031430426985025406,0.008410099893808365,-0.01278145145624876
1761413455606089200,3.276089111328125,0.027760526165366173,0.01893647387623787,-0.004001252353191376
1761413455616102100,3.28610205078125,0.021815817803144455,0.03026050142943859,0.0034031341783702374
1761413455626115000,3.296114990234375,0.014842596836388111,0.03679270297288895,0.009972354397177696
1761413455636129000,3.30612890625,0.012001270428299904,0.040264666080474854,0.005852177273482084
1761413455646142000,3.316141845703125,0.006451437249779701,0.04283405467867851,0.0076903412118554115
1761413455656156200,3.32615625,0.013355416245758533,0.034302618354558945,0.013097623363137245
1761413455666169000,3.336169189453125,0.01455148495733738,0.024611961096525192,0.017350461333990097
1761413455676183300,3.346183349609375,0.016460971906781197,0.01488316897302866,0.0250770915299654
1761413455686196000,3.356196044921875,0.016294026747345924,0.01434650830924511,0.036068107932806015
1761413455696209200,3.366209228515625,0.01178875844925642,0.019633149728178978,0.03939572721719742
1761413455706223000,3.37622314453125,0.01061295997351408,0.022576086223125458,0.03742276504635811
1761413455716236000,3.386236083984375,0.006041644141077995,0.020268458873033524,0.030147811397910118
1761413455726250200,3.396250244140625,0.009091030806303024,0.015155087225139141,0.023275084793567657
1761413455736263000,3.406262939453125,0.01511590089648962,0.013433885760605335,0.03182756155729294
1761413455746276000,3.416276123046875,0.0038675027899444103,-0.0098116435110569,0.02632029354572296
1761413455756290300,3.426290283203125,-0.0026074410416185856,-0.01732894778251648,0.02216522768139839
1761413455766303000,3.436302978515625,0.006280384957790375,-0.01660226471722126,0.022263891994953156
1761413455776317200,3.446317138671875,0.004599930252879858,-0.011437330394983292,0.02771218679845333
1761413455786330000,3.456330078125,0.001968943979591131,-0.0025268413592129946,0.033966995775699615
1761413455796344000,3.466343994140625,-0.0008548057521693408,0.00954260490834713,0.04188963398337364
1761413455806357200,3.476357177734375,-0.00734780915081501,0.024826934561133385,0.046377215534448624
1761413455816370000,3.486369873046875,-0.004800495691597462,0.03167685121297836,0.05759471654891968
1761413455826384100,3.496384033203125,-0.0019249909091740847,0.029898937791585922,0.06790397316217422
1761413455836397000,3.50639697265625,0.004519858863204718,0.026712466031312943,0.07817897945642471
1761413455846411300,3.516411376953125,0.01377712469547987,0.01588919200003147,0.08350848406553268
1761413455856424200,3.526424072265625,0.016970256343483925,-0.001542795216664672,0.08015237003564835
1761413455866437000,3.53643701171875,0.019927166402339935,-0.018963202834129333,0.06939570605754852
1761413455876451000,3.546451171875,0.016610998660326004,-0.027348697185516357,0.05263963341712952
1761413455886464000,3.556464111328125,0.01607496850192547,-0.018680337816476822,0.04000690579414368
1761413455896478200,3.566478271484375,0.010914028622210026,-0.015949266031384468,0.03130635991692543
1761413455906491100,3.5764912109375,0.005360213108360767,-0.013269767165184021,0.028061706572771072
1761413455916504000,3.586504150390625,-0.001813011011108756,-0.007938118651509285,0.0284622460603714
1761413455926518300,3.596518310546875,-0.0010960435029119253,0.011036956682801247,0.03071531467139721
1761413455936531000,3.606531005859375,0.0017330325208604336,0.029362168163061142,0.03396543860435486
1761413455946545200,3.616545166015625,0.004172705113887787,0.03843298181891441,0.02967413142323494
1761413455956558300,3.626558349609375,0.008520581759512424,0.04172438010573387,0.021815672516822815
1761413455966572000,3.636572021484375,0.016357850283384323,0.03591397777199745,0.011384855955839157
1761413455976585200,3.646585205078125,0.02260029874742031,0.0254815760999918,0.0063645304180681705
1761413455986598000,3.656597900390625,0.024011308327317238,-0.0024375084321945906,-0.0017532209167256951
1761413455996612000,3.666612060546875,0.027183933183550835,-0.03763411194086075,-0.006046769209206104
1761413456006625300,3.676625244140625,0.03319063410162926,-0.06822894513607025,-0.013982315547764301
1761413456016639000,3.686638916015625,0.03885650634765625,-0.08399592339992523,-0.015841733664274216
1761413456026652200,3.696652099609375,0.03721379116177559,-0.09349837154150009,-0.012854918837547302
1761413456036666000,3.706666015625,0.03414343297481537,-0.09149167686700821,0.0003189404960721731
1761413456046679000,3.716678955078125,0.030772091820836067,-0.07001812756061554,0.01282617449760437
1761413456056692200,3.726692138671875,0.02965409681200981,-0.03441566228866577,0.02461012825369835
1761413456066706200,3.7367060546875,0.02535121887922287,-0.010120700113475323,0.024735858663916588
1761413456076719000,3.746718994140625,0.030739059671759605,0.017805472016334534,0.019712604582309723
1761413456086733000,3.756733154296875,0.0414980947971344,0.038543444126844406,0.015540037304162979
1761413456096746200,3.766746337890625,0.0462568998336792,0.03459770232439041,0.011987114325165749
1761413456106759200,3.77675927734375,0.05209101736545563,0.020053749904036522,0.007156842388212681
1761413456116773000,3.786773193359375,0.055747006088495255,0.0075283716432750225,0.006878809072077274
1761413456126786000,3.7967861328125,0.05862893536686897,-0.01154724508523941,0.008919810876250267
1761413456136800000,3.806800048828125,0.05669201910495758,-0.03279980272054672,0.010916650295257568
1761413456146813200,3.816813232421875,0.05900798738002777,-0.04771801456809044,0.01703678071498871
1761413456156826000,3.826826171875,0.05606146529316902,-0.05747343972325325,0.018595527857542038
1761413456166840000,3.836840087890625,0.059372834861278534,-0.05808689445257187,0.012195033952593803
1761413456176853200,3.846853271484375,0.05827374756336212,-0.04436042904853821,0.008960358798503876
1761413456186867000,3.856866943359375,0.063747338950634,-0.02507847361266613,0.006679242476820946
1761413456196880100,3.866880126953125,0.06794288009405136,0.0019877655431628227,0.004000634886324406
1761413456206894000,3.87689404296875,0.07078660279512405,0.01342763938009739,-0.003953162115067244
1761413456216907000,3.886906982421875,0.07212510704994202,0.010962352156639099,-0.005257045850157738
1761413456226920200,3.896920166015625,0.06793482601642609,0.005673020146787167,-0.005861797835677862
1761413456236934100,3.90693408203125,0.06228518858551979,0.0036088041961193085,-0.004223154857754707
1761413456246947000,3.916947021484375,0.059464361518621445,0.0020134421065449715,-0.0008312045829370618
1761413456256961000,3.9269609375,0.05611623823642731,0.004099762998521328,0.0029837738256901503
1761413456266974200,3.93697412109375,0.0539274588227272,-0.0026790201663970947,0.0054458137601614
1761413456276987100,3.946987060546875,0.0530502125620842,-0.008086835034191608,0.0013799660373479128
1761413456287001000,3.9570009765625,0.04896339774131775,-0.021208597347140312,0.004148683976382017
1761413456297014000,3.967013916015625,0.0399499274790287,-0.022184912115335464,0.0006655359175056219
1761413456307028000,3.977028076171875,0.027385927736759186,-0.011903907172381878,0.0013897973112761974
1761413456317041200,3.987041259765625,0.015691719949245453,0.0024313563480973244,0.0043208724819123745
1761413456327055000,3.99705517578125,0.002345627173781395,0.012780161574482918,0.001725570298731327
1761413456337068000,4.007068115234375,-0.0065538580529391766,0.021983513608574867,-0.0035687938798218966
1761413456347081200,4.017081298828125,-0.014196849428117275,0.021533027291297913,-0.01804191991686821
1761413456357095000,4.027094970703125,-0.020473921671509743,0.012584807351231575,-0.03431063890457153
1761413456367108000,4.037108154296875,-0.02460229955613613,0.004206012934446335,-0.04379095137119293
1761413456377122000,4.0471220703125,-0.03234091401100159,-0.0005716974847018719,-0.051338084042072296
1761413456387135000,4.057135009765625,-0.038995161652565,0.0016799774020910263,-0.049703650176525116
1761413456397148200,4.067148193359375,-0.048386797308921814,0.015951592475175858,-0.05169356241822243
1761413456407162000,4.077162109375,-0.0546795129776001,0.03321170434355736,-0.05676652491092682
1761413456417175000,4.087175048828125,-0.056591663509607315,0.04669688642024994,-0.06489502638578415
1761413456427189000,4.09718896484375,-0.05469169840216637,0.05015450716018677,-0.06929218769073486
1761413456437202200,4.1072021484375,-0.04803859069943428,0.046341393142938614,-0.0677691325545311
1761413456447215000,4.117215087890625,-0.04096994921565056,0.025247713550925255,-0.06469018012285233
1761413456457229000,4.12722900390625,-0.038724105805158615,0.007420246955007315,-0.05850818753242493
1761413456467242000,4.137241943359375,-0.03747148811817169,0.0019520428031682968,-0.05109907686710358
1761413456477256000,4.147255859375,-0.031587764620780945,0.00668048532679677,-0.04553546756505966
1761413456487269000,4.15726904296875,-0.026638222858309746,0.015858978033065796,-0.04532388970255852
1761413456497282000,4.167281982421875,-0.02642836607992649,0.0319543220102787,-0.04316273704171181
1761413456507296000,4.1772958984375,-0.020674539729952812,0.039250485599040985,-0.05567789822816849
1761413456517309200,4.18730908203125,-0.021458839997649193,0.03838202729821205,-0.06985390186309814
1761413456527322600,4.197322509765625,-0.02074044942855835,0.03222140297293663,-0.08278069645166397
1761413456537335600,4.20733544921875,-0.021732211112976074,0.02464151382446289,-0.09616201370954514
1761413456547349800,4.217349853515625,-0.020406685769557953,0.020983826369047165,-0.09884052723646164
1761413456557362400,4.227362548828125,-0.018875902518630028,0.02004346437752247,-0.09411581605672836
1761413456567375600,4.237375732421875,-0.012105760164558887,0.012880305759608746,-0.08730866760015488
1761413456577389800,4.247389892578125,-0.0019141091033816338,0.0033166278153657913,-0.0777982547879219
1761413456587402500,4.257402587890625,0.007275869604200125,-0.0032631526701152325,-0.06385087221860886
1761413456597416700,4.267416748046875,0.013027498498558998,-0.004378484562039375,-0.055729299783706665
1761413456607429600,4.2774296875,0.01577449031174183,0.009048200212419033,-0.04710530862212181
1761413456617442600,4.287442626953125,0.015307372435927391,0.023432467132806778,-0.03956003859639168
1761413456627456800,4.297456787109375,0.016025209799408913,0.0247231163084507,-0.03818746283650398
1761413456637469400,4.307469482421875,0.020630082115530968,0.026209961622953415,-0.033322397619485855
1761413456647483600,4.317483642578125,0.032517705112695694,0.03518377244472504,0.008909158408641815
1761413456657496600,4.32749658203125,0.027124540880322456,0.02456335350871086,0.04841449111700058
1761413456667509500,4.337509521484375,0.02377699688076973,0.008354336954653263,0.07741285860538483
1761413456677523700,4.347523681640625,0.037710390985012054,0.003291933797299862,0.09783530980348587
1761413456687536600,4.35753662109375,0.04687153920531273,-0.0027300796937197447,0.1018439456820488
1761413456697550600,4.367550537109375,0.05384316295385361,-0.005517610348761082,0.08810576796531677
1761413456707563500,4.3775634765625,0.06030033901333809,-0.009090617299079895,0.0736192986369133
1761413456717577700,4.38757763671875,0.06215176731348038,-0.003196509089320898,0.06498239934444427
1761413456727590700,4.397590576171875,0.060370706021785736,0.008732495829463005,0.06479637324810028
1761413456737603600,4.407603515625,0.05470536649227142,0.024973250925540924,0.07331076264381409
1761413456747617800,4.41761767578125,0.04152306169271469,0.019970659166574478,0.0756424218416214
1761413456757630500,4.42763037109375,0.03358124941587448,0.028728729113936424,0.07196193188428879
1761413456767644700,4.437644775390625,0.03043011762201786,0.053219273686409,0.08026028424501419
1761413456777657600,4.44765771484375,0.027026597410440445,0.05570719763636589,0.0850939229130745
1761413456787670500,4.45767041015625,0.021364383399486542,0.04916977137327194,0.08280830085277557
1761413456797684700,4.467684814453125,0.018931586295366287,0.04046975448727608,0.09675740450620651
1761413456807697400,4.477697509765625,0.01545740757137537,0.04211956262588501,0.09722114354372025
1761413456817711600,4.487711669921875,0.012590248137712479,0.02492646314203739,0.0935630276799202
1761413456827724800,4.497724853515625,0.015782658010721207,0.026600681245326996,0.08682689070701599
1761413456837737500,4.507737548828125,0.01712382771074772,0.034958746284246445,0.07494252920150757
1761413456847751700,4.517751708984375,0.005457786843180656,0.01368857454508543,0.05174082890152931
1761413456857764600,4.5277646484375,-0.007259073667228222,0.01302704494446516,0.044593170285224915
1761413456867778600,4.537778564453125,-0.014946809969842434,0.025721527636051178,0.03378923237323761
1761413456877791700,4.547791748046875,-0.027497222647070885,0.037928659468889236,0.02613903395831585
1761413456887805700,4.5578056640625,-0.031096218153834343,0.053824532777071,0.019850779324769974
1761413456897818600,4.567818603515625,-0.03407363221049309,0.05190226435661316,0.01026126742362976
1761413456907831600,4.57783154296875,-0.03411298617720604,0.05553192272782326,-0.006404816173017025
1761413456917845800,4.587845703125,-0.025716302916407585,0.03536992892622948,-0.019911037757992744
1761413456927858700,4.597858642578125,-0.01917228288948536,0.01961902156472206,-0.025984356179833412
1761413456937872600,4.60787255859375,-0.014189241454005241,0.0035548340529203415,-0.022519052028656006
1761413456947885600,4.617885498046875,-0.011465666815638542,-0.0014378493651747704,-0.015126424841582775
1761413456957898500,4.6278984375,-0.010539952665567398,-0.011973047628998756,-0.008969995193183422
1761413456967912700,4.63791259765625,-0.013638544827699661,-0.028480514883995056,-0.006492840126156807
1761413456977925600,4.647925537109375,-0.013757854700088501,-0.03384865075349808,-0.009744560346007347
1761413456987939600,4.657939697265625,-0.01454502809792757,-0.024561231955885887,-0.01912355236709118
1761413456997952800,4.667952880859375,-0.013704800978302956,-0.004682865459471941,-0.027212638407945633
1761413457007965400,4.67796533203125,-0.014947103336453438,0.01673591136932373,-0.03802855685353279
1761413457017979600,4.687979736328125,-0.011326801963150501,0.019778840243816376,-0.03489508107304573
1761413457027992800,4.697992919921875,-0.010929725132882595,0.015740955248475075,-0.03249290958046913
1761413457038006500,4.708006591796875,-0.00984129123389721,0.006000176537781954,-0.02322830632328987
1761413457048019700,4.718019775390625,-0.0020068776793777943,-0.008778531104326248,-0.017230812460184097
1761413457058032600,4.72803271484375,0.0021119671873748302,-0.01702474243938923,-0.01129196397960186
1761413457068046600,4.738046630859375,0.0024313132744282484,-0.02522650733590126,-0.006106350105255842
1761413457078059800,4.748059814453125,0.0007556523778475821,-0.028440143913030624,-0.00643817987293005
1761413457088073500,4.758073486328125,-0.002408992499113083,-0.02929740585386753,-0.004302028566598892
1761413457098086700,4.768086669921875,-0.01276709046214819,-0.02069193497300148,-0.00961237121373415
1761413457108099600,4.778099609375,-0.025221556425094604,-0.013305630534887314,-0.006615035701543093
1761413457118113500,4.788113525390625,-0.03398362174630165,-0.000879053957760334,-0.007539685349911451
1761413457128126700,4.798126708984375,-0.03940602391958237,0.011726790107786655,-0.010555470362305641
1761413457138140700,4.808140625,-0.035426728427410126,0.02905544638633728,-0.008922154083848
1761413457148153600,4.818153564453125,-0.03136109933257103,0.036823008209466934,-0.008506009355187416
1761413457158167600,4.82816748046875,-0.030252693220973015,0.03888988494873047,-0.008094551041722298
1761413457168180700,4.8381806640625,-0.02523229457437992,0.024848928675055504,-0.006357957608997822
1761413457178193700,4.848193603515625,-0.02407568320631981,0.009337879717350006,-0.0014452242758125067
1761413457188207600,4.85820751953125,-0.022064197808504105,-0.009610778652131557,0.002234998159110546
1761413457198220500,4.868220458984375,-0.02426263689994812,-0.014567719772458076,0.004595357924699783
1761413457208234500,4.878234375,-0.025179563090205193,-0.015090232715010643,0.0019311313517391682
1761413457218247700,4.88824755859375,-0.020124884322285652,-0.009063232690095901,-0.0011876965872943401
1761413457228260600,4.898260498046875,-0.019911689683794975,-0.0006834035739302635,0.003044375916942954
1761413457238274600,4.908274658203125,-0.01886400207877159,0.006052529904991388,0.007386127486824989
1761413457248287700,4.918287841796875,-0.02286507934331894,0.01093933917582035,0.019930807873606682
1761413457258301400,4.928301513671875,-0.021324707195162773,0.014385735616087914,0.03196936473250389
1761413457268314600,4.938314697265625,-0.016819899901747704,0.01833190768957138,0.04383144527673721
1761413457278327800,4.948327880859375,-0.007067404687404633,0.01345725730061531,0.04542721062898636
1761413457288341500,4.958341552734375,0.0023203061427921057,0.005782457999885082,0.043653108179569244
1761413457298354700,4.968354736328125,0.007361936382949352,-0.0010000807233154774,0.04807794839143753
1761413457308368600,4.97836865234375,0.0050301458686590195,-0.011507289484143257,0.04896979033946991
1761413457318381600,4.988381591796875,0.006857074331492186,0.007191297132521868,0.04932079464197159
1761413457328394800,4.998394775390625,0.007272329181432724,0.019895806908607483,0.057783350348472595
1761413457338408700,5.00840869140625,-0.003931323066353798,-0.0021663527004420757,0.057481348514556885
1761413457348421600,5.018421630859375,-0.011377792805433273,-0.005808620247989893,0.05995477735996246
1761413457358435600,5.028435546875,-0.011502695269882679,-0.0031385349575430155,0.06559215486049652
1761413457368448500,5.038448486328125,-0.00605233246460557,0.0048312037251889706,0.07494572550058365
1761413457378461700,5.048461669921875,-0.006144477985799313,0.01814993843436241,0.08510222285985947
1761413457388475600,5.0584755859375,-0.0008995236712507904,0.02043473906815052,0.08989506959915161
1761413457398488600,5.068488525390625,0.0017351415008306503,0.02139613963663578,0.08697544783353806
1761413457408502500,5.07850244140625,0.009493734687566757,0.02669595740735531,0.08546395599842072
1761413457418515700,5.088515625,0.014977982267737389,0.03772437572479248,0.09738719463348389
1761413457428528600,5.098528564453125,0.0015415297821164131,0.038584448397159576,0.08402599394321442
1761413457438542600,5.10854248046875,-0.001707793097011745,0.014366725459694862,0.06007113680243492
1761413457448555800,5.1185556640625,-0.006603867746889591,-0.0018814308568835258,0.04060385376214981
1761413457458569500,5.128569580078125,-0.01201354619115591,0.00357006024569273,0.032386403530836105
1761413457468582700,5.138582763671875,-0.020003382116556168,0.006425217259675264,0.022408688440918922
1761413457478595600,5.148595703125,-0.024979764595627785,0.00927053764462471,0.02323107235133648
1761413457488609500,5.158609619140625,-0.028221415355801582,0.012558164075016975,0.025220444425940514
1761413457498622700,5.168622802734375,-0.024937205016613007,0.021084008738398552,0.03133878856897354
1761413457508636700,5.17863671875,-0.02075892686843872,0.03464420884847641,0.03249076381325722
1761413457518649600,5.188649658203125,-0.014143633656203747,0.03579309582710266,0.02932133898139
1761413457528663300,5.198663330078125,-0.013738430105149746,0.026475558057427406,0.02553025260567665
1761413457538676500,5.208676513671875,-0.009907206520438194,0.016472194343805313,0.024165915325284004
1761413457548689700,5.218689697265625,-0.01056984718888998,0.008345107547938824,0.016323812305927277
1761413457558703400,5.228703369140625,-0.01484182383865118,-0.0038468437269330025,0.01246995385736227
1761413457568716500,5.238716552734375,-0.020958051085472107,-0.006881506647914648,0.007217432372272015
1761413457578730500,5.24873046875,-0.027377599850296974,-0.0010465211234986782,-0.0040125856176018715
1761413457588743400,5.258743408203125,-0.028609201312065125,0.010240571573376656,-0.01531132310628891
1761413457598756600,5.268756591796875,-0.02598492056131363,0.020647140219807625,-0.016980858519673347
1761413457608770300,5.278770263671875,-0.027180328965187073,0.0276976116001606,-0.015181180089712143
1761413457618783500,5.288783447265625,-0.029371311888098717,0.024540167301893234,-0.01781770959496498
1761413457628797400,5.29879736328125,-0.02697605825960636,0.017235245555639267,-0.015281463973224163
1761413457638810400,5.308810302734375,-0.026265528053045273,0.013380051590502262,-0.013262255117297173
1761413457648823600,5.318823486328125,-0.023499982431530952,0.006057902704924345,-0.008232236839830875
1761413457658837500,5.32883740234375,-0.025243287906050682,-0.0006205062381923199,-0.008322518318891525
1761413457668850400,5.338850341796875,-0.024475226178765297,-0.00651288777589798,-0.009495256468653679
1761413457678864400,5.348864501953125,-0.02276015095412731,-0.0010121287778019905,-0.015620794147253036
1761413457688877600,5.358877685546875,-0.02854573167860508,0.004210393875837326,-0.017558051273226738
1761413457698890500,5.368890380859375,-0.03349575027823448,0.005571003071963787,-0.016649646684527397
1761413457708904400,5.378904541015625,-0.03724214807152748,0.007174822501838207,-0.01854616031050682
1761413457718917400,5.38891748046875,-0.0363214910030365,0.0042224423959851265,-0.0166087094694376
1761413457728931300,5.398931396484375,-0.027487844228744507,0.0029764408245682716,-0.02354637160897255
1761413457738944500,5.408944580078125,-0.02323797158896923,0.000551899429410696,-0.025678498670458794
1761413457748957400,5.41895751953125,-0.024027276784181595,-0.012730441987514496,-0.023679135367274284
1761413457758971400,5.428971435546875,-0.025634493678808212,-0.01762107014656067,-0.011944448575377464
1761413457768984600,5.438984619140625,-0.02821756713092327,-0.01842830330133438,0.00003556814044713974
1761413457778998300,5.448998291015625,-0.031726282089948654,-0.012960299849510193,0.009119344875216484
1761413457789011500,5.459011474609375,-0.031445398926734924,0.001813963521271944,0.01383467298001051
1761413457799024600,5.469024658203125,-0.029240300878882408,0.016681060194969177,0.01130759995430708
1761413457809038300,5.479038330078125,-0.019903987646102905,0.022664548829197884,0.0030114164110273123
1761413457819051500,5.489051513671875,-0.017175845801830292,0.027469424530863762,-0.007055065594613552
1761413457829065500,5.4990654296875,-0.025442156940698624,0.016588473692536354,-0.015072203241288662
1761413457839078400,5.509078369140625,-0.030393505468964577,0.006570460274815559,-0.02549901232123375
1761413457849091600,5.519091552734375,-0.029615681618452072,-0.0031572843436151743,-0.040781207382678986
1761413457859105500,5.52910546875,-0.025363147258758545,-0.014319125562906265,-0.051557689905166626
1761413457869118500,5.539118408203125,-0.0337454229593277,-0.014602772891521454,-0.05077771469950676
1761413457879132400,5.54913232421875,-0.045589298009872437,-0.018392983824014664,-0.05307868495583534
1761413457889145300,5.559145263671875,-0.051083728671073914,-0.022877518087625504,-0.05594742298126221
1761413457899158500,5.569158447265625,-0.05215299129486084,-0.016040917485952377,-0.05242645740509033
1761413457909172500,5.57917236328125,-0.047172751277685165,-0.0015039779245853424,-0.05479937791824341
1761413457919185400,5.589185302734375,-0.040853071957826614,0.01517806388437748,-0.06000132858753204
1761413457929199400,5.599199462890625,-0.029554683715105057,0.03502923622727394,-0.06185377016663551
1761413457939212500,5.609212646484375,-0.021070651710033417,0.049370359629392624,-0.06965070962905884
1761413457949225500,5.6192255859375,-0.016895484179258347,0.05462072044610977,-0.07002001255750656
1761413457959239400,5.629239501953125,-0.016760461032390594,0.04917614907026291,-0.06726524233818054
1761413457969252600,5.639252685546875,-0.01122608408331871,0.035906724631786346,-0.06700320541858673
1761413457979266300,5.649266357421875,-0.007298455107957125,0.016752470284700394,-0.0632161870598793
1761413457989279500,5.659279541015625,-0.00004837737651541829,-0.010399074293673038,-0.06100469082593918
1761413457999292400,5.66929248046875,0.008160550147294998,-0.040066156536340714,-0.0548810176551342
1761413458009306400,5.679306396484375,0.013182838447391987,-0.05179941654205322,-0.042026981711387634
1761413458019319600,5.689319580078125,0.015780221670866013,-0.0493951141834259,-0.027636058628559113
1761413458029333500,5.69933349609375,0.020167015492916107,-0.021986158564686775,0.0032176305539906025
1761413458039346400,5.709346435546875,0.010965527035295963,0.0022390210069715977,0.012228169478476048
1761413458049359600,5.719359619140625,0.004648956470191479,0.01326342485845089,-0.00845997966825962
1761413458059373300,5.729373291015625,0.006294257007539272,0.022320836782455444,-0.022432519122958183
1761413458069386500,5.739386474609375,-0.0031449401285499334,0.025058651342988014,-0.033118460327386856
1761413458079400400,5.749400390625,-0.010481416247785091,0.01582360826432705,-0.03813692182302475
1761413458089413400,5.759413330078125,-0.012899937108159065,0.0060783447697758675,-0.04102180153131485
1761413458099426600,5.769426513671875,-0.015722621232271194,-0.0026967714074999094,-0.03838606923818588
1761413458109440500,5.7794404296875,-0.012791937217116356,-0.01241232268512249,-0.03687015548348427
1761413458119453400,5.789453369140625,-0.01389741525053978,-0.022251637652516365,-0.03458889201283455
1761413458129467400,5.79946728515625,-0.011963898316025734,-0.02754010632634163,-0.023541055619716644
1761413458139480600,5.80948046875,-0.012967376969754696,-0.026530766859650612,-0.007883799262344837
1761413458149493500,5.819493408203125,-0.017827071249485016,-0.022123316302895546,0.012368370778858662
1761413458159507500,5.829507568359375,-0.02422797866165638,-0.013971114531159401,0.032156988978385925
1761413458169520400,5.839520263671875,-0.02604316547513008,-0.001824723556637764,0.042222075164318085
1761413458179534300,5.849534423828125,-0.03319588303565979,0.007563451770693064,0.049866411834955215
1761413458189547500,5.859547607421875,-0.03505206108093262,0.012092343531548977,0.04891955479979515
1761413458199560400,5.869560546875,-0.03813999518752098,0.020636562258005142,0.03922644630074501
1761413458209574400,5.879574462890625,-0.03234481438994408,0.03006620891392231,0.01953693851828575
1761413458219587600,5.889587646484375,-0.026077598333358765,0.027853121981024742,0.0048589264042675495
1761413458229601300,5.899601318359375,-0.02506186254322529,0.0181601420044899,-0.0011341347126290202
1761413458239614500,5.909614501953125,-0.02020372450351715,0.004974565468728542,-0.002864390378817916
1761413458249627600,5.919627685546875,-0.017151594161987305,-0.0068181236274540424,0.013923006132245064
1761413458259641300,5.929641357421875,-0.015446638688445091,-0.022782975807785988,0.02287309058010578
1761413458269654500,5.939654541015625,-0.014414563775062561,-0.027949413284659386,0.030295608565211296
1761413458279668500,5.94966845703125,-0.00682402215898037,-0.02351977676153183,0.030314253643155098
1761413458289681400,5.959681396484375,-0.004341894295066595,-0.009054247289896011,0.0262364000082016
1761413458299694600,5.969694580078125,0.0016291788779199123,-0.002359859412536025,0.021466411650180817
1761413458309708500,5.97970849609375,0.00987153872847557,0.008755035698413849,0.014699893072247505
1761413458319721500,5.989721435546875,0.015728630125522614,0.01880580373108387,0.00015210919082164764
1761413458329735400,5.9997353515625,0.012865941040217876,0.01361672580242157,-0.008830595761537552
1761413458339748400,6.009748291015625,0.012388968840241432,0.00977165438234806,-0.016356421634554863
1761413458349761500,6.019761474609375,0.01729118637740612,0.011930743232369423,-0.024369150400161743
1761413458359775500,6.029775390625,0.025457769632339478,0.013396013528108597,-0.017948800697922707
1761413458369788400,6.039788330078125,0.028070930391550064,0.01422069314867258,-0.0010117999045178294
1761413458379802400,6.04980224609375,0.03070346638560295,0.006909250281751156,0.013321599923074245
1761413458389815600,6.059815673828125,0.034929774701595306,-0.0005254312418401241,0.02191075123846531
1761413458399828500,6.069828369140625,0.04602396860718727,-0.011918434873223305,0.031934358179569244
1761413458409842400,6.079842529296875,0.04432594031095505,-0.016483359038829803,0.03666386753320694
1761413458419855600,6.089855712890625,0.03685950115323067,-0.019202712923288345,0.03997896984219551
1761413458429869300,6.099869384765625,0.0349741205573082,-0.014789395965635777,0.037158455699682236
1761413458439882500,6.109882568359375,0.030801214277744293,-0.004530633334070444,0.0366564504802227
1761413458449895400,6.1198955078125,0.027201136574149132,0.005072074942290783,0.0341535247862339
1761413458459909400,6.129909423828125,0.024329183623194695,0.020590580999851227,0.03529682010412216
1761413458469922600,6.139922607421875,0.01879194565117359,0.0298294797539711,0.03956625238060951
1761413458479936500,6.1499365234375,0.014790013432502747,0.03307560831308365,0.04622521996498108
1761413458489949400,6.159949462890625,0.00882858969271183,0.031399451196193695,0.05099785327911377
1761413458499962600,6.169962646484375,0.0038074657786637545,0.02042190171778202,0.04596501216292381
1761413458509976300,6.179976318359375,0.0007022818899713457,-0.004943073261529207,0.051820214837789536
1761413458519989500,6.189989501953125,-0.006485323421657085,-0.009268845431506634,0.0552852526307106
1761413458530004000,6.20000390625,-0.00867153238505125,-0.004497109912335873,0.05409953370690346
1761413458540017000,6.210016845703125,-0.007168177515268326,0.01311437413096428,0.04339815303683281
1761413458550030000,6.220030029296875,-0.0010180585086345673,0.03817940130829811,0.03211812674999237
1761413458560044000,6.2300439453125,-0.003100117901340127,0.049755629152059555,0.019626837223768234
1761413458570057000,6.240056884765625,-0.008524902164936066,0.051881127059459686,0.016381988301873207
1761413458580071000,6.25007080078125,-0.00981200858950615,0.04875724017620087,0.019623586907982826
1761413458590084000,6.260083984375,-0.014593658037483692,0.05275135859847069,0.024189438670873642
1761413458600097000,6.270096923828125,-0.014085261151194572,0.05522996187210083,0.032099027186632156
1761413458610111000,6.280111083984375,-0.014063620939850807,0.04565952345728874,0.04355231299996376
1761413458620124200,6.290124267578125,-0.009399893693625927,0.021131809800863266,0.04696328938007355
1761413458630137000,6.30013720703125,-0.005967351142317057,0.0051417965441942215,0.042150840163230896
1761413458640151000,6.310151123046875,0.0008977450779639184,-0.0034660727251321077,0.03345721960067749
1761413458650164000,6.3201640625,0.003422291949391365,-0.004169349558651447,0.01875969022512436
1761413458660178000,6.330177978515625,0.0030830050818622112,-0.011197698302567005,0.006348028779029846
1761413458670191000,6.340191162109375,0.0015421551652252674,-0.009123185649514198,-0.0036285757087171078
1761413458680204000,6.3502041015625,0.004157911986112595,-0.0036386719439178705,-0.004969477653503418
1761413458690218000,6.360218017578125,0.0041536022908985615,-0.0050475322641432285,0.005824035033583641
1761413458700231200,6.370231201171875,0.010790199972689152,-0.0012970026582479477,0.014573318883776665
1761413458710244900,6.380244873046875,0.014674177393317223,-0.00020779063925147057,0.022243689745664597
1761413458720258000,6.390258056640625,0.014467515982687473,0.0017986348830163479,0.02526824176311493
1761413458730271000,6.40027099609375,0.01620594784617424,-0.001672151731327176,0.02181059494614601
1761413458740285000,6.410284912109375,0.014886884018778801,-0.009972159750759602,0.008251643739640713
1761413458750298000,6.420298095703125,0.009601897560060024,-0.008844667114317417,0.007413409650325775
1761413458760312000,6.43031201171875,0.0019162808312103152,-0.005181489512324333,0.00768105685710907
1761413458770325000,6.440324951171875,-0.010344789363443851,-0.0016119799111038446,0.009254410862922668
1761413458780338200,6.450338134765625,-0.013381858356297016,0.0018674400635063648,0.007023480720818043
1761413458790352000,6.460351806640625,-0.01120111346244812,0.002085871994495392,0.004835053347051144
1761413458800365000,6.470364990234375,-0.009958215989172459,0.004890447482466698,0.0050920480862259865
1761413458810379000,6.48037890625,-0.008405222557485104,-0.002327826339751482,0.012558097019791603
1761413458820392000,6.490391845703125,-0.006409982219338417,-0.0024516633711755276,0.01614723913371563
1761413458830405000,6.500405029296875,-0.005633180495351553,-0.003329894505441189,0.01469139102846384
1761413458840419000,6.510419189453125,-0.006739457603543997,-0.0013485027011483908,0.013594702817499638
1761413458850432000,6.520431884765625,-0.012121235020458698,0.007139219902455807,0.0034576666075736284
1761413458860446000,6.530446044921875,-0.017493097111582756,0.012694574892520905,-0.004055909812450409
1761413458870459100,6.540459228515625,-0.021680336445569992,0.022791465744376183,-0.009970245882868767
1761413458880472000,6.55047216796875,-0.028693772852420807,0.024026373401284218,-0.013146864250302315
1761413458890486000,6.560486083984375,-0.03126505762338638,0.022555913776159286,-0.017828550189733505
1761413458900499000,6.5704990234375,-0.035990841686725616,0.017317742109298706,-0.023839037865400314
1761413458910513000,6.580512939453125,-0.03428373858332634,0.0054328422993421555,-0.030073799192905426
1761413458920526000,6.590526123046875,-0.0269459318369627,-0.004588366020470858,-0.034755103290081024
1761413458930539000,6.6005390625,-0.02551807463169098,-0.007364913821220398,-0.03799944370985031
1761413458940553000,6.610552978515625,-0.018888669088482857,-0.007740153465420008,-0.038982681930065155
1761413458950566100,6.620566162109375,-0.014738868921995163,-0.0054335524328053,-0.035107534378767014
1761413458960579800,6.630579833984375,-0.008367788046598434,-0.0014545232988893986,-0.02852500043809414
1761413458970593000,6.640593017578125,-0.00328674353659153,0.002933833282440901,-0.022945677861571312
1761413458980606000,6.65060595703125,0.00044674199307337403,0.00998455286026001,-0.01732933707535267
1761413458990620000,6.660619873046875,0.008911605924367905,0.014277695678174496,-0.009214835241436958
1761413459000633000,6.670633056640625,0.014092786237597466,0.010262448340654373,-0.001998734427616
1761413459010645800,6.680645751953125,0.020829373970627785,0.005271758884191513,0.01158094871789217
1761413459020660000,6.690659912109375,0.02544596418738365,-0.0015837503597140312,0.020378435030579567
1761413459030673200,6.700673095703125,0.028429962694644928,-0.006132456008344889,0.02774825505912304
1761413459040687000,6.71068701171875,0.024809127673506737,-0.004191810265183449,0.0293141957372427
1761413459050700000,6.720699951171875,0.028715526685118675,-0.002743823453783989,0.024579305201768875
1761413459060713000,6.730712890625,0.024435561150312424,0.0006474461406469345,0.012413186021149158
1761413459070727000,6.740726806640625,0.025514952838420868,0.0020945961587131023,0.0004371840041130781
1761413459080740000,6.750739990234375,0.026271024718880653,0.002472765278071165,-0.005825505591928959
1761413459090754000,6.760754150390625,0.026183586567640305,-0.00003727944567799568,-0.006357250735163689
1761413459100767000,6.77076708984375,0.026313813403248787,-0.0013414293061941862,-0.001369150006212294
1761413459110780000,6.78077978515625,0.01938958838582039,-0.0021061503794044256,0.005839112214744091
1761413459120794000,6.790794189453125,0.01503478828817606,-0.00215408718213439,0.010013083927333355
1761413459130807000,6.80080712890625,0.012159268371760845,-0.001431529875844717,0.00942118838429451
1761413459140821000,6.810821044921875,0.011624772101640701,0.006469802465289831,0.0032655568793416023
1761413459150834200,6.820834228515625,0.009889778681099415,0.01913490705192089,-0.012621134519577026
1761413459160846800,6.830846923828125,0.0054470933973789215,0.03464542329311371,-0.03075939416885376
1761413459170861000,6.840861083984375,0.002614629687741399,0.04344000667333603,-0.043734900653362274
1761413459180874000,6.8508740234375,-0.0012562749907374382,0.04814474657177925,-0.05857563018798828
1761413459190888000,6.860887939453125,-0.004888374824076891,0.028719229623675346,-0.06974738836288452
1761413459200901000,6.870901123046875,-0.008815472014248371,-0.003724196692928672,-0.07036896795034409
1761413459210913800,6.880913818359375,-0.0053650191985070705,-0.028356535360217094,-0.0709460973739624
1761413459220928000,6.890927978515625,0.007014418486505747,-0.039135679602622986,-0.054124243557453156
1761413459230941200,6.900941162109375,0.020200446248054504,-0.045219291001558304,-0.042406659573316574
1761413459240955000,6.910954833984375,0.02589002251625061,-0.048172738403081894,-0.027979250997304916
1761413459250968000,6.920968017578125,0.03619182109832764,-0.03662402555346489,-0.008839637972414494
1761413459260981000,6.93098095703125,0.039728496223688126,-0.01599225029349327,0.006067406386137009
1761413459270995000,6.940994873046875,0.0439516082406044,0.007835114374756813,0.01605525054037571
1761413459281008000,6.951008056640625,0.04516281560063362,0.021005779504776,0.0163577850908041
1761413459291020800,6.961020751953125,0.04503503441810608,0.023855002596974373,0.019356368109583855
1761413459301035000,6.971034912109375,0.047926165163517,0.025726139545440674,0.020798204466700554
1761413459311048000,6.9810478515625,0.04609769955277443,0.023258492350578308,0.020273007452487946
1761413459321062100,6.991062255859375,0.04359246417880058,0.014679386280477047,0.019248489290475845
1761413459331075000,7.001074951171875,0.03994334861636162,0.01001814566552639,0.011885251849889755
1761413459341088000,7.011087890625,0.0349523164331913,0.0052689299918711185,0.006206593941897154
1761413459351102000,7.02110205078125,0.03133320435881615,0.0021211490966379642,0.0012006096076220274
1761413459361115000,7.031114990234375,0.0305773988366127,0.009831532835960388,0.000037074554711580276
1761413459371129000,7.041129150390625,0.023677358403801918,0.016700714826583862,-0.001616079593077302
1761413459381142000,7.05114208984375,0.017943041399121284,0.021894942969083786,-0.0013321866281330585
1761413459391155000,7.061155029296875,0.01368063222616911,0.02193903550505638,-0.004114205949008465
1761413459401169200,7.071169189453125,0.013100328855216503,0.01585025154054165,-0.00754648819565773
1761413459411181800,7.081181884765625,0.010219688527286053,0.010343637317419052,-0.007539952639490366
1761413459421196000,7.091196044921875,0.008372253738343716,0.002784519921988249,-0.013434858992695808
1761413459431209000,7.101208984375,0.0066507537849247456,-0.0019381686579436064,-0.02121133916079998
1761413459441222000,7.111221923828125,0.0030083481688052416,-0.009273845702409744,-0.026782138273119926
1761413459451236000,7.121236083984375,-0.0018885426688939333,-0.010028649121522903,-0.030212748795747757
1761413459461248800,7.131248779296875,-0.006243343465030193,-0.016191735863685608,-0.02853761985898018
1761413459471263000,7.141262939453125,-0.005900246091187,-0.018932774662971497,-0.026058688759803772
1761413459481276200,7.151276123046875,-0.006756452843546867,-0.020303770899772644,-0.020257791504263878
1761413459491288800,7.161288818359375,-0.007916403003036976,-0.011826585978269577,-0.015362674370408058
1761413459501303000,7.171302978515625,-0.010693280957639217,-0.006470703519880772,-0.013497662730515003
1761413459511316000,7.18131591796875,-0.017575832083821297,0.0032472461462020874,-0.014493726193904877
1761413459521329000,7.191328857421875,-0.022017985582351685,0.012594141997396946,-0.014169884845614433
1761413459531343000,7.201343017578125,-0.01871756836771965,0.022730745375156403,-0.014769261702895164
1761413459541356000,7.21135595703125,-0.02076367661356926,0.03066776506602764,-0.014755146577954292
1761413459551370200,7.221370361328125,-0.021426865831017494,0.0351458340883255,-0.021028202027082443
1761413459561383000,7.2313828125,-0.02122632972896099,0.03051086515188217,-0.022198129445314407
1761413459571396000,7.24139599609375,-0.019253890961408615,0.016157720237970352,-0.029537655413150787
1761413459581410000,7.25141015625,-0.019017402082681656,-0.0013866538647562265,-0.034933485090732574
1761413459591423000,7.261423095703125,-0.019858194515109062,-0.012962942011654377,-0.0390491858124733
1761413459601437200,7.271437255859375,-0.018204372376203537,-0.023798279464244843,-0.03970858454704285
1761413459611450000,7.2814501953125,-0.014056907966732979,-0.027121029794216156,-0.029862118884921074
1761413459621463000,7.291463134765625,-0.01473255269229412,-0.028805479407310486,-0.025521697476506233
1761413459631477000,7.30147705078125,-0.01322135142982006,-0.024819718673825264,-0.011088739149272442
1761413459641490200,7.311490234375,-0.014701535925269127,-0.017531711608171463,-0.007474828511476517
1761413459651503000,7.321503173828125,-0.010025018826127052,-0.009538639336824417,-0.008573266677558422
1761413459661517000,7.33151708984375,-0.0075251092202961445,-0.007376418448984623,-0.010990085080265999
1761413459671530000,7.341530029296875,-0.003369710873812437,-0.00557728810235858,-0.013338897377252579
1761413459681544200,7.351544189453125,-0.0018628942780196667,-0.010125700384378433,-0.01648568920791149
1761413459691557000,7.36155712890625,-0.008297370746731758,-0.01633511483669281,-0.01718073897063732
1761413459701570000,7.371570068359375,-0.012755502946674824,-0.025503579527139664,-0.018243873491883278
1761413459711584000,7.381583984375,-0.018516575917601585,-0.022167779505252838,-0.013663196004927158
1761413459721597200,7.39159716796875,-0.018979167565703392,-0.013555384241044521,-0.0056313686072826385
1761413459731611100,7.401611083984375,-0.01614495739340782,-0.003727227682247758,-0.001295264344662428
1761413459741624000,7.4116240234375,-0.017191577702760696,0.0007860311307013035,0.004586593247950077
1761413459751637200,7.42163720703125,-0.01884540729224682,-0.001257806085050106,0.006546829827129841
1761413459761651000,7.43165087890625,-0.018876567482948303,-0.00574869429692626,0.01012265682220459
1761413459771664100,7.4416640625,-0.019860222935676575,-0.012108907103538513,0.006298467516899109
1761413459781678000,7.451677978515625,-0.020523617044091225,-0.0172573309391737,-0.000550117576494813
1761413459791691000,7.46169091796875,-0.02430817298591137,-0.02661057934165001,-0.011643268167972565
1761413459801704200,7.4717041015625,-0.02767653949558735,-0.026106711477041245,-0.018082791939377785
1761413459811718100,7.48171826171875,-0.034871723502874374,-0.019857678562402725,-0.02217150293290615
1761413459821731000,7.49173095703125,-0.04039672017097473,-0.007948022335767746,-0.02475610002875328
1761413459831744300,7.501744140625,-0.03918498754501343,0.00043947575613856316,-0.026831351220607758
1761413459841758000,7.511758056640625,-0.03959564492106438,0.003504241816699505,-0.025865688920021057
1761413459851771100,7.521771240234375,-0.0363970547914505,0.0008137132972478867,-0.025128336623311043
1761413459861785000,7.53178515625,-0.035106487572193146,-0.00271604023873806,-0.017783071845769882
1761413459871798000,7.541798095703125,-0.030803000554442406,0.004501013550907373,-0.015472452156245708
1761413459881811200,7.551811279296875,-0.025036457926034927,0.007843280211091042,-0.008529058657586575
1761413459891825200,7.5618251953125,-0.021362055093050003,0.0029120929539203644,-0.006481720134615898
1761413459901838000,7.571838134765625,-0.01707436516880989,-0.004583906382322311,-0.007343785837292671
1761413459911852000,7.58185205078125,-0.021979818120598793,-0.01957269385457039,-0.010331676341593266
1761413459921865200,7.591865234375,-0.021082865074276924,-0.031000051647424698,-0.016197288408875465
1761413459931878100,7.601878173828125,-0.01945727877318859,-0.039196327328681946,-0.022437723353505135
1761413459941892000,7.61189208984375,-0.01981654018163681,-0.0461471751332283,-0.028082827106118202
1761413459951905000,7.621905029296875,-0.018967073410749435,-0.05005152150988579,-0.02665090374648571
1761413459961918200,7.631918212890625,-0.01767037995159626,-0.0524907112121582,-0.023125145584344864
1761413459971932200,7.64193212890625,-0.019991440698504448,-0.04355229064822197,-0.012997521087527275
1761413459981945000,7.651945068359375,-0.01933630369603634,-0.029972301796078682,0.0015236304607242346
1761413459991959000,7.661958984375,-0.020869819447398186,-0.019572289660573006,0.014328813180327415
1761413460001972200,7.67197216796875,-0.02751919999718666,-0.013841699808835983,0.02206289768218994
1761413460011985200,7.681985107421875,-0.026705339550971985,-0.011632607318460941,0.021900178864598274
1761413460021999000,7.6919990234375,-0.028395380824804306,-0.00979422777891159,0.02595856972038746
1761413460032012300,7.70201220703125,-0.02882096916437149,-0.006454345304518938,0.020384876057505608
1761413460042026000,7.71202587890625,-0.03139837458729744,-0.011857099831104279,0.009646744467318058
1761413460052039200,7.7220390625,-0.03316264972090721,-0.01572304591536522,-0.0021123478654772043
1761413460062052000,7.732052001953125,-0.04061044752597809,-0.015750743448734283,-0.008461058139801025
1761413460072066000,7.742066162109375,-0.0467512309551239,-0.01656157337129116,-0.008556760847568512
1761413460082079200,7.752079345703125,-0.05323603004217148,-0.011606763117015362,-0.01583251729607582
1761413460092092200,7.762092041015625,-0.052425023168325424,-0.000531182624399662,-0.01824646070599556
1761413460102106000,7.772106201171875,-0.04742493852972984,0.010248759761452675,-0.01557051669806242
1761413460112119300,7.782119384765625,-0.03686326742172241,0.021426135674118996,-0.019616927951574326
1761413460122133000,7.792133056640625,-0.030857836827635765,0.017691850662231445,-0.015509000979363918
1761413460132146200,7.802146240234375,-0.022632984444499016,0.008941059932112694,-0.008136704564094543
1761413460142159000,7.8121591796875,-0.021428169682621956,-0.004610968753695488,0.0015979486051946878
1761413460152173000,7.822173095703125,-0.021130092442035675,-0.014003506861627102,0.0011881834361702204
1761413460162186200,7.832186279296875,-0.02163556031882763,-0.01474226824939251,-0.004400460049510002
1761413460172200200,7.8422001953125,-0.02353658713400364,-0.014079710468649864,-0.009581619873642921
1761413460182213000,7.852213134765625,-0.022423917427659035,-0.011881537735462189,-0.0163218155503273
1761413460192226000,7.86222607421875,-0.021133555099368095,-0.010869232937693596,-0.024467378854751587
1761413460202240300,7.872240234375,-0.02627425454556942,-0.00598952267318964,-0.02850952371954918
1761413460212253200,7.882253173828125,-0.023800566792488098,0.0009276969358325005,-0.025306768715381622
1761413460222266000,7.89226611328125,-0.02182823047041893,0.010476460680365562,-0.02179592289030552
1761413460232280000,7.902280029296875,-0.020804388448596,0.017544033005833626,-0.012117234990000725
1761413460242293000,7.91229296875,-0.01526874303817749,0.013227315619587898,-0.000731955748051405
1761413460252307200,7.92230712890625,-0.01107752788811922,-0.00016348948702216148,0.01195018831640482
1761413460262320000,7.932320068359375,-0.002354344120249152,-0.011797774583101273,0.024641748517751694
1761413460272333000,7.9423330078125,-0.0011476046638563275,-0.016055865213274956,0.024605244398117065
1761413460282347300,7.95234716796875,-0.0007883441867306828,-0.015228953212499619,0.02643536776304245
1761413460292360200,7.962360107421875,-0.0047383601777255535,-0.010652299039065838,0.027463652193546295
1761413460302374100,7.9723740234375,-0.012043677270412445,-0.004398663993924856,0.025616483762860298
1761413460312387300,7.98238720703125,-0.013405876234173775,-0.0029790722765028477,0.029618794098496437
1761413460322400000,7.99239990234375,-0.013215727172791958,-0.00016144802793860435,0.03470117226243019
1761413460332414200,8.002414306640626,-0.013045460917055607,0.0038407635875046253,0.03441372513771057
1761413460342427100,8.01242724609375,-0.009973238222301006,0.00842379778623581,0.03778475522994995
1761413460352440000,8.022440185546875,-0.0062881531193852425,0.012767313048243523,0.04144509881734848
1761413460362454300,8.032454345703124,-0.0046210139989852905,0.013385964557528496,0.03879844769835472
1761413460372467000,8.042467041015625,-0.004761720076203346,0.019725073128938675,0.034843482077121735
1761413460382481200,8.052481201171876,-0.006812619976699352,0.019043568521738052,0.028721671551465988
1761413460392494000,8.062494140625,-0.007927678525447845,0.023589447140693665,0.026354769244790077
1761413460402507000,8.072507080078125,-0.008436874486505985,0.027204155921936035,0.024471115320920944
1761413460412521200,8.082521240234374,-0.0163886696100235,0.027521668002009392,0.019974559545516968
1761413460422534100,8.0925341796875,-0.01585097797214985,0.030085494741797447,0.018214477226138115
1761413460432548000,8.102548095703124,-0.01471873838454485,0.031114473938941956,0.0068053025752305984
1761413460442561000,8.11256103515625,-0.014837781898677349,0.03433583676815033,-0.010320420376956463
1761413460452574000,8.122573974609375,-0.015203221701085567,0.032836031168699265,-0.020505545660853386
1761413460462588200,8.132588134765625,-0.014068981632590294,0.030125997960567474,-0.024835312739014626
1761413460472601000,8.14260107421875,-0.019256774336099625,0.03286218270659447,-0.024982303380966187
1761413460482614000,8.152614013671876,-0.014789053238928318,0.02890818566083908,-0.019087130203843117
1761413460492628200,8.162628173828125,-0.007877938449382782,0.024755872786045074,-0.014336447231471539
1761413460502641200,8.17264111328125,0.000022329390048980713,0.017478518187999725,-0.005273710936307907
1761413460512655000,8.182655029296875,0.01062180008739233,0.013260086998343468,0.0002882105764001608
1761413460522668000,8.19266796875,0.017851483076810837,0.011746611446142197,0.008459321223199368
1761413460532680700,8.2026806640625,0.027821850031614304,0.0082937590777874,0.013240696862339973
1761413460542694700,8.212694580078125,0.030528953298926353,0.014004109427332878,0.013989046216011047
1761413460552707600,8.22270751953125,0.032687846571207047,0.018416764214634895,0.008889815770089626
1761413460562720500,8.232720458984375,0.0309677142649889,0.017915822565555573,0.003191982163116336
1761413460572734700,8.242734619140625,0.02407911978662014,0.018314726650714874,-0.002397973323240876
1761413460582747600,8.25274755859375,0.022245533764362335,0.028026478365063667,-0.002608363050967455
1761413460592761900,8.262761962890625,0.024151740595698357,0.03627067059278488,-0.0018752531614154577
1761413460602774500,8.2727744140625,0.028844496235251427,0.03512817248702049,0.006577087566256523
1761413460612787700,8.28278759765625,0.02949877455830574,0.031078800559043884,0.01630084030330181
1761413460622801700,8.2928017578125,0.03285515680909157,0.024452589452266693,0.03266916051506996
1761413460632814600,8.302814697265624,0.03014487959444523,0.022213784977793694,0.03735294193029404
1761413460642828800,8.312828857421875,0.026318715885281563,0.010369108989834785,0.039500780403614044
1761413460652841500,8.322841552734374,0.014641713351011276,0.0085965096950531,0.03287496790289879
1761413460662854700,8.332854736328125,0.009720457717776299,0.008575737476348877,0.02686394564807415
1761413460672868600,8.34286865234375,-0.0015634461306035519,0.007900258526206017,0.021269407123327255
1761413460682881500,8.352881591796875,-0.013927171938121319,0.008203059434890747,0.013769945129752159
1761413460692894700,8.362894775390625,-0.02639855071902275,0.008980132639408112,0.010949146002531052
1761413460702908700,8.37290869140625,-0.033167507499456406,0.02346399985253811,0.0117811169475317
1761413460712921600,8.382921630859375,-0.04016730189323425,0.03552164137363434,0.012521075084805489
1761413460722935600,8.392935546875,-0.04088049754500389,0.03981545567512512,0.012784195132553577
1761413460732948500,8.402948486328125,-0.039496585726737976,0.04001019150018692,0.016053682193160057
1761413460742961700,8.412961669921875,-0.038232650607824326,0.040520455688238144,0.016220662742853165
1761413460752975600,8.4229755859375,-0.03124353103339672,0.030688710510730743,0.014620576053857803
1761413460762988500,8.432988525390625,-0.0285798367112875,0.027090247720479965,0.016061346977949142
1761413460773001700,8.443001708984376,-0.02583344280719757,0.023596104234457016,0.014493849128484726
1761413460783015700,8.453015625,-0.023507170379161835,0.019674867391586304,0.013285838067531586
1761413460793028600,8.463028564453126,-0.02083059586584568,0.008712992072105408,0.007957803085446358
1761413460803042600,8.47304248046875,-0.015984440222382545,-0.0038169152103364468,0.0022602365352213383
1761413460813055700,8.4830556640625,-0.013884302228689194,-0.009527862071990967,-0.002445358084514737
1761413460823068700,8.493068603515624,-0.013366850093007088,-0.00605376809835434,-0.007907767780125141
1761413460833082600,8.50308251953125,-0.009586963802576065,-0.0018627129029482603,-0.00731656514108181
1761413460843095600,8.513095458984376,-0.006522997282445431,0.0063033378683030605,-0.0013138004578649998
1761413460853109500,8.523109619140625,-0.0037383062299340963,0.011927681043744087,0.00022887717932462692
1761413460863122700,8.533122802734376,0.00486769899725914,0.00427402276545763,0.003578334813937545
1761413460873135600,8.543135498046874,0.00800954457372427,-0.007997609674930573,0.004141437821090221
1761413460883149600,8.553149658203125,0.008903301320970058,-0.02092858776450157,0.002036475809291005
1761413460893162800,8.563162841796874,0.009617759846150875,-0.024466760456562042,0.002363949315622449
1761413460903175700,8.57317578125,0.0016053732251748443,-0.018768129870295525,0.0056494902819395065
1761413460913189600,8.583189697265626,-0.004281810484826565,-0.012506239116191864,0.00286542228423059
1761413460923202800,8.593202880859375,-0.015493718907237053,-0.009244666434824467,0.0026813980657607317
1761413460933216500,8.603216552734375,-0.018584318459033966,-0.0007992498576641083,0.0041956715285778046
1761413460943229700,8.613229736328124,-0.02070872113108635,-0.0010796808637678623,0.0054398998618125916
1761413460953242600,8.62324267578125,-0.024591373279690742,0.007450716104358435,0.0017672090325504541
1761413460963256600,8.633256591796876,-0.021655239164829254,0.013427648693323135,0.006235194392502308
1761413460973269800,8.643269775390625,-0.01876702532172203,0.014696366153657436,0.00907621718943119
1761413460983282700,8.65328271484375,-0.018866628408432007,0.0127312196418643,0.009650394320487976
1761413460993296600,8.663296630859374,-0.017530428245663643,0.007539666257798672,0.008329108357429504
1761413461003309800,8.673309814453125,-0.01793123409152031,0.002358220051974058,0.0145579744130373
1761413461013323500,8.683323486328124,-0.019432350993156433,-0.006781926844269037,0.017242971807718277
1761413461023336700,8.693336669921875,-0.02169230952858925,-0.012790018692612648,0.017481591552495956
1761413461033349600,8.703349609375,-0.021089546382427216,-0.01643294282257557,0.011457427404820919
1761413461043363600,8.713363525390625,-0.01936408318579197,-0.014863543212413788,0.00439232774078846
1761413461053376800,8.723376708984375,-0.021796241402626038,-0.011515062302350998,0.00038879550993442535
1761413461063389400,8.733389404296876,-0.025387780740857124,-0.009833275340497494,0.0022484806831926107
1761413461073403600,8.743403564453125,-0.033000048249959946,-0.014680279418826103,0.006693410687148571
1761413461083416600,8.75341650390625,-0.036660294979810715,-0.019764786586165428,0.0056411949917674065
1761413461093430800,8.7634306640625,-0.03541025146842003,-0.020221035927534103,0.00758901285007596
1761413461103443700,8.773443603515625,-0.032091688364744186,-0.010953236371278763,0.0007526783738285303
1761413461113456600,8.78345654296875,-0.02914804220199585,-0.007977241650223732,-0.0010584047995507717
1761413461123470600,8.793470703125,-0.02812379039824009,-0.0006857733242213726,-0.004395345691591501
1761413461133483800,8.80348388671875,-0.027188025414943695,0.001291192602366209,-0.009239730425179005
1761413461143496700,8.81349658203125,-0.02811001054942608,0.0020632431842386723,-0.0005980391288176179
1761413461153510700,8.8235107421875,-0.02920250967144966,0.005149415228515863,0.006053909193724394
1761413461163523600,8.833523681640624,-0.028319938108325005,0.009199816733598709,0.011800745502114296
1761413461173537800,8.843537841796875,-0.02333526685833931,0.00980592705309391,0.01236233115196228
1761413461183550700,8.85355078125,-0.015199842862784863,0.007190702948719263,0.005406953394412994
1761413461193563600,8.863563720703125,-0.008857067674398422,0.001884595025330782,-0.0070254262536764145
1761413461203577900,8.873577880859376,-0.00011257856385782361,0.002889139112085104,-0.013567747548222542
1761413461213590500,8.883590576171875,0.0031345454044640064,-0.005929017439484596,-0.02668018266558647
1761413461223603700,8.893603759765625,0.008545822463929653,-0.014337415806949139,-0.029399003833532333
1761413461233617700,8.90361767578125,0.012094391509890556,-0.02300122380256653,-0.033926013857126236
1761413461243630600,8.913630615234375,0.014873933047056198,-0.026055868715047836,-0.03429060056805611
1761413461253644800,8.923644775390626,0.020655998960137367,-0.03562378138303757,-0.026116885244846344
1761413461263657500,8.933657470703125,0.02517564967274666,-0.0341033861041069,-0.018412360921502113
1761413461273670700,8.943670654296875,0.0311238095164299,-0.028758015483617783,-0.014053680002689362
1761413461283684600,8.9536845703125,0.03900836408138275,-0.020954687148332596,-0.00452116085216403
1761413461293697500,8.963697509765625,0.041071001440286636,-0.013212356716394424,-0.00399895291775465
1761413461303710700,8.973710693359376,0.04330539330840111,-0.003117112908512354,-0.0005586813203990459
1761413461313724700,8.983724609375,0.043925557285547256,0.007010470610111952,0.0015693935565650463
1761413461323737600,8.993737548828125,0.04567711800336838,0.023244835436344147,0.0025094891898334026
1761413461333751600,9.00375146484375,0.04513586312532425,0.02839822880923748,0.006551369093358517
1761413461343764500,9.013764404296875,0.0456589050590992,0.027159059420228004,0.011796465143561363
1761413461353777700,9.023777587890624,0.04644500091671944,0.019209090620279312,0.013305051252245903
1761413461363791600,9.03379150390625,0.048722270876169205,0.011438521556556225,0.011098621413111687
1761413461373804500,9.043804443359376,0.047337986528873444,-0.0009813322685658932,0.0097300810739398
1761413461383817700,9.053817626953125,0.043972816318273544,-0.0036724566016346216,0.007931115105748177
1761413461393831700,9.063831787109375,0.04309245944023132,0.0008926191367208958,0.00893997773528099
1761413461403844600,9.0738447265625,0.03911582753062248,0.014160487800836563,0.009930672124028206
1761413461413858600,9.083858642578125,0.03735971078276634,0.02373368851840496,0.012424668297171593
1761413461423871700,9.093871826171876,0.030400604009628296,0.034106433391571045,0.016696644946932793
1761413461433884700,9.103884765625,0.031285934150218964,0.036007095128297806,0.01976635493338108
1761413461443898600,9.113898681640626,0.03332751989364624,0.03808995336294174,0.028863444924354553
1761413461453911600,9.12391162109375,0.03409651666879654,0.034001655876636505,0.033183928579092026
1761413461463924700,9.1339248046875,0.03819964826107025,0.02748223952949047,0.03520793095231056
1761413461473938700,9.143938720703124,0.03908521682024002,0.027688268572092056,0.034510813653469086
1761413461483951600,9.15395166015625,0.03835977241396904,0.026247229427099228,0.023558031767606735
1761413461493965600,9.163965576171876,0.03391756862401962,0.026255043223500252,0.01765287108719349
1761413461503978800,9.173978759765625,0.031234167516231537,0.01848340593278408,0.01401765551418066
1761413461513991700,9.18399169921875,0.025172695517539978,0.006670297123491764,0.005557078402489424
1761413461524005600,9.194005615234374,0.019687648862600327,-0.00624816445633769,-0.004359734710305929
1761413461534019600,9.20401953125,0.01801433227956295,-0.00962816085666418,-0.01358505804091692
1761413461544032300,9.2140322265625,0.010717004537582397,-0.011541375890374184,-0.025509361177682877
1761413461554046500,9.22404638671875,0.007459958549588919,-0.017969980835914612,-0.03159148991107941
1761413461564059400,9.234059326171876,-0.002026221016421914,-0.013209845870733261,-0.025063548237085342
1761413461574073300,9.2440732421875,-0.008930305019021034,-0.0020616769324988127,-0.019196605309844017
1761413461584086500,9.25408642578125,-0.011885881423950195,0.007728103082627058,-0.007897610776126385
1761413461594099200,9.26409912109375,-0.013364294543862343,0.012364653870463371,-0.0044066449627280235
1761413461604113400,9.274113525390625,-0.008020928129553795,0.004233491141349077,0.0012075647246092558
1761413461614126300,9.284126220703126,-0.0017434456385672092,-0.006962248124182224,-0.006430076435208321
1761413461624139300,9.29413916015625,0.004810061305761337,-0.013609498739242554,-0.012630448676645756
1761413461634153500,9.304153564453125,0.014915373176336288,-0.016774576157331467,-0.01704423874616623
1761413461644166400,9.31416650390625,0.0193743035197258,-0.013171851634979248,-0.018156640231609344
1761413461654180400,9.324180419921875,0.018016699701547623,-0.013450926169753075,-0.01682298630475998
1761413461664193300,9.334193359375,0.017927484586834908,-0.016509566456079483,-0.014544650912284851
1761413461674206500,9.34420654296875,0.014286963269114494,-0.015435842797160149,-0.01549146231263876
1761413461684220400,9.354220458984376,0.013342074118554592,-0.014167645946145058,-0.019210567697882652
1761413461694233300,9.3642333984375,0.014117852784693241,-0.011217927560210228,-0.01763930171728134
1761413461704246300,9.374246337890625,0.01588166505098343,0.0011548520997166634,-0.019872896373271942
1761413461714260200,9.38426025390625,0.019713111221790314,0.013156335800886154,-0.022961117327213287
1761413461724273400,9.3942734375,0.025785917416214943,0.017623521387577057,-0.018069954589009285
1761413461734287600,9.40428759765625,0.031113408505916595,0.014739940874278545,-0.015227561816573143
1761413461744300300,9.41430029296875,0.03379867598414421,0.0041879648342728615,-0.011913524940609932
1761413461754313500,9.4243134765625,0.03864944353699684,-0.008756977505981922,-0.010820773430168629
1761413461764327200,9.4343271484375,0.04182712733745575,-0.021265044808387756,-0.013653844594955444
1761413461774340400,9.44434033203125,0.04217282682657242,-0.02359200268983841,-0.019595013931393623
1761413461784353500,9.454353515625,0.04567275568842888,-0.023203713819384575,-0.027920054271817207
1761413461794367200,9.4643671875,0.04348156228661537,-0.019454743713140488,-0.0364493802189827
1761413461804380400,9.47438037109375,0.04053477570414543,-0.01465546153485775,-0.042338695377111435
1761413461814394400,9.484394287109374,0.039560385048389435,-0.012254849076271057,-0.04656514897942543
1761413461824407300,9.4944072265625,0.035289473831653595,-0.014597365632653236,-0.044542744755744934
1761413461834420500,9.50442041015625,0.033969949930906296,-0.017005231231451035,-0.042026497423648834
1761413461844434400,9.514434326171875,0.03295821323990822,-0.016643840819597244,-0.03325590863823891
1761413461854447400,9.524447265625,0.032244160771369934,-0.010018199682235718,-0.023331617936491966
1761413461864460500,9.53446044921875,0.035079360008239746,0.0023519163951277733,-0.016580771654844284
1761413461874474200,9.54447412109375,0.03542685881257057,0.014848433434963226,-0.014204204082489014
1761413461884487400,9.5544873046875,0.03555069863796234,0.011520814150571823,-0.010065119713544846
1761413461894500600,9.56450048828125,0.042774807661771774,0.004074335563927889,-0.0014937743544578552
1761413461904514300,9.574514404296876,0.04180115461349487,0.0013595093041658401,0.0061178058385849
1761413461914527500,9.584527587890625,0.04395169019699097,-0.001413980033248663,0.01701723225414753
1761413461924541400,9.59454150390625,0.04284941032528877,-0.004320021253079176,0.022089222446084023
1761413461934554400,9.604554443359374,0.03768349438905716,-0.004694311413913965,0.016273999586701393
1761413461944567600,9.614567626953125,0.033744145184755325,-0.0073359012603759766,0.01618638075888157
1761413461954581500,9.62458154296875,0.030841240659356117,-0.00883609801530838,0.013009781949222088
1761413461964594400,9.634594482421875,0.032214634120464325,-0.014966428279876709,0.006224313750863075
1761413461974607400,9.644607421875,0.028498047962784767,-0.025528982281684875,-0.004939694423228502
1761413461984621300,9.654621337890624,0.02676086686551571,-0.031664106994867325,-0.00424673967063427
1761413461994634500,9.664634521484375,0.021419553086161613,0.003701318521052599,0.012091545388102531
1761413462004648400,9.6746484375,0.013999720104038715,0.02548384666442871,0.013474791310727596
1761413462014661400,9.684661376953125,0.006413525436073542,0.023944955319166183,0.0022533508017659187
1761413462024674300,9.69467431640625,-0.0019756979309022427,-0.00035292794927954674,-0.01058601588010788
1761413462034688500,9.7046884765625,0.0014108202885836363,-0.03748612850904465,-0.03531743958592415
1761413462044701400,9.714701416015625,0.012143625877797604,-0.029332328587770462,-0.03586098924279213
1761413462054714400,9.72471435546875,0.007628666236996651,-0.038843899965286255,-0.026878416538238525
1761413462064728600,9.734728515625,-0.0040889764204621315,-0.04971971735358238,-0.011388407088816166
1761413462074741200,9.7447412109375,-0.008373427204787731,-0.05133993178606033,-0.005970983766019344
1761413462084755500,9.75475537109375,-0.010194230824708939,-0.03801161050796509,-0.0040436540730297565
1761413462094768400,9.764768310546875,-0.012695505283772945,-0.005140404682606459,-0.022145334631204605
1761413462104781300,9.77478125,-0.004497230984270573,0.005191062111407518,-0.06885797530412674
1761413462114795500,9.78479541015625,-0.012137048877775669,0.00028352905064821243,-0.09475386887788773
1761413462124808200,9.79480810546875,-0.030513659119606018,-0.0058603836223483086,-0.09917657822370529
1761413462134821400,9.8048212890625,-0.04671482741832733,-0.02367667481303215,-0.10736437141895294
1761413462144835600,9.814835693359376,-0.04829008877277374,-0.022160004824399948,-0.10544396936893463
1761413462154848300,9.82484814453125,-0.03980039432644844,-0.0003506811335682869,-0.08993761986494064
1761413462164861400,9.834861328125,-0.030397837981581688,0.008243871852755547,-0.06795482337474823
1761413462174875400,9.84487548828125,-0.022014636546373367,-0.00914883054792881,-0.05423339828848839
