time,seconds_elapsed,z,y,x
1761413473645808600,0.07380859375,0.007950537838041782,-0.003704717382788658,-0.029326878488063812
1761413473655821800,0.08382177734375,0.0032231612130999565,-0.029873471707105637,-0.026891417801380157
1761413473665834800,0.093834716796875,-0.0010782924946397543,-0.05792026221752167,-0.022033877670764923
1761413473675848700,0.1038486328125,-0.003793385112658143,-0.07846175879240036,-0.01629210263490677
1761413473685861600,0.113861572265625,-0.0033339476212859154,-0.09347327798604965,-0.009087307378649712
1761413473695874800,0.123874755859375,-0.0070325457490980625,-0.08992993831634521,0.000033752527087926865
1761413473705888800,0.133888671875,-0.006785462144762278,-0.07118284702301025,0.008049171417951584
1761413473715901700,0.143901611328125,-0.004998214542865753,-0.04384922608733177,0.01771937496960163
1761413473725914600,0.15391455078125,-0.00833912193775177,-0.011954697780311108,0.02371836081147194
1761413473735927600,0.163927490234375,-0.010285626165568829,0.009226487018167973,0.03300453722476959
1761413473745941800,0.173941650390625,-0.010838624089956284,0.02407047525048256,0.028983883559703827
1761413473755954700,0.18395458984375,-0.009306773543357849,0.03662887588143349,0.03139404579997063
1761413473765967600,0.193967529296875,-0.009068617597222328,0.044552214443683624,0.038409702479839325
1761413473775981600,0.203981689453125,-0.0087423799559474,0.04428563266992569,0.03808905556797981
1761413473785994800,0.213994873046875,-0.008225993253290653,0.030405232682824135,0.03153368458151817
1761413473796007700,0.224007568359375,-0.006680027581751347,0.015107769519090652,0.024403072893619537
1761413473806020900,0.234020751953125,-0.008284274488687515,-0.0013410584069788456,0.01732240617275238
1761413473816034800,0.244034912109375,-0.01251976564526558,-0.014562055468559265,0.0066391355358064175
1761413473826047700,0.2540478515625,-0.006386898458003998,-0.015905292704701424,-0.00012723729014396667
1761413473836060700,0.264060791015625,-0.007138442248106003,-0.008129395544528961,-0.0021104933694005013
1761413473846073600,0.274073486328125,-0.004864298738539219,-0.003278017044067383,0.000016400357708334923
1761413473856087800,0.284087890625,0.0009397944086231291,0.004042214248329401,0.003313926514238119
1761413473866100700,0.294100830078125,0.010298771783709526,0.013874830678105354,0.007404141128063202
1761413473876113700,0.30411376953125,0.012170441448688507,0.01872577890753746,0.009155435487627983
1761413473886127600,0.314127685546875,0.01610323041677475,0.016041453927755356,0.0061551593244075775
1761413473896140500,0.324140625,0.01669684797525406,0.014579111710190773,0.0002091198693960905
1761413473906153700,0.33415380859375,0.021492458879947662,0.008026180788874626,-0.008324461057782173
1761413473916166700,0.344166748046875,0.02395055629312992,-0.0008522658608853817,-0.019531307741999626
1761413473926180600,0.3541806640625,0.02531646564602852,-0.004291801247745752,-0.02753494493663311
1761413473936193800,0.36419384765625,0.025604354217648506,-0.005189552903175354,-0.033220525830984116
1761413473946206700,0.374206787109375,0.0240304097533226,-0.0012958678416907787,-0.030783575028181076
1761413473956220700,0.384220703125,0.026462143287062645,0.006487486883997917,-0.02418985590338707
1761413473966233900,0.39423388671875,0.0230603888630867,0.015031031332910061,-0.012674654833972454
1761413473976246500,0.40424658203125,0.021414553746581078,0.018265973776578903,-0.005935259163379669
1761413473986259700,0.414259765625,0.02864859811961651,0.007123183459043503,0.009960656985640526
1761413473996273700,0.424273681640625,0.030439041554927826,-0.006462133955210447,0.01786758378148079
1761413474006286600,0.43428662109375,0.028265003114938736,-0.016274426132440567,0.020803142338991165
1761413474016299800,0.4442998046875,0.02624952420592308,-0.02033042162656784,0.02089235931634903
1761413474026313700,0.454313720703125,0.02560403198003769,-0.03313494101166725,0.022595347836613655
1761413474036326700,0.46432666015625,0.02296031080186367,-0.04698098450899124,0.015529714524745941
1761413474046339800,0.47433984375,0.01954183541238308,-0.05454845353960991,0.0128931300714612
1761413474056352500,0.4843525390625,0.01793035678565502,-0.05390583351254463,0.016309432685375214
1761413474066366700,0.49436669921875,0.012809810228645802,-0.05005252733826637,0.02475198544561863
1761413474076380000,0.5043798828125,0.007016902789473534,-0.04307691007852554,0.03578919172286987
1761413474086392600,0.514392578125,-0.0026128196623176336,-0.03536234796047211,0.04777785390615463
1761413474096406800,0.52440673828125,-0.002150228712707758,-0.019221995025873184,0.057239796966314316
1761413474106419700,0.534419677734375,-0.0013811361277475953,-0.006195121444761753,0.05641453340649605
1761413474116432600,0.5444326171875,0.0011193057289347053,-0.0021788079757243395,0.05241606384515762
1761413474126445800,0.55444580078125,0.004167475737631321,0.000186059158295393,0.04246017336845398
1761413474136459500,0.56445947265625,0.0039062194991856813,-0.000014210585504770279,0.03909207135438919
1761413474146472700,0.57447265625,0.0016925998497754335,-0.005549324676394463,0.03482888266444206
1761413474156486000,0.58448583984375,-0.0008453925838693976,-0.012929210439324379,0.03131990134716034
1761413474166499600,0.59449951171875,-0.010995878838002682,-0.021371696144342422,0.02776123769581318
1761413474176512800,0.6045126953125,-0.014692346565425396,-0.020737065002322197,0.02745976857841015
1761413474186525700,0.614525634765625,-0.010841076262295246,-0.0074339620769023895,0.027401713654398918
1761413474196538600,0.62453857421875,-0.006046853959560394,0.006004881113767624,0.02452949434518814
1761413474206552800,0.634552734375,-0.003920992836356163,0.009326846338808537,0.026812436059117317
1761413474216565500,0.6445654296875,0.0026612761430442333,0.016855070367455482,0.028599150478839874
1761413474226578700,0.65457861328125,0.007407322060316801,0.02217000350356102,0.03130416199564934
1761413474236593000,0.664593017578125,0.01253284141421318,0.014868148602545261,0.03024156019091606
1761413474246605600,0.67460546875,0.013739717192947865,0.005945513024926186,0.026297500357031822
1761413474256618800,0.68461865234375,0.012860608287155628,-0.00033262278884649277,0.017216388136148453
1761413474266631700,0.694631591796875,0.008649967610836029,0.0000528399832546711,0.005947245750576258
1761413474276645600,0.704645751953125,0.011188493110239506,0.003966089338064194,-0.0018432989018037915
1761413474286658800,0.714658935546875,0.010147519409656525,0.007649015635251999,-0.006266023963689804
1761413474296671700,0.724671630859375,0.008576254360377789,0.005255100317299366,-0.014584407210350037
1761413474306684700,0.7346845703125,0.009850968606770039,0.00127414520829916,-0.021256079897284508
1761413474316699000,0.744698974609375,0.00781391654163599,-0.008669565431773663,-0.024679573252797127
1761413474326711600,0.754711669921875,0.006304225884377956,-0.025883929803967476,-0.03370850160717964
1761413474336724700,0.764724853515625,0.0024594205897301435,-0.03686308115720749,-0.03346828371286392
1761413474346738700,0.77473876953125,-0.00002776106703095138,-0.034354954957962036,-0.022025732323527336
1761413474356751600,0.784751708984375,-0.0058366479352116585,-0.024312973022460938,-0.009667600505053997
1761413474366764800,0.794764892578125,-0.007121201604604721,-0.009784180670976639,0.0035691368393599987
1761413474376777700,0.80477783203125,-0.011797180399298668,-0.0031252126209437847,0.02123415097594261
1761413474386791700,0.814791748046875,-0.01839311607182026,-0.000764606986194849,0.03539637476205826
1761413474396804900,0.824804931640625,-0.024164719507098198,-0.0029635790269821882,0.04625807702541351
1761413474406817800,0.83481787109375,-0.027376394718885422,-0.00367521564476192,0.05309241637587547
1761413474416831700,0.844831787109375,-0.02982943132519722,-0.00547071872279048,0.05746106430888176
1761413474426844700,0.8548447265625,-0.03713938966393471,-0.009168867021799088,0.05812075361609459
1761413474436857600,0.864857666015625,-0.04389582946896553,-0.009153420105576515,0.0591423436999321
1761413474446870800,0.874870849609375,-0.04968152940273285,-0.008308276534080505,0.0545375794172287
1761413474456884700,0.884884765625,-0.05060138553380966,-0.0013491709250956774,0.05298788473010063
1761413474466897700,0.894897705078125,-0.05825357511639595,0.0021237367764115334,0.039255838841199875
1761413474476910600,0.90491064453125,-0.058696992695331573,0.003348258323967457,0.02942558005452156
1761413474486924500,0.914924560546875,-0.06121206656098366,0.0015203868970274925,0.01362009160220623
1761413474496937700,0.924937744140625,-0.05942002683877945,0.00021756859496235847,0.009535335004329681
1761413474506950700,0.93495068359375,-0.05512002855539322,-0.0009289649315178394,0.005858469754457474
1761413474516963800,0.9449638671875,-0.049861084669828415,0.0006734589114785194,0.011454037390649319
1761413474526977800,0.954977783203125,-0.0398116298019886,0.0010890346020460129,0.017751721665263176
1761413474536990700,0.96499072265625,-0.03474629670381546,0.00125175341963768,0.017080338671803474
1761413474547003400,0.97500341796875,-0.026719659566879272,0.006826960481703281,0.007756889797747135
1761413474557016300,0.985016357421875,-0.025032546371221542,0.013389255851507187,-0.007207678165286779
1761413474567030500,0.995030517578125,-0.024620862677693367,0.019877862185239792,-0.014092895202338696
1761413474577043500,1.00504345703125,-0.02975570410490036,0.023879528045654297,-0.023384131491184235
1761413474587056400,1.015056396484375,-0.031705908477306366,0.026712846010923386,-0.022269118577241898
1761413474597070300,1.0250703125,-0.030364472419023514,0.015868719667196274,-0.02650327794253826
1761413474607083500,1.03508349609375,-0.02322382479906082,0.0039411988109350204,-0.02513781003654003
1761413474617096400,1.045096435546875,-0.014734199270606041,-0.003668517805635929,-0.025890685617923737
1761413474627109600,1.055109619140625,-0.003540666773915291,-0.001282059121876955,-0.01844448782503605
1761413474637123300,1.065123291015625,0.003624035743996501,0.005479706451296806,-0.016493720933794975
1761413474647136500,1.075136474609375,0.012558238580822945,0.00047665229067206383,-0.0063679832965135574
1761413474657149400,1.0851494140625,0.020093919709324837,-0.003487462643533945,-0.004630271345376968
1761413474667162400,1.095162353515625,0.026897957548499107,-0.003035155590623617,0.0017465746495872736
1761413474677176600,1.105176513671875,0.03673594072461128,-0.0007456359453499317,0.003245668252930045
1761413474687189200,1.115189208984375,0.04697374999523163,0.0016016941517591476,0.0017955107614398003
1761413474697202400,1.125202392578125,0.05398105829954147,0.0024139583110809326,0.002332670148462057
1761413474707216400,1.13521630859375,0.053965989500284195,0.002315504476428032,0.0011914789211004972
1761413474717229300,1.145229248046875,0.05560942739248276,0.0008366508409380913,0.008515970781445503
1761413474727242500,1.155242431640625,0.05234081670641899,0.003569237422198057,0.009272601455450058
1761413474737255400,1.16525537109375,0.05528441071510315,0.004127435851842165,0.007770312484353781
1761413474747269400,1.175269287109375,0.05187642201781273,0.003174065612256527,-0.000566460657864809
1761413474757282600,1.185282470703125,0.05273449048399925,-0.0057395342737436295,-0.012048146687448025
1761413474767295500,1.19529541015625,0.05408930033445358,-0.013456352055072784,-0.020935753360390663
1761413474777309400,1.205309326171875,0.051506832242012024,-0.021693244576454163,-0.0246596522629261
1761413474787322600,1.215322509765625,0.045027684420347214,-0.024542249739170074,-0.028201935812830925
1761413474797335300,1.225335205078125,0.04200366511940956,-0.026099666953086853,-0.028939364477992058
1761413474807348500,1.235348388671875,0.032893311232328415,-0.020174892619252205,-0.03122730180621147
1761413474817362400,1.245362548828125,0.02196529693901539,-0.015107962302863598,-0.02741072326898575
1761413474827375400,1.255375244140625,0.014290302991867065,-0.011942774057388306,-0.022819381207227707
1761413474837388500,1.265388427734375,0.010042293928563595,-0.0018789549358189106,-0.019996963441371918
1761413474847401500,1.2754013671875,0.003466135822236538,0.00665022898465395,-0.008217908442020416
1761413474857415400,1.28541552734375,0.0038198037073016167,0.008203118108212948,-0.005440231412649155
1761413474867428600,1.2954287109375,0.000025741755962371826,0.001774757169187069,-0.009996805340051651
1761413474877441300,1.305441162109375,0.00214987900108099,-0.007597173098474741,-0.014946023933589458
1761413474887455500,1.31545556640625,0.0024682641960680485,-0.019902696833014488,-0.023114725947380066
1761413474897468400,1.325468505859375,-0.0010026334784924984,-0.03013695776462555,-0.026789620518684387
1761413474907481300,1.3354814453125,-0.0031168062705546618,-0.0279482901096344,-0.0216529443860054
1761413474917494500,1.34549462890625,0.0005109516205266118,-0.023639295250177383,-0.013448543846607208
1761413474927508500,1.355508544921875,0.003754681907594204,-0.017826680094003677,-0.004131740890443325
1761413474937521400,1.365521484375,0.008131586946547031,-0.016013866290450096,0.005802914500236511
1761413474947534300,1.375534423828125,0.016725890338420868,-0.014955935999751091,0.007932751439511776
1761413474957547500,1.385547607421875,0.02461710199713707,-0.022190412506461143,0.0025052290875464678
1761413474967561500,1.3955615234375,0.027885334566235542,-0.030369512736797333,-0.0074027953669428825
1761413474977574400,1.405574462890625,0.03009202890098095,-0.034559465944767,-0.01045717392116785
1761413474987587300,1.41558740234375,0.029280366376042366,-0.032254867255687714,-0.020876964554190636
1761413474997601500,1.4256015625,0.02779725193977356,-0.02603372372686863,-0.023928148671984673
1761413475007614500,1.435614501953125,0.028824850916862488,-0.02524648979306221,-0.01975112594664097
1761413475017627400,1.44562744140625,0.02913191355764866,-0.028468649834394455,-0.013749693520367146
1761413475027640300,1.455640380859375,0.02928837016224861,-0.03251546993851662,-0.002921027597039938
1761413475037654300,1.465654296875,0.031366169452667236,-0.035032689571380615,0.008024298585951328
1761413475047667500,1.47566748046875,0.03917493671178818,-0.03287944197654724,0.02369990199804306
1761413475057680400,1.485680419921875,0.04864593595266342,-0.02619091048836708,0.029652602970600128
1761413475067694300,1.4956943359375,0.05340801179409027,-0.021440526470541954,0.028975920751690865
1761413475077707500,1.50570751953125,0.055659446865320206,-0.011998554691672325,0.02799028344452381
1761413475087720400,1.515720458984375,0.05590362101793289,0.003843340091407299,0.025790099054574966
1761413475097733400,1.5257333984375,0.049253176897764206,0.012827512808144093,0.025800218805670738
1761413475107747600,1.53574755859375,0.03726617619395256,0.009454004466533661,0.03160726651549339
1761413475117760500,1.545760498046875,0.030127041041851044,0.00011509750038385391,0.037708036601543427
1761413475127773400,1.5557734375,0.025698188692331314,-0.004236097447574139,0.03246256709098816
1761413475137786400,1.565786376953125,0.019854415208101273,-0.005221999250352383,0.01887725107371807
1761413475147800300,1.57580029296875,0.01190186943858862,-0.007620013784617186,0.006605911999940872
1761413475157813500,1.5858134765625,0.0061044334433972836,-0.007726007606834173,0.0018588274251669645
1761413475167826400,1.595826416015625,0.000713030225597322,-0.004839283414185047,0.004252969287335873
1761413475177839600,1.605839599609375,-0.015916546806693077,-0.0010581272654235363,0.010294616222381592
1761413475187853300,1.615853271484375,-0.022323790937662125,0.0005097170360386372,0.01728273741900921
1761413475197866500,1.625866455078125,-0.03215751424431801,0.0028756693936884403,0.02396274358034134
1761413475207879400,1.63587939453125,-0.04146425053477287,-0.0033369939774274826,0.02923635020852089
1761413475217893400,1.645893310546875,-0.043690118938684464,-0.009476379491388798,0.029586557298898697
1761413475227906600,1.655906494140625,-0.04681692272424698,-0.014007892459630966,0.023656601086258888
1761413475237919200,1.665919189453125,-0.05924217030405998,-0.007872235029935837,0.013404496014118195
1761413475247932400,1.675932373046875,-0.060446251183748245,-0.0064428141340613365,0.00995481014251709
1761413475257946400,1.6859462890625,-0.06632651388645172,-0.00001900317147374153,0.012401456013321877
1761413475267959300,1.695959228515625,-0.0740634873509407,-0.003452165052294731,0.00920101534575224
1761413475277972500,1.705972412109375,-0.07260087877511978,-0.0019538707565516233,0.00463529210537672
1761413475287985400,1.7159853515625,-0.07262013852596283,0.006098092533648014,-0.0020463387481868267
1761413475297999400,1.725999267578125,-0.06887466460466385,0.004738548770546913,-0.009747401811182499
1761413475308012500,1.736012451171875,-0.060312043875455856,0.005677908658981323,-0.005671926774084568
1761413475318025500,1.746025390625,-0.0581495575606823,-0.0004694662056863308,-0.0005709079559892416
1761413475328039400,1.756039306640625,-0.055485840886831284,-0.0032031380105763674,0.0050406791269779205
1761413475338052600,1.766052490234375,-0.04605691879987717,-0.000743442215025425,0.003936532884836197
1761413475348065300,1.776065185546875,-0.03360705450177193,0.008475620299577713,0.013224720023572445
1761413475358078500,1.786078369140625,-0.021695801988244057,0.02084493823349476,0.014479600824415684
1761413475368092400,1.796092529296875,-0.015077440068125725,0.021860463544726372,0.009310325607657433
1761413475378105300,1.806105224609375,-0.01152931060642004,0.02089533396065235,0.004037532955408096
1761413475388118500,1.816118408203125,-0.016658127307891846,0.017439208924770355,-0.0047208452597260475
1761413475398131500,1.82613134765625,-0.014062875881791115,0.0061484696343541145,-0.0032353338319808245
1761413475408145400,1.8361455078125,-0.012757927179336548,0.009031874127686024,-0.010880470275878906
1761413475418158600,1.84615869140625,-0.011190123856067657,0.007200151681900024,-0.02385059744119644
1761413475428171500,1.856171630859375,-0.007693690247833729,0.0034555033780634403,-0.03271247819066048
1761413475438185500,1.866185546875,-0.006042796652764082,0.004409980494529009,-0.03617405518889427
1761413475448198700,1.87619873046875,-0.0033195584546774626,0.00024710968136787415,-0.032535620033741
1761413475458211300,1.88621142578125,-0.0038290212396532297,-0.007303218357264996,-0.02605028823018074
1761413475468224500,1.896224609375,-0.003187450347468257,-0.012678420171141624,-0.018168291077017784
1761413475478238500,1.906238525390625,-0.004314766265451908,-0.009412852115929127,-0.01104486733675003
1761413475488251400,1.91625146484375,-0.007989270612597466,-0.004823754075914621,-0.006940856575965881
1761413475498264600,1.9262646484375,-0.010654030367732048,-0.002281766850501299,-0.007935812696814537
1761413475508277500,1.936277587890625,-0.015173484571278095,-0.003203117987141013,-0.005264489911496639
1761413475518291500,1.94629150390625,-0.020660927519202232,-0.003969043027609587,-0.0024354136548936367
1761413475528304400,1.956304443359375,-0.02181822620332241,-0.005716792307794094,-0.0033917808905243874
1761413475538317600,1.966317626953125,-0.025738932192325592,-0.006062736734747887,-0.0014223732287064195
1761413475548331000,1.9763310546875,-0.026040498167276382,0.00015125563368201256,0.0010129536967724562
1761413475558345000,1.986344970703125,-0.02758539840579033,0.0019491557031869888,0.011943099088966846
1761413475568358000,1.99635791015625,-0.02907915599644184,0.006650908384472132,0.020163146778941154
1761413475578371000,2.00637109375,-0.03322569653391838,0.0013136672787368298,0.022461455315351486
1761413475588384800,2.016384765625,-0.03401898220181465,-0.01632401905953884,0.025287695229053497
1761413475598398000,2.02639794921875,-0.037112507969141006,-0.027604103088378906,0.022569140419363976
1761413475608411100,2.0364111328125,-0.03846332058310509,-0.024654429405927658,0.021168330684304237
1761413475618424000,2.046424072265625,-0.041826363652944565,-0.014305917546153069,0.02051771990954876
1761413475628438000,2.05643798828125,-0.045858144760131836,-0.002887943759560585,0.015870995819568634
1761413475638451200,2.066451171875,-0.04594496637582779,0.003531340043991804,0.01296255737543106
1761413475648464000,2.0764638671875,-0.0489174984395504,0.014802923426032066,0.003972458653151989
1761413475658477000,2.08647705078125,-0.048525746911764145,0.022259507328271866,0.006154386326670647
1761413475668491000,2.096490966796875,-0.045145586133003235,0.02549934759736061,0.020252123475074768
1761413475678504000,2.10650390625,-0.04168933257460594,0.027134526520967484,0.029829116538167
1761413475688517000,2.11651708984375,-0.0383276492357254,0.020057646557688713,0.04013790562748909
1761413475698530000,2.126530029296875,-0.035633329302072525,0.014429854229092598,0.046833623200654984
1761413475708544000,2.1365439453125,-0.033877696841955185,0.009148644283413887,0.046021122485399246
1761413475718557000,2.146556884765625,-0.03547905385494232,0.011924456804990768,0.04570021107792854
1761413475728570000,2.156570068359375,-0.03958411142230034,0.020442595705389977,0.0449916236102581
1761413475738584000,2.166583984375,-0.04237803444266319,0.023078858852386475,0.03553367033600807
1761413475748597000,2.176596923828125,-0.0444832406938076,0.024368692189455032,0.027237700298428535
1761413475758610000,2.18660986328125,-0.04490242153406143,0.01797550544142723,0.020870348438620567
1761413475768622800,2.196622802734375,-0.04612692818045616,0.011679382994771004,0.020863531157374382
1761413475778637000,2.206636962890625,-0.048685960471630096,0.012540649622678757,0.01597636379301548
1761413475788650000,2.21664990234375,-0.05067892745137215,0.01716156117618084,0.01734221912920475
1761413475798663000,2.226662841796875,-0.04963550344109535,0.025787007063627243,0.017990965396165848
1761413475808676000,2.236676025390625,-0.05090344697237015,0.03352310135960579,0.017880070954561234
1761413475818690000,2.24668994140625,-0.042630601674318314,0.035496506839990616,0.0181631650775671
1761413475828703000,2.256702880859375,-0.03008894994854927,0.03839799389243126,0.018621176481246948
1761413475838716000,2.2667158203125,-0.024347174912691116,0.0357486829161644,0.01779266633093357
1761413475848728800,2.276728759765625,-0.01951286941766739,0.030246207490563393,0.015348164364695549
1761413475858743000,2.286742919921875,-0.017260367050766945,0.026151329278945923,0.010130232200026512
1761413475868756000,2.296755859375,-0.012740983627736568,0.020528597757220268,0.010145679116249084
1761413475878769000,2.306768798828125,-0.010845611803233624,0.014623038470745087,0.007191168610006571
1761413475888783000,2.316783203125,-0.008068100549280643,0.00228555453941226,-0.008365115150809288
1761413475898796000,2.326796142578125,-0.00786543358117342,-0.0033126764465123415,-0.01746327243745327
1761413475908809000,2.33680908203125,-0.008285947144031525,-0.005354521796107292,-0.022504368796944618
1761413475918822100,2.346822265625,-0.016463182866573334,-0.006382235791534185,-0.024118511006236076
1761413475928835800,2.3568359375,-0.018216105177998543,-0.0031142488587647676,-0.020238498225808144
1761413475938849000,2.36684912109375,-0.018634488806128502,-0.0026434019673615694,-0.01408206857740879
1761413475948862000,2.376862060546875,-0.016680818051099777,-0.001239180564880371,-0.015642188489437103
1761413475958875000,2.386875,-0.016236070543527603,0.0009848251938819885,-0.014903695322573185
1761413475968889000,2.39688916015625,-0.018009711056947708,0.004064567852765322,-0.01774631254374981
1761413475978902000,2.406902099609375,-0.016735387966036797,0.005326107610017061,-0.022832151502370834
1761413475988915000,2.4169150390625,-0.020432405173778534,0.0008263085037469864,-0.03222735598683357
1761413475998929000,2.426928955078125,-0.02630787156522274,-0.00643400102853775,-0.03445296362042427
1761413476008941800,2.43694189453125,-0.028074659407138824,-0.004445518366992474,-0.03101859986782074
1761413476018955000,2.446955078125,-0.030111445114016533,-0.009884492494165897,-0.028168484568595886
1761413476028968200,2.45696826171875,-0.029616661369800568,-0.013994554057717323,-0.028811348602175713
1761413476038982000,2.46698193359375,-0.033088624477386475,-0.02233024872839451,-0.03152031451463699
1761413476048995000,2.4769951171875,-0.03475804254412651,-0.022319572046399117,-0.025741346180438995
1761413476059008000,2.487008056640625,-0.036226775497198105,-0.01668325811624527,-0.015745704993605614
1761413476069021000,2.49702099609375,-0.03791166841983795,-0.019320566207170486,-0.012158228084445
1761413476079035100,2.50703515625,-0.03443358093500137,-0.026534004136919975,-0.014314055442810059
1761413476089047800,2.5170478515625,-0.033805686980485916,-0.02604861557483673,-0.020267315208911896
1761413476099061000,2.52706103515625,-0.0326211117208004,-0.023250699043273926,-0.02774973213672638
1761413476109074000,2.537073974609375,-0.03549918904900551,-0.018954485654830933,-0.03293357416987419
1761413476119087900,2.547087890625,-0.03856422379612923,-0.009872574359178543,-0.033798832446336746
1761413476129101000,2.55710107421875,-0.03449299558997154,-0.001859614159911871,-0.024433577433228493
1761413476139114000,2.567114013671875,-0.03182157874107361,0.0020299325697124004,-0.01845611073076725
1761413476149127000,2.577126953125,-0.02924729511141777,-0.009454786777496338,-0.00979914702475071
1761413476159141000,2.58714111328125,-0.027702128514647484,-0.01595636084675789,-0.00029618944972753525
1761413476169154000,2.597154052734375,-0.02201601304113865,-0.018034692853689194,0.006889285519719124
1761413476179167000,2.6071669921875,-0.01711588352918625,-0.013626379892230034,0.00847952626645565
1761413476189181200,2.61718115234375,-0.01829983852803707,0.0028596706688404083,0.009748455137014389
1761413476199193900,2.62719384765625,-0.01991398073732853,0.01754061132669449,0.007109262980520725
1761413476209207000,2.63720703125,-0.015052913688123226,0.03235551342368126,0.001531538087874651
1761413476219220000,2.647219970703125,-0.009234972298145294,0.03450548276305199,-0.00709204375743866
1761413476229234000,2.65723388671875,-0.004898115526884794,0.03315884619951248,-0.016774270683526993
1761413476239247000,2.6672470703125,0.00029211933724582195,0.022224172949790955,-0.023113926872611046
1761413476249260000,2.677260009765625,0.005899169482290745,0.008146680891513824,-0.029994789510965347
1761413476259273000,2.68727294921875,0.010316554456949234,-0.01408512145280838,-0.02844935655593872
1761413476269287000,2.697286865234375,0.014119078405201435,-0.01863727904856205,-0.019174177199602127
1761413476279300000,2.707300048828125,0.019160710275173187,-0.015062252059578896,-0.00690339645370841
1761413476289313000,2.71731298828125,0.022534064948558807,-0.01512819528579712,-0.005289347842335701
1761413476299326000,2.727325927734375,0.026201238855719566,-0.008761109784245491,-0.004732481203973293
1761413476309340000,2.73733984375,0.02849239483475685,0.005493379198014736,-0.0014342742506414652
1761413476319352800,2.747352783203125,0.027597306296229362,0.017900247126817703,-0.00347079336643219
1761413476329366000,2.757365966796875,0.025574995204806328,0.02054523304104805,-0.0057460954412817955
1761413476339380000,2.7673798828125,0.02371451072394848,0.017564089968800545,-0.012708397582173347
1761413476349393000,2.777392822265625,0.02192242257297039,0.014838511124253273,-0.01486134808510542
1761413476359406000,2.787406005859375,0.019476842135190964,0.013412654399871826,-0.01868884265422821
1761413476369419000,2.7974189453125,0.014815869741141796,0.0023058755323290825,-0.027779173105955124
1761413476379433000,2.807432861328125,0.013734093867242336,-0.0159682035446167,-0.039104800671339035
1761413476389446100,2.817446044921875,0.007649469189345837,-0.02559806779026985,-0.04585595428943634
1761413476399458800,2.827458740234375,0.0036869521718472242,-0.032713502645492554,-0.047973163425922394
1761413476409472000,2.837471923828125,-0.0032862448133528233,-0.031232455745339394,-0.0400419645011425
1761413476419486000,2.84748583984375,-0.008455706760287285,-0.019304689019918442,-0.030347790569067
1761413476429499000,2.857498779296875,-0.015771308913826942,-0.0017364737577736378,-0.01670224778354168
1761413476439512000,2.867511962890625,-0.018659241497516632,0.012556713074445724,-0.004255430772900581
1761413476449525000,2.87752490234375,-0.021168995648622513,0.019458500668406487,-0.0012618364999070764
1761413476459539000,2.8875390625,-0.018788930028676987,0.01719454862177372,-0.0016107105184346437
1761413476469552000,2.89755224609375,-0.018793776631355286,0.00545076560229063,-0.0067878831177949905
1761413476479564800,2.907564697265625,-0.019513629376888275,-0.006681264843791723,-0.01135973073542118
1761413476489578000,2.917577880859375,-0.01912674307823181,-0.022449472919106483,-0.008840474300086498
1761413476499592200,2.92759228515625,-0.023732148110866547,-0.026381364092230797,-0.006894235499203205
1761413476509604900,2.93760498046875,-0.029040062800049782,-0.02532091550529003,-0.006231695879250765
1761413476519618000,2.9476181640625,-0.025977427139878273,-0.018190301954746246,-0.0013333437964320183
1761413476529632000,2.957632080078125,-0.02168046310544014,-0.010511442087590694,-0.002710781991481781
1761413476539645000,2.96764501953125,-0.01806522160768509,-0.0021523120813071728,-0.0029741686303168535
1761413476549658000,2.977658203125,-0.008688380941748619,0.017803017050027847,0.0005128527991473675
1761413476559671000,2.987671142578125,-0.0040337080135941505,0.033852558583021164,0.00602186843752861
1761413476569685000,2.99768505859375,0.0022543207742273808,0.042206812649965286,0.007868118584156036
1761413476579698200,3.0076982421875,0.0028631193563342094,0.04013114422559738,0.009168805554509163
1761413476589710800,3.0177109375,0.009508003480732441,0.029514165595173836,0.01223884429782629
1761413476599724000,3.02772412109375,0.007552976720035076,0.012922137975692749,0.005073342472314835
1761413476609738000,3.037738037109375,0.010306058451533318,-0.004899429157376289,0.0032063329126685858
1761413476619751000,3.0477509765625,0.01101392600685358,-0.017216814681887627,-0.0008059852989390492
1761413476629764000,3.05776416015625,0.009307678788900375,-0.012379797175526619,-0.009144461713731289
1761413476639777000,3.067777099609375,0.008195276372134686,-0.01382429525256157,-0.015499296598136425
1761413476649791000,3.077791015625,0.006204015575349331,-0.015211392194032669,-0.0262945257127285
1761413476659804000,3.087803955078125,0.005398143082857132,-0.014683021232485771,-0.03700948879122734
1761413476669817000,3.097817138671875,0.007115419488400221,-0.014182714745402336,-0.04122917354106903
1761413476679830000,3.107830078125,0.009848888032138348,-0.016588881611824036,-0.040831565856933594
1761413476689844000,3.117843994140625,0.010392996482551098,-0.01953027956187725,-0.035921189934015274
1761413476699857000,3.12785693359375,0.01082442793995142,-0.0221811905503273,-0.031231893226504326
1761413476709870000,3.1378701171875,0.014583917334675789,-0.02719268761575222,-0.019953539595007896
1761413476719884000,3.147884033203125,0.01712031289935112,-0.029873425140976906,-0.017601436004042625
1761413476729897000,3.15789697265625,0.01812894456088543,-0.030222870409488678,-0.018762439489364624
1761413476739910000,3.167909912109375,0.01022335235029459,-0.018242374062538147,-0.029605500400066376
1761413476749923000,3.177923095703125,0.000522357237059623,-0.00450671324506402,-0.04031429812312126
1761413476759937000,3.18793701171875,-0.012562551535665989,0.003180501516908407,-0.059819821268320084
1761413476769950000,3.197949951171875,-0.02977052889764309,-0.004641549661755562,-0.07156501710414886
1761413476779963100,3.207963134765625,-0.035093389451503754,-0.007795797660946846,-0.08315376192331314
1761413476789975800,3.217975830078125,-0.032867927104234695,-0.011054769158363342,-0.07963404059410095
1761413476799990000,3.227989990234375,-0.024514654651284218,-0.011025739833712578,-0.0701444000005722
1761413476810003000,3.2380029296875,-0.014877669513225555,-0.0163407139480114,-0.05448492243885994
1761413476820015900,3.248015869140625,-0.004470301792025566,-0.02157648839056492,-0.03493199497461319
1761413476830029000,3.258029052734375,-0.00007679188274778426,-0.024822121486067772,-0.015899846330285072
1761413476840043000,3.26804296875,-0.002433689311146736,-0.02536061219871044,-0.0017041326500475407
1761413476850056000,3.278055908203125,-0.003753622528165579,-0.0220792293548584,0.002343513071537018
1761413476860069000,3.288069091796875,-0.012719687074422836,-0.011150148697197437,0.005777393002063036
1761413476870081800,3.298081787109375,-0.016430683434009552,0.002105998806655407,-0.00029420433565974236
1761413476880096000,3.308095947265625,-0.022226521745324135,0.013037476688623428,-0.01292477734386921
1761413476890109200,3.318109130859375,-0.02664390578866005,0.016077473759651184,-0.028502672910690308
1761413476900121900,3.328121826171875,-0.03526588901877403,0.02225547656416893,-0.04203232750296593
1761413476910135000,3.338135009765625,-0.036429524421691895,0.012554503977298737,-0.06212511658668518
1761413476920149000,3.34814892578125,-0.04024263843894005,-0.0007983194664120674,-0.06836757063865662
1761413476930162000,3.358161865234375,-0.03916407749056816,-0.02202942594885826,-0.06501342356204987
1761413476940175000,3.368175048828125,-0.04079765826463699,-0.031433846801519394,-0.050860852003097534
1761413476950188800,3.378188720703125,-0.038074176758527756,-0.03480822220444679,-0.03113829717040062
1761413476960202000,3.388201904296875,-0.03231402486562729,-0.02702273428440094,-0.012254353612661362
1761413476970215200,3.398215087890625,-0.026587283238768578,-0.007362212520092726,0.0028818431310355663
1761413476980227800,3.408227783203125,-0.01799965463578701,0.022103535011410713,0.013529427349567413
1761413476990242000,3.418241943359375,-0.010455169714987278,0.04484865069389343,0.013240048661828041
1761413477000255000,3.4282548828125,-0.003429750446230173,0.06334536522626877,0.013214481994509697
1761413477010268000,3.438267822265625,0.0010594150517135859,0.06762140244245529,0.006430530454963446
1761413477020281000,3.448281005859375,0.009427067823708057,0.06020583212375641,0.00039847102016210556
1761413477030294800,3.458294677734375,0.01277091633528471,0.04547762870788574,-0.0012623820221051574
1761413477040308000,3.468307861328125,0.014097969979047775,0.019929656758904457,-0.0033937098924070597
1761413477050321000,3.47832080078125,0.012124668806791306,-0.006503673270344734,-0.004289824515581131
1761413477060334000,3.488333984375,0.013649594970047474,-0.028811374679207802,-0.012179971672594547
1761413477070348000,3.49834814453125,0.015674270689487457,-0.03677975758910179,-0.020708026364445686
1761413477080361000,3.50836083984375,0.018483106046915054,-0.033190615475177765,-0.028340378776192665
1761413477090374000,3.518373779296875,0.021879954263567924,-0.020989999175071716,-0.03587110713124275
1761413477100387000,3.528386962890625,0.02625446207821369,-0.006111184600740671,-0.0451628752052784
1761413477110401000,3.538401123046875,0.028751865029335022,0.00394908944144845,-0.04758552834391594
1761413477120414000,3.5484140625,0.03424676135182381,0.009616563096642494,-0.05468098819255829
1761413477130427000,3.558427001953125,0.03512071073055267,-0.0002412698231637478,-0.06296931207180023
1761413477140440000,3.568440185546875,0.03894394636154175,-0.023345790803432465,-0.07023575156927109
1761413477150454000,3.5784541015625,0.03663085028529167,-0.042678799480199814,-0.07574548572301865
1761413477160467000,3.588467041015625,0.03206139802932739,-0.054056890308856964,-0.07753592729568481
1761413477170480000,3.598480224609375,0.02666386030614376,-0.05426150560379028,-0.08150134980678558
1761413477180494000,3.608494140625,0.02528141438961029,-0.05059513449668884,-0.08545294404029846
1761413477190507000,3.618507080078125,0.0203572828322649,-0.034608401358127594,-0.083156518638134
1761413477200520000,3.62852001953125,0.013853045180439949,-0.017820632085204124,-0.08336824178695679
1761413477210532900,3.638532958984375,0.009004917927086353,-0.0009461278095841408,-0.08775204420089722
1761413477220547000,3.648547119140625,0.003974472172558308,0.004738655872642994,-0.092588871717453
1761413477230560000,3.65856005859375,-0.00021540140733122826,0.007423760835081339,-0.09474307298660278
1761413477240573000,3.668572998046875,-0.000901964376680553,0.022022942081093788,-0.0877607986330986
1761413477250586000,3.678586181640625,0.0004574927152134478,0.022442372515797615,-0.08145064115524292
1761413477260600000,3.68860009765625,0.001052709179930389,0.024436546489596367,-0.07462123036384583
1761413477270613000,3.698613037109375,0.0010245039593428373,0.017166152596473694,-0.06309958547353745
1761413477280626200,3.708626220703125,0.004214704502373934,0.015058793127536774,-0.04067869856953621
1761413477290638800,3.718638916015625,0.0013643470592796803,0.015577640384435654,-0.013910694047808647
1761413477300653000,3.728653076171875,0.00540862325578928,0.011715257540345192,0.005109336692839861
1761413477310666000,3.738666015625,0.01061707641929388,0.009431148879230022,0.02168615721166134
1761413477320679000,3.748678955078125,0.019213493913412094,0.009361639618873596,0.033275701105594635
1761413477330692000,3.758692138671875,0.025868946686387062,0.023621493950486183,0.0395948626101017
1761413477340705800,3.768705810546875,0.03409358486533165,0.03330341354012489,0.04217519983649254
1761413477350719000,3.778718994140625,0.04061174392700195,0.03671349212527275,0.0421699658036232
1761413477360732200,3.788732177734375,0.04219525679945946,0.03194456920027733,0.040700435638427734
1761413477370744800,3.798744873046875,0.0456230454146862,0.025440042838454247,0.041580285876989365
1761413477380759000,3.808759033203125,0.04836796596646309,0.019695870578289032,0.04244421795010567
1761413477390772000,3.81877197265625,0.055584073066711426,0.006260696332901716,0.04126250743865967
1761413477400785000,3.828784912109375,0.05881528928875923,-0.005505148787051439,0.037219297140836716
1761413477410798000,3.838798095703125,0.06962539255619049,-0.02314603142440319,0.0339311882853508
1761413477420811800,3.848811767578125,0.07029864192008972,-0.031067870557308197,0.03526143729686737
1761413477430825000,3.858824951171875,0.07468137890100479,-0.039562616497278214,0.03460891917347908
1761413477440838100,3.868838134765625,0.07586595416069031,-0.04912736266851425,0.03436976671218872
1761413477450851000,3.87885107421875,0.07537007331848145,-0.0474381186068058,0.03645608574151993
1761413477460865000,3.888864990234375,0.07898984104394913,-0.0283533725887537,0.04097041115164757
1761413477470878000,3.8988779296875,0.07218731939792633,-0.012600688263773918,0.04900499805808067
1761413477480891000,3.908890869140625,0.062223371118307114,-0.0013938408810645342,0.04201287031173706
1761413477490905000,3.918905029296875,0.05530589818954468,0.006020951084792614,0.029654137790203094
1761413477500918000,3.92891796875,0.04604395851492882,0.002815837040543556,0.018098147585988045
1761413477510931000,3.938930908203125,0.037684082984924316,0.008679626509547234,0.007211931981146336
1761413477520943900,3.94894384765625,0.028269808739423752,0.012466374784708023,-0.0011709000682458282
1761413477530957800,3.958957763671875,0.019563596695661545,0.016236448660492897,-0.0023515725042670965
1761413477540971000,3.968970947265625,0.017852783203125,0.007652015425264835,0.0017960346303880215
1761413477550983400,3.9789833984375,0.01906517893075943,-0.009130220860242844,0.004377251025289297
1761413477560996600,3.98899658203125,0.02182874083518982,-0.016954854130744934,0.008908886462450027
1761413477571010300,3.99901025390625,0.019345516338944435,-0.02984052151441574,0.012455015443265438
1761413477581023500,4.0090234375,0.012027416378259659,-0.035521309822797775,0.011454465799033642
1761413477591036700,4.01903662109375,-0.000675964867696166,-0.03391130268573761,0.005071363877505064
1761413477601049300,4.02904931640625,-0.007947726175189018,-0.030045725405216217,-0.0062595875933766365
1761413477611063600,4.0390634765625,-0.0154342632740736,-0.01631254144012928,-0.018574923276901245
1761413477621076200,4.049076171875,-0.0191552322357893,0.0034558363258838654,-0.02698066085577011
1761413477631089400,4.05908935546875,-0.01942957565188408,0.023997144773602486,-0.03191431239247322
1761413477641102600,4.0691025390625,-0.020794179290533066,0.036744099110364914,-0.028941959142684937
1761413477651116300,4.0791162109375,-0.016489924862980843,0.038412608206272125,-0.022408971562981606
1761413477661129500,4.08912939453125,-0.013810517266392708,0.03292170539498329,-0.009257483296096325
1761413477671142400,4.099142333984375,-0.01207074522972107,0.021039050072431564,0.00019984133541584015
1761413477681155300,4.1091552734375,-0.01057431474328041,0.011728105135262012,0.011074859648942947
1761413477691169500,4.11916943359375,-0.0011818079510703683,-0.00028311973437666893,0.010335659608244896
1761413477701182500,4.129182373046875,0.004264356568455696,-0.012315548025071621,0.007471962366253138
1761413477711195400,4.1391953125,0.0033090966753661633,-0.022053806111216545,0.005800668150186539
1761413477721208300,4.149208251953125,0.0036819390952587128,-0.030039561912417412,0.0011241568718105555
1761413477731222300,4.15922216796875,0.001070693600922823,-0.025919239968061447,-0.002241118811070919
1761413477741235500,4.1692353515625,-0.00493633234873414,-0.01372036524116993,-0.005880062468349934
1761413477751248400,4.179248291015625,-0.011293384246528149,0.002889484167098999,-0.006024870555847883
1761413477761261600,4.189261474609375,-0.015930214896798134,0.014516312628984451,-0.003692474216222763
1761413477771275500,4.199275634765625,-0.015500332228839397,0.027131808921694756,0.0030549615621566772
1761413477781288400,4.209288330078125,-0.016834842041134834,0.02902797795832157,0.009501409716904163
1761413477791301400,4.21930126953125,-0.017362533137202263,0.023258240893483162,0.01337350346148014
1761413477801314300,4.229314208984375,-0.016892751678824425,0.008043868467211723,0.012891469523310661
1761413477811328500,4.23932861328125,-0.015333368442952633,-0.008666526526212692,0.015011383220553398
1761413477821341400,4.249341552734375,-0.01942797750234604,-0.015945743769407272,0.014224419370293617
1761413477831354400,4.259354248046875,-0.027118012309074402,-0.011870225891470909,0.010640311986207962
1761413477841367600,4.269367431640625,-0.030973469838500023,-0.009972456842660904,-0.00261104479432106
1761413477851381500,4.279381591796875,-0.04108123108744621,-0.0011933462228626013,-0.013719355687499046
1761413477861394400,4.28939453125,-0.05095250532031059,0.01099381223320961,-0.028018135577440262
1761413477871407600,4.29940771484375,-0.055940356105566025,0.026761997491121292,-0.04501400142908096
1761413477881420300,4.309420166015625,-0.054797861725091934,0.03391498327255249,-0.05572497099637985
1761413477891434500,4.3194345703125,-0.04799909517168999,0.030945762991905212,-0.06099806725978851
1761413477901447400,4.329447509765625,-0.03856538236141205,0.020114684477448463,-0.05621875822544098
1761413477911460400,4.33946044921875,-0.028143776580691338,-0.0006172857247292995,-0.045655250549316406
1761413477921474600,4.349474609375,-0.024501370266079903,-0.014394083991646767,-0.023734241724014282
1761413477931487200,4.3594873046875,-0.020687026903033257,-0.022806085646152496,-0.004006912931799889
1761413477941500400,4.36950048828125,-0.026502838358283043,-0.023995451629161835,0.0005699957255274057
1761413477951513600,4.379513671875,-0.023698709905147552,-0.014067169278860092,-0.007904782891273499
1761413477961527300,4.38952734375,-0.031359825283288956,-0.005383932497352362,-0.02169809490442276
1761413477971540500,4.39954052734375,-0.03473806008696556,-0.003745678346604109,-0.03813735768198967
1761413477981553700,4.4095537109375,-0.044214654713869095,-0.0005466891452670097,-0.04649755358695984
1761413477991566300,4.41956640625,-0.05262839421629906,-0.0006791693158447742,-0.04910968989133835
1761413478001580500,4.42958056640625,-0.050699733197689056,0.009022992104291916,-0.04177267849445343
1761413478011593200,4.43959326171875,-0.05391225591301918,0.012518223375082016,-0.03890787065029144
1761413478021606400,4.4496064453125,-0.054592426866292953,0.006788166705518961,-0.030539948493242264
1761413478031619600,4.45961962890625,-0.04339975118637085,0.0045625208877027035,-0.022156838327646255
1761413478041633300,4.46963330078125,-0.041876420378685,-0.0024583707563579082,-0.014352710917592049
1761413478051646500,4.479646484375,-0.04114111512899399,-0.013341700658202171,-0.005344897508621216
1761413478061659400,4.489659423828125,-0.04788903519511223,-0.02272801287472248,0.008307531476020813
1761413478071672300,4.49967236328125,-0.047422997653484344,-0.019997328519821167,0.010260322131216526
1761413478081686500,4.5096865234375,-0.045747336000204086,-0.01790514960885048,0.011949032545089722
1761413478091699500,4.519699462890625,-0.03197041526436806,-0.010228592902421951,-0.000565018504858017
1761413478101712400,4.52971240234375,-0.03126947209239006,-0.011468825861811638,-0.004191711079329252
1761413478111725300,4.539725341796875,-0.03624764829874039,-0.026731770485639572,0.003577355295419693
1761413478121739300,4.5497392578125,-0.03450540825724602,-0.027938980609178543,0.01732911914587021
1761413478131752400,4.55975244140625,-0.03511747345328331,-0.0271788127720356,0.02732866443693638
1761413478141765400,4.569765380859375,-0.036294057965278625,-0.026630736887454987,0.0282951258122921
1761413478151778600,4.579778564453125,-0.0348578579723835,-0.024374689906835556,0.02215026691555977
1761413478161792500,4.58979248046875,-0.030304115265607834,-0.018825195729732513,0.01541646383702755
1761413478171805400,4.599805419921875,-0.026300402358174324,-0.015728548169136047,0.014010320417582989
1761413478181818400,4.609818359375,-0.027140362188220024,-0.011336196213960648,0.017327019944787025
1761413478191831300,4.619831298828125,-0.0209633931517601,-0.008163063786923885,0.020117424428462982
1761413478201845500,4.629845458984375,-0.017900224775075912,-0.0017581612337380648,0.02715269848704338
1761413478211858400,4.6398583984375,-0.011127752251923084,-0.007221593521535397,0.02019198052585125
1761413478221871400,4.649871337890625,-0.0034892738331109285,-0.018970128148794174,0.016008155420422554
1761413478231884500,4.659884521484375,0.0016995747573673725,-0.02632955089211464,0.00399358244612813
1761413478241898500,4.6698984375,-0.0029156834352761507,-0.027554605156183243,-0.0013239512918516994
1761413478251911400,4.679911376953125,-0.004575914703309536,-0.028729179874062538,-0.003166697919368744
1761413478261924600,4.689924560546875,-0.011349398642778397,-0.024194614961743355,-0.00003428780473768711
1761413478271937300,4.699937255859375,-0.013311473652720451,-0.01562024187296629,0.009335430338978767
1761413478281951500,4.709951416015625,-0.016204731538891792,-0.002653576899319887,0.019672224298119545
1761413478291964400,4.71996435546875,-0.015763109549880028,0.005634610541164875,0.03322301059961319
1761413478301977300,4.729977294921875,-0.012646411545574665,0.006500137969851494,0.040179722011089325
1761413478311990500,4.739990478515625,-0.009360549971461296,0.005315339658409357,0.04206017032265663
1761413478322004500,4.75000439453125,-0.006893397308886051,0.0014566858299076557,0.040511805564165115
1761413478332017400,4.760017333984375,-0.006546887569129467,0.0018992801196873188,0.034973710775375366
1761413478342030600,4.770030517578125,-0.0015902117593213916,-0.008668143302202225,0.026900067925453186
1761413478352043300,4.780043212890625,-0.0038044347893446684,-0.014090768992900848,0.02433641627430916
1761413478362057500,4.790057373046875,-0.005621242802590132,-0.018872208893299103,0.017804214730858803
1761413478372070700,4.800070556640625,-0.011332022957503796,-0.013114312663674355,0.014377830550074577
1761413478382083300,4.810083251953125,-0.017207754775881767,-0.013844285160303116,0.004158215597271919
1761413478392096500,4.820096435546875,-0.024075830355286598,-0.010073348879814148,-0.0030150585807859898
1761413478402110500,4.8301103515625,-0.02641967684030533,-0.015164248645305634,-0.005575421266257763
1761413478412123400,4.840123291015625,-0.02876253053545952,-0.015400366857647896,-0.009986508637666702
1761413478422136600,4.850136474609375,-0.03081716038286686,-0.007400764152407646,-0.009827516973018646
1761413478432149500,4.8601494140625,-0.024846281856298447,0.00295456824824214,-0.006929905153810978
1761413478442163500,4.87016357421875,-0.02198151871562004,0.014898046851158142,-0.005961580201983452
1761413478452176400,4.88017626953125,-0.01361930277198553,0.01465135533362627,-0.002768424805253744
1761413478462189300,4.890189208984375,-0.013543935492634773,0.003713485784828663,-0.0035402090288698673
1761413478472202500,4.900202392578125,-0.017670856788754463,-0.01121355127543211,0.0055484287440776825
1761413478482216400,4.910216552734375,-0.02608458139002323,-0.021854743361473083,0.012964267283678055
1761413478492229400,4.9202294921875,-0.03834312781691551,-0.035716086626052856,0.01875573769211769
1761413478502242300,4.9302421875,-0.043419379740953445,-0.03723728656768799,0.022630104795098305
1761413478512255500,4.94025537109375,-0.02865591272711754,-0.03250295668840408,0.016890250146389008
1761413478522269400,4.95026953125,-0.026038559153676033,-0.017390051856637,0.00638700881972909
1761413478532282400,4.960282470703125,-0.03166033327579498,-0.013474224135279655,0.008116490207612514
1761413478542295600,4.970295654296875,-0.029334329068660736,-0.010240081697702408,0.023117810487747192
1761413478552308200,4.98030810546875,-0.033636096864938736,-0.005446471739560366,0.03794537112116814
1761413478562322400,4.990322509765625,-0.03223447501659393,-0.0026046123821288347,0.04375132918357849
1761413478572335400,5.00033544921875,-0.030111102387309074,-0.0006296345964074135,0.04103272035717964
1761413478582348300,5.010348388671875,-0.022112296894192696,-0.0013745208270847797,0.03133322298526764
1761413478592361200,5.020361328125,-0.01619301363825798,-0.0026527780573815107,0.026583926752209663
1761413478602375200,5.030375244140625,-0.008770251646637917,-0.004072242882102728,0.025021716952323914
1761413478612388400,5.040388427734375,-0.005497988313436508,-0.011959806084632874,0.028419790789484978
1761413478622401300,5.0504013671875,-0.004013808444142342,-0.011366719380021095,0.03151039034128189
1761413478632414500,5.06041455078125,-0.0003623151278588921,-0.006207135505974293,0.030970247462391853
1761413478642428400,5.070428466796875,0.006461502518504858,-0.004706177860498428,0.028752898797392845
1761413478652441300,5.08044140625,0.006937396712601185,-0.008766344748437405,0.022333979606628418
1761413478662454300,5.090454345703125,0.014795053750276566,-0.016210945323109627,0.018182644620537758
1761413478672467200,5.10046728515625,0.01775536499917507,-0.021836858242750168,0.01819203980267048
1761413478682481400,5.1104814453125,0.021491248160600662,-0.026822563260793686,0.026344774290919304
1761413478692494300,5.120494384765625,0.021902140229940414,-0.04148164018988609,0.030533716082572937
1761413478702507300,5.13050732421875,0.016542527824640274,-0.03841447830200195,0.022931456565856934
1761413478712520400,5.1405205078125,0.020796500146389008,-0.030551888048648834,0.022722436115145683
1761413478722534400,5.150534423828125,0.02051527053117752,-0.017749276012182236,0.02150270901620388
1761413478732547300,5.16054736328125,0.019079294055700302,-0.018209204077720642,0.02035888098180294
1761413478742560500,5.170560546875,0.012362834066152573,-0.014133790507912636,0.021805720403790474
1761413478752573200,5.1805732421875,0.012312271632254124,-0.012244624085724354,0.021630367264151573
1761413478762587400,5.19058740234375,0.011799080297350883,-0.009256024844944477,0.019956570118665695
1761413478772600300,5.200600341796875,0.01395694725215435,-0.0013101790100336075,0.01785040646791458
1761413478782613200,5.21061328125,0.012339876033365726,-0.005278022959828377,0.009245466440916061
1761413478792627500,5.22062744140625,0.015322943218052387,-0.006266336888074875,0.00185272260569036
1761413478802640100,5.23064013671875,0.01596875861287117,-0.008933759294450283,-0.008900322951376438
1761413478812653300,5.2406533203125,0.010099846869707108,-0.01061195693910122,-0.016774527728557587
1761413478822666500,5.25066650390625,0.006345322355628014,-0.008099264465272427,-0.0261808130890131
1761413478832680200,5.26068017578125,0.0032521269749850035,-0.007361349184066057,-0.031071553006768227
1761413478842693400,5.270693359375,-0.0005322248325683177,-0.002223312621936202,-0.03361593931913376
1761413478852706600,5.28070654296875,0.00090946932323277,-0.004295845050364733,-0.030374523252248764
1761413478862719200,5.29071923828125,0.002381398342549801,-0.004192780703306198,-0.01951575092971325
1761413478872732400,5.300732421875,0.01016809418797493,-0.0012878007255494595,-0.006980394013226032
1761413478882746000,5.31074609375,0.01119660772383213,-0.008817089721560478,0.005236591212451458
1761413478892759300,5.32075927734375,0.014061207883059978,-0.015736639499664307,0.0034760122653096914
1761413478902772500,5.3307724609375,0.01626364141702652,-0.018865853548049927,0.0003574509173631668
1761413478912785400,5.340785400390625,0.01740945689380169,-0.015439492650330067,0.00039987522177398205
1761413478922799400,5.35079931640625,0.01668454520404339,-0.01019546203315258,0.00022730231285095215
1761413478932812300,5.360812255859375,0.00932207889854908,-0.007179614156484604,-0.0005056238733232021
1761413478942825200,5.3708251953125,0.0047140116803348064,-0.01125025562942028,0.0030361139215528965
1761413478952839400,5.38083935546875,-0.00024495690013282,-0.006532859057188034,0.001823880011215806
1761413478962852400,5.390852294921875,-0.0005070119514130056,-0.005913673900067806,0.008324122987687588
1761413478972865300,5.400865234375,0.0015022724401205778,-0.007087226025760174,0.0069338614121079445
1761413478982878200,5.410878173828125,0.003985403571277857,-0.0038086085114628077,0.005105867050588131
1761413478992891400,5.420891357421875,0.006739878095686436,-0.0033619729802012444,0.0101424939930439
1761413479002905300,5.4309052734375,0.006391536444425583,-0.0008375626057386398,0.013063713908195496
1761413479012918300,5.440918212890625,0.004839517176151276,0.0021219048649072647,0.011499200016260147
1761413479022931500,5.450931396484375,-0.00007161832763813436,0.006804274395108223,0.0071454644203186035
1761413479032944000,5.460944091796875,-0.007605580613017082,0.010250933468341827,-0.001954680774360895
1761413479042958300,5.470958251953125,-0.012559592723846436,0.013699728064239025,-0.013660605996847153
1761413479052971300,5.48097119140625,-0.018742350861430168,0.015438159927725792,-0.02278870902955532
1761413479062984200,5.490984130859375,-0.021052641794085503,0.013751046732068062,-0.03343096375465393
1761413479072997400,5.500997314453125,-0.02240901067852974,0.009636664763092995,-0.03746223822236061
1761413479083011300,5.51101123046875,-0.020925363525748253,0.004132443107664585,-0.040620479732751846
1761413479093024300,5.521024169921875,-0.01816541887819767,-0.0029944146517664194,-0.04032335430383682
1761413479103037400,5.531037353515625,-0.016871122643351555,-0.010391611605882645,-0.03163612633943558
1761413479113050000,5.541050048828125,-0.014044517651200294,-0.0075796861201524734,-0.018953118473291397
1761413479123064300,5.551064208984375,-0.015543344430625439,-0.0015007546171545982,-0.0033832129556685686
1761413479133077500,5.561077392578125,-0.01963113434612751,0.006640387699007988,0.003275451483204961
1761413479143090200,5.571090087890625,-0.021421311423182487,0.015266899950802326,0.009310973808169365
1761413479153103400,5.581103271484375,-0.023943504318594933,0.02138925902545452,0.016109688207507133
1761413479163117300,5.591117431640625,-0.02789590135216713,0.024360015988349915,0.01999763771891594
1761413479173130200,5.601130126953125,-0.02565036155283451,0.026376906782388687,0.02800854481756687
1761413479183143400,5.611143310546875,-0.025484180077910423,0.028994262218475342,0.03501825034618378
1761413479193156400,5.62115625,-0.01722250133752823,0.025737546384334564,0.03504039719700813
1761413479203170300,5.63117041015625,-0.01255983766168356,0.016654036939144135,0.03623801842331886
1761413479213183500,5.64118359375,-0.003377138637006283,0.008809424936771393,0.026741866022348404
1761413479223196200,5.651196044921875,0.001669019111432135,0.0094278110191226,0.026734940707683563
1761413479233209300,5.661209228515625,0.004463620483875275,0.014690222218632698,0.02636328712105751
1761413479243223600,5.6712236328125,0.0027775727212429047,0.01536559872329235,0.025482580065727234
1761413479253236200,5.681236328125,0.0063767810352146626,0.011073341593146324,0.028270654380321503
1761413479263249400,5.69124951171875,0.006594094913452864,0.014697903767228127,0.025320669636130333
1761413479273262300,5.701262451171875,0.011886348947882652,0.017366455867886543,0.026901833713054657
1761413479283276300,5.7112763671875,0.010776876471936703,0.017617326229810715,0.025976385921239853
1761413479293289500,5.72128955078125,0.015018614009022713,0.019155830144882202,0.023277945816516876
1761413479303302400,5.731302490234375,0.01589106395840645,0.017372045665979385,0.02510407567024231
1761413479313315300,5.7413154296875,0.0177234448492527,0.011062422767281532,0.025649305433034897
1761413479323329300,5.751329345703125,0.0167551189661026,0.009527642279863358,0.024723589420318604
1761413479333342200,5.76134228515625,0.018050817772746086,0.01433827355504036,0.01981627568602562
1761413479343355400,5.77135546875,0.013523444533348083,0.02240525558590889,0.022067978978157043
1761413479353368300,5.781368408203125,0.011889932677149773,0.030432187020778656,0.02167978323996067
1761413479363382300,5.79138232421875,0.011708837933838367,0.028434015810489655,0.019774291664361954
1761413479373395200,5.801395263671875,0.011324455961585045,0.023225119337439537,0.022909166291356087
1761413479383408400,5.811408447265625,0.013892276212573051,0.018505465239286423,0.020011382177472115
1761413479393421300,5.82142138671875,0.014187212102115154,0.013138868845999241,0.014297116547822952
1761413479403435300,5.831435302734375,0.01684265024960041,0.004005558788776398,0.014790067449212074
1761413479413448400,5.841448486328125,0.019112728536128998,0.004697980359196663,0.014375947415828705
1761413479423461000,5.851461181640625,0.018234150484204292,0.005027413368225098,0.01670248433947563
1761413479433474300,5.861474365234375,0.014318843372166157,0.005645697005093098,0.020342586562037468
1761413479443488300,5.87148828125,0.006643879693001509,0.01597157120704651,0.01757902279496193
1761413479453501200,5.881501220703125,0.003935835789889097,0.022309567779302597,0.017581233754754066
1761413479463514400,5.891514404296875,-0.002664809115231037,0.0264116358011961,0.009311586618423462
1761413479473527600,5.901527587890625,-0.005372623912990093,0.02917707897722721,0.002250412944704294
1761413479483541200,5.911541259765625,-0.009154312312602997,0.04173308610916138,-0.003034097608178854
1761413479493554400,5.921554443359375,-0.01615004613995552,0.05146927759051323,-0.009784065186977386
1761413479503567000,5.931567138671875,-0.02512117102742195,0.05832958221435547,-0.015250734984874725
1761413479513580300,5.941580322265625,-0.03605543449521065,0.07803197205066681,-0.018032487481832504
1761413479523594500,5.951594482421875,-0.053437888622283936,0.08310715854167938,-0.022003792226314545
1761413479533607200,5.961607177734375,-0.05930866301059723,0.08395735919475555,-0.018358495086431503
1761413479543620400,5.971620361328125,-0.05938003584742546,0.08802374452352524,-0.019692473113536835
1761413479553633500,5.981633544921875,-0.0590415857732296,0.09328170120716095,-0.03403907269239426
1761413479563647500,5.9916474609375,-0.04010597988963127,0.06858674436807632,-0.030106913298368454
1761413479573660400,6.001660400390625,-0.03572436794638634,0.03686901181936264,-0.022442800924181938
1761413479583673600,6.011673583984375,-0.02803342416882515,0.013264080509543419,-0.01686454378068447
1761413479593686500,6.0216865234375,-0.025489643216133118,0.00017128465697169304,-0.013544206507503986
1761413479603700500,6.031700439453125,-0.027092600241303444,-0.010672841221094131,-0.014397749677300453
1761413479613713400,6.04171337890625,-0.028989853337407112,-0.017264552414417267,-0.015498805791139603
1761413479623726300,6.051726318359375,-0.02892540581524372,-0.019799616187810898,-0.014748060144484043
1761413479633739500,6.061739501953125,-0.02841603383421898,-0.01917719654738903,-0.008704685606062412
1761413479643753500,6.07175341796875,-0.025553934276103973,-0.01021246425807476,-0.0007516876794397831
1761413479653766400,6.081766357421875,-0.019892020151019096,0.008101539686322212,0.01984354667365551
1761413479663779600,6.091779541015625,-0.0156466756016016,0.025190243497490883,0.036592431366443634
1761413479673792500,6.10179248046875,-0.0058399708941578865,0.032203685492277145,0.05511670559644699
1761413479683805400,6.111805419921875,0.0027500547003000975,0.03036024235188961,0.06754195690155029
1761413479693819600,6.121819580078125,0.013665178790688515,0.0226881243288517,0.07265817373991013
1761413479703832300,6.131832275390625,0.02037474513053894,0.012832563370466232,0.06854172796010971
1761413479713845500,6.141845458984375,0.022241268306970596,0.0016097184270620346,0.05777010694146156
1761413479723858700,6.151858642578125,0.02346552349627018,-0.004243909381330013,0.04539413005113602
1761413479733872400,6.161872314453125,0.017152640968561172,-0.012830945663154125,0.034838609397411346
1761413479743885600,6.171885498046875,0.007110660895705223,-0.014651748351752758,0.016796760261058807
1761413479753898500,6.1818984375,0.0002115126117132604,-0.008167030289769173,0.005466490052640438
1761413479763911400,6.191911376953125,-0.003146200906485319,0.005407101474702358,-0.009378235787153244
1761413479773925600,6.201925537109375,-0.003978583961725235,0.01842596009373665,-0.012298249639570713
1761413479783938300,6.211938232421875,-0.0036286446265876293,0.027953417971730232,-0.012960045598447323
1761413479793951500,6.221951416015625,0.0010412458796054125,0.03465518355369568,-0.003226841799914837
1761413479803964400,6.23196435546875,0.0067840865813195705,0.03748931735754013,0.00887669250369072
1761413479813978400,6.241978271484375,0.008859009481966496,0.030388839542865753,0.01501606497913599
1761413479823991600,6.251991455078125,0.004408600740134716,0.02393147349357605,0.01734286919236183
1761413479834004500,6.26200439453125,0.005324906669557095,0.01058582216501236,0.013687215745449066
1761413479844017400,6.272017333984375,0.00025185104459524155,0.0014565074816346169,0.009128417819738388
1761413479854031600,6.282031494140625,0.004541634116321802,0.00029172003269195557,0.004295962862670422
1761413479864044500,6.29204443359375,0.009241580963134766,0.004375943914055824,0.006286409683525562
1761413479874057500,6.302057373046875,0.007675945293158293,0.0037801149301230907,0.0051981243304908276
1761413479884070400,6.3120703125,0.009511929005384445,-0.0004124990664422512,0.007967811077833176
1761413479894084400,6.32208447265625,0.007145265117287636,0.007114944979548454,0.018590029329061508
1761413479904097500,6.33209765625,0.005162009038031101,0.016094323247671127,0.022646555677056313
1761413479914110500,6.3421103515625,0.007795572280883789,0.024899613112211227,0.03194217011332512
1761413479924123600,6.35212353515625,0.010472581721842289,0.028504468500614166,0.037693001329898834
1761413479934137600,6.3621376953125,0.013212781399488449,0.03058690018951893,0.04525401070713997
1761413479944150500,6.372150634765625,0.021631833165884018,0.02511676959693432,0.0498274601995945
1761413479954163500,6.38216357421875,0.026569100096821785,0.02024955116212368,0.0529390387237072
1761413479964176400,6.39217626953125,0.03093694895505905,0.01507502980530262,0.055924709886312485
1761413479974190600,6.402190673828125,0.03338714689016342,0.012129059061408043,0.050809238106012344
1761413479984203500,6.41220361328125,0.031837452203035355,0.014353863894939423,0.03736267238855362
1761413479994216400,6.422216552734375,0.030360642820596695,0.021665288135409355,0.028725311160087585
1761413480004229600,6.432229736328125,0.031018976122140884,0.018879355862736702,0.020674042403697968
1761413480014243300,6.442243408203125,0.02985650673508644,0.012446489185094833,0.011171086691319942
1761413480024256500,6.452256591796875,0.03002215549349785,0.010815570130944252,0.0076498547568917274
1761413480034269700,6.462269775390625,0.033002763986587524,0.008729781955480576,0.0053406283259391785
1761413480044282400,6.472282470703125,0.03175773844122887,0.005438914056867361,0.009179308079183102
1761413480054296600,6.482296630859375,0.030013952404260635,0.005455734673887491,0.009430166333913803
1761413480064309500,6.4923095703125,0.028971858322620392,0.0031044292263686657,0.008769169449806213
1761413480074322400,6.502322509765625,0.03015929087996483,0.0028645815327763557,0.006909124553203583
1761413480084335600,6.512335693359375,0.03243709355592728,0.0008823908865451813,0.008419137448072433
1761413480094349300,6.522349365234375,0.035620033740997314,-0.003574040485545993,0.01071841735392809
1761413480104362500,6.532362548828125,0.03698303923010826,-0.006635077763348818,0.006849909201264381
1761413480114375700,6.542375732421875,0.03626156970858574,-0.0025006418582051992,0.007984312251210213
1761413480124388400,6.552388427734375,0.028890473768115044,0.005155946593731642,0.003752015996724367
1761413480134401500,6.562401611328125,0.021182307973504066,0.009146180003881454,-0.0008643760811537504
1761413480144415500,6.57241552734375,0.013868735171854496,0.01513403095304966,-0.011026199907064438
1761413480154428400,6.582428466796875,0.014965212903916836,0.011364367790520191,-0.014514952898025513
1761413480164441600,6.592441650390625,0.02452010102570057,0.018271274864673615,-0.020540621131658554
1761413480174454500,6.60245458984375,0.044295452535152435,0.01855819672346115,-0.019650010392069817
1761413480184468500,6.612468505859375,0.08764053136110306,-0.007856099866330624,-0.017161287367343903
1761413480194481400,6.6224814453125,0.11193706840276718,-0.017835352569818497,0.005887468345463276
1761413480204494600,6.63249462890625,0.0969032570719719,-0.008578469976782799,0.025892866775393486
1761413480214507500,6.642507568359375,0.06414935737848282,-0.016035545617341995,0.04839896038174629
1761413480224521500,6.652521484375,0.021662617102265358,-0.02990955114364624,0.056426528841257095
1761413480234534400,6.662534423828125,-0.017545131966471672,-0.01723841205239296,0.041757550090551376
1761413480244547300,6.67254736328125,-0.03853030875325203,0.019512413069605827,0.00952211394906044
1761413480254560500,6.682560546875,-0.04763856902718544,0.0561821311712265,-0.02458062395453453
1761413480264574500,6.692574462890625,-0.03971060365438461,0.0793958380818367,-0.06336396932601929
1761413480274587400,6.70258740234375,-0.026985254138708115,0.08804155141115189,-0.0775710791349411
1761413480284600600,6.7126005859375,-0.02287253551185131,0.10072804987430573,-0.06919623911380768
1761413480294613500,6.722613525390625,-0.023727642372250557,0.10584422945976257,-0.045117855072021484
1761413480304627500,6.73262744140625,-0.021925747394561768,0.08569315075874329,-0.017464391887187958
1761413480314640600,6.742640625,-0.021319471299648285,0.07599957287311554,0.005251492839306593
1761413480324653300,6.7526533203125,-0.015190470963716507,0.05740271881222725,0.02017638087272644
1761413480334666500,6.76266650390625,-0.010142378509044647,0.04242632910609245,0.021453725174069405
1761413480344680400,6.772680419921875,-0.0055529531091451645,0.0178043395280838,0.01613432727754116
1761413480354693400,6.782693359375,-0.0012352243065834045,-0.009614275768399239,0.009590951725840569
1761413480364706600,6.79270654296875,-0.00027808413142338395,-0.03284982591867447,0.0027122735045850277
1761413480374719500,6.802719482421875,-0.0032458940986543894,-0.0389787033200264,0.0018572378903627396
1761413480384733400,6.8127333984375,-0.002406465820968151,-0.030471766367554665,0.0008167407941073179
1761413480394746600,6.82274658203125,-0.00034464322379790246,-0.01632857322692871,0.003176506608724594
1761413480404759300,6.83275927734375,0.004789132624864578,-0.004838897380977869,0.007242088671773672
1761413480414772500,6.8427724609375,0.008662929758429527,-0.002507752738893032,0.010631611570715904
1761413480424785400,6.852785400390625,0.011381750926375389,-0.005730444099754095,0.016095617786049843
1761413480434799400,6.86279931640625,0.013290812261402607,-0.013854864984750748,0.0205910112708807
1761413480444812500,6.8728125,0.014925993047654629,-0.021708792075514793,0.02264350838959217
1761413480454825500,6.882825439453125,0.017056221142411232,-0.024308813735842705,0.01977640576660633
1761413480464838400,6.89283837890625,0.015814922749996185,-0.02651524357497692,0.014307338744401932
1761413480474852600,6.9028525390625,0.017855485901236534,-0.028569508343935013,0.012425596825778484
1761413480484865500,6.912865478515625,0.018658695742487907,-0.03865809366106987,0.004582853522151709
1761413480494878500,6.92287841796875,0.018308740109205246,-0.04965707287192345,0.0034770043566823006
1761413480504891400,6.932891357421875,0.012970433570444584,-0.049644023180007935,-0.001965165138244629
1761413480514905300,6.9429052734375,0.009672499261796474,-0.04399019479751587,-0.006673553958535194
1761413480524918500,6.95291845703125,0.006270045414566994,-0.03803243488073349,-0.01134207472205162
1761413480534931500,6.962931396484375,0.002480809111148119,-0.026963766664266586,-0.014171554706990719
1761413480544944600,6.972944580078125,0.0025172943715006113,-0.009149882011115551,-0.019755670800805092
1761413480554958000,6.9829580078125,0.003343248274177313,0.0065593901090323925,-0.022433770820498466
1761413480564971300,6.99297119140625,0.006041563116014004,0.008628932759165764,-0.021396202966570854
1761413480574984200,7.002984130859375,0.0073678879998624325,0.009083164855837822,-0.021340981125831604
1761413480584997000,7.0129970703125,0.005690895486623049,0.003790132701396942,-0.018685543909668922
1761413480595011300,7.02301123046875,0.00962252076715231,-0.0015417824033647776,-0.012521658092737198
1761413480605024000,7.03302392578125,0.013335499912500381,-0.012560078874230385,-0.005149228498339653
1761413480615037200,7.043037109375,0.018798265606164932,-0.03006560541689396,-0.0012273204047232866
1761413480625050400,7.05305029296875,0.02317250892519951,-0.042188845574855804,0.002647845074534416
1761413480635064000,7.06306396484375,0.017948327586054802,-0.04111713171005249,0.011453240178525448
1761413480645077200,7.0730771484375,0.015195416286587715,-0.02288912609219551,0.010814348235726357
1761413480655090200,7.083090087890625,0.010461256839334965,-0.004853871185332537,0.012003102339804173
1761413480665103000,7.09310302734375,0.006811128463596106,-0.0007483423687517643,0.013876102864742279
1761413480675117300,7.103117431640625,0.006757474970072508,0.0016594822518527508,0.009214958176016808
1761413480685130200,7.113130126953125,0.006068248767405748,0.002686929889023304,0.0092873964458704
1761413480695143200,7.12314306640625,0.007291047368198633,-0.004536300897598267,0.01269483007490635
1761413480705156000,7.133156005859375,0.0061679924838244915,-0.003889951854944229,0.011144338175654411
1761413480715169300,7.143169189453125,0.00450868159532547,-0.0013603409752249718,0.012213101610541344
1761413480725183200,7.153183349609375,0.007037086877971888,0.0003297007642686367,0.011656500399112701
1761413480735196200,7.163196044921875,0.013750207610428333,0.005389935802668333,0.008626492694020271
1761413480745209300,7.173209228515625,0.017563853412866592,0.0023006689734756947,0.010749831795692444
1761413480755222000,7.183221923828125,0.016346311196684837,-0.00024686893448233604,0.00928188394755125
1761413480765236200,7.193236328125,0.018359128385782242,-0.011016959324479103,0.010035292245447636
1761413480775249200,7.203249267578125,0.015907688066363335,-0.02526433765888214,0.0065500130876898766
1761413480785262000,7.213261962890625,0.012017342261970043,-0.04270138591527939,0.005560383200645447
1761413480795275300,7.223275146484375,0.0028600431978702545,-0.053428661078214645,0.004798142239451408
1761413480805289200,7.233289306640625,-0.00854228064417839,-0.07007448375225067,-0.0025135669857263565
1761413480815302100,7.24330224609375,-0.013753393664956093,-0.07147011905908585,-0.006781052332371473
1761413480825315300,7.2533154296875,-0.022966332733631134,-0.06020894646644592,-0.014030443504452705
1761413480835328000,7.263327880859375,-0.027439910918474197,-0.04862712323665619,-0.025347279384732246
1761413480845342200,7.27334228515625,-0.029098793864250183,-0.04399748519062996,-0.03499405086040497
1761413480855355100,7.283355224609375,-0.029411572962999344,-0.04246184602379799,-0.04213219881057739
1761413480865368000,7.2933681640625,-0.026159588247537613,-0.04223281145095825,-0.04176495224237442
1761413480875381200,7.30338134765625,-0.03216893598437309,-0.03727602958679199,-0.03155995160341263
1761413480885394200,7.313394287109375,-0.03853362426161766,-0.048780087381601334,-0.026016313582658768
1761413480895408000,7.323408203125,-0.04305478557944298,-0.06219680979847908,-0.01867324858903885
1761413480905421300,7.33342138671875,-0.041464611887931824,-0.07136154174804688,-0.021482883021235466
1761413480915434200,7.343434326171875,-0.04224642738699913,-0.07044699043035507,-0.014977382495999336
1761413480925447200,7.353447265625,-0.049690231680870056,-0.0626620426774025,-0.01548444852232933
1761413480935461400,7.36346142578125,-0.047378819435834885,-0.04855337366461754,-0.013873781077563763
1761413480945474000,7.37347412109375,-0.04361124336719513,-0.030158651992678642,-0.009937361814081669
1761413480955487200,7.3834873046875,-0.04583453759551048,-0.018798157572746277,-0.0040330649353563786
1761413480965500200,7.393500244140625,-0.045363426208496094,-0.00013286201283335686,-0.001152057433500886
1761413480975514000,7.40351416015625,-0.03786082565784454,-0.007623255252838135,-0.00022760196588933468
1761413480985527300,7.41352734375,-0.03922942653298378,-0.028692319989204407,-0.002085423097014427
1761413480995540200,7.423540283203125,-0.04176419973373413,-0.044828347861766815,-0.005060662515461445
1761413481005553200,7.43355322265625,-0.04475546255707741,-0.053862057626247406,-0.006634057499468327
1761413481015567400,7.4435673828125,-0.04070713743567467,-0.05528654158115387,-0.00864129513502121
1761413481025580300,7.453580322265625,-0.03958701342344284,-0.05719975382089615,-0.010594990104436874
1761413481035593200,7.46359326171875,-0.03720080479979515,-0.04855528101325035,-0.013578157871961594
1761413481045606100,7.473606201171875,-0.03213999792933464,-0.03164154291152954,-0.018262658268213272
1761413481055620000,7.4836201171875,-0.028329405933618546,-0.013163406401872635,-0.016019558534026146
1761413481065633300,7.49363330078125,-0.02884073369204998,-0.007529222406446934,-0.018160473555326462
1761413481075646200,7.503646240234375,-0.030787769705057144,-0.00928504392504692,-0.020940015092492104
1761413481085659400,7.513659423828125,-0.028474830090999603,-0.015993990004062653,-0.022267231717705727
1761413481095672000,7.523672119140625,-0.021048253402113914,-0.022755416110157967,-0.027651086449623108
1761413481105686300,7.533686279296875,-0.014061183668673038,-0.020878152921795845,-0.026745079085230827
1761413481115699200,7.54369921875,-0.01095013227313757,-0.023940298706293106,-0.02588832937180996
1761413481125712100,7.553712158203125,-0.008721332997083664,-0.027043147012591362,-0.021477868780493736
1761413481135725300,7.563725341796875,-0.004163313191384077,-0.017751313745975494,-0.009462174028158188
1761413481145739000,7.573739013671875,-0.0020082835108041763,-0.006873631849884987,0.0025127301923930645
1761413481155752200,7.583752197265625,0.002607045229524374,0.0026614475063979626,0.0069206212647259235
1761413481165765400,7.593765380859375,0.004549288656562567,0.008248759433627129,0.004816723521798849
1761413481175778000,7.603778076171875,0.008383085951209068,0.010781995952129364,0.002915888326242566
1761413481185792300,7.613792236328125,0.014505426399409771,0.01425049640238285,0.0019741945434361696
1761413481195805200,7.62380517578125,0.014925338327884674,0.015031649731099606,0.004895263351500034
1761413481205818000,7.633818115234375,0.010575330816209316,0.01808656007051468,0.008157636038959026
1761413481215831300,7.643831298828125,0.004929570946842432,0.010771185159683228,0.007043554447591305
1761413481225845000,7.653844970703125,0.0011095325462520123,0.00684408750385046,-0.0020551353227347136
1761413481235858200,7.663858154296875,-0.001088552176952362,0.0007167048752307892,-0.009564786218106747
1761413481245871400,7.673871337890625,-0.0018214541487395763,-0.007051736116409302,-0.020366033539175987
1761413481255884300,7.68388427734375,0.0026495675556361675,-0.011983559466898441,-0.01936524175107479
1761413481265897200,7.693897216796875,0.0040559833869338036,-0.013256283476948738,-0.014962505549192429
1761413481275911200,7.7039111328125,0.0034097223542630672,-0.008267632685601711,-0.006701714359223843
1761413481285924000,7.713924072265625,0.0033889496698975563,0.00007498590275645256,0.00716882711276412
1761413481295937300,7.723937255859375,0.00030554167460650206,0.003004462458193302,0.014818757772445679
1761413481305950200,7.7339501953125,0.0002175155095756054,-0.0006185625679790974,0.012273921631276608
1761413481315964200,7.743964111328125,-0.0029520904645323753,-0.006143537349998951,0.0012094841804355383
1761413481325977000,7.75397705078125,-0.003875941038131714,-0.011932983063161373,-0.0062082186341285706
1761413481335990300,7.763990234375,-0.006546593736857176,-0.010138310492038727,-0.010735860094428062
1761413481346003200,7.774003173828125,-0.015117711387574673,-0.009405141696333885,-0.013483443297445774
1761413481356017200,7.78401708984375,-0.022445540875196457,-0.00017037056386470795,-0.011966634541749954
1761413481366030300,7.7940302734375,-0.02276325598359108,0.003570571541786194,-0.006294633727520704
1761413481376043000,7.80404296875,-0.024150623008608818,0.006855431012809277,-0.001639981521293521
1761413481386056200,7.81405615234375,-0.023787368088960648,0.011554045602679253,0.000641282182186842
1761413481396070100,7.824070068359375,-0.01922689750790596,0.015461277216672897,0.0015718236099928617
1761413481406083000,7.8340830078125,-0.015071568079292774,0.02197856642305851,0.002859195927157998
1761413481416096300,7.84409619140625,-0.009491448290646076,0.025574155151844025,0.003666725941002369
1761413481426109200,7.854109130859375,-0.003989623859524727,0.0222952701151371,0.004291503690183163
1761413481436122000,7.8641220703125,0.00009786873124539852,0.019174421206116676,0.008951269090175629
1761413481446136300,7.87413623046875,0.0027338655199855566,0.010910632088780403,0.010595770552754402
1761413481456149000,7.88414892578125,0.010702947154641151,0.002098903525620699,0.012970015406608582
1761413481466162200,7.894162109375,0.009850469417870045,-0.0026471156161278486,0.011173447594046593
1761413481476175400,7.90417529296875,0.018916580826044083,0.00851550605148077,0.04773099347949028
1761413481486189000,7.91418896484375,0.0075491443276405334,-0.008822738192975521,0.04994994029402733
1761413481496202200,7.9242021484375,0.0069815535098314285,-0.021259598433971405,0.028881046921014786
1761413481506215200,7.934215087890625,0.027307331562042236,-0.016620904207229614,0.004962398670613766
1761413481516228000,7.94422802734375,0.03537631779909134,-0.0030132101383060217,-0.014866307377815247
1761413481526242300,7.9542421875,0.037816841155290604,0.005028471350669861,-0.022327685728669167
1761413481536255200,7.964255126953125,0.04012431204319,0.004801709204912186,-0.014548290520906448
1761413481546268200,7.97426806640625,0.0354912094771862,0.0043188780546188354,-0.0043363990262150764
1761413481556282000,7.9842822265625,0.030654961243271828,0.004354872740805149,0.005915959365665913
1761413481566295800,7.9942958984375,0.031042182818055153,0.006174344569444656,0.012055877596139908
1761413481576309000,8.00430908203125,0.026797372847795486,0.013786991126835346,0.008716540411114693
1761413481586322000,8.014322021484375,0.03162568435072899,0.020502150058746338,-0.006307949312031269
1761413481596334800,8.0243349609375,0.037125129252672195,0.025004291906952858,-0.017200499773025513
1761413481606348000,8.03434814453125,0.0348513238132,0.018496325239539146,-0.02157580479979515
1761413481616362000,8.044362060546876,0.03185009956359863,0.007734139449894428,-0.016250791028141975
1761413481626375000,8.054375,0.028842858970165253,-0.0012835904490202665,-0.014914152212440968
1761413481636387800,8.064387939453125,0.02283600904047489,-0.014328515157103539,-0.010263611562550068
1761413481646401000,8.074401123046876,0.017338711768388748,-0.02444719709455967,-0.0018126023933291435
1761413481656415000,8.0844150390625,0.01244774553924799,-0.02684367075562477,0.009182430803775787
1761413481666428000,8.094427978515625,0.003721898188814521,-0.02417997643351555,0.019224412739276886
1761413481676440800,8.10444091796875,-0.0018768305890262127,-0.016272276639938354,0.020168714225292206
1761413481686454000,8.1144541015625,-0.010202405042946339,-0.0012547119986265898,0.022454503923654556
1761413481696468000,8.124468017578126,-0.02319215051829815,0.01843320205807686,0.022365160286426544
1761413481706481000,8.13448095703125,-0.030678030103445053,0.026169950142502785,0.01872195675969124
1761413481716493800,8.144493896484375,-0.035056691616773605,0.030735280364751816,0.00922409351915121
1761413481726507000,8.154507080078124,-0.039982475340366364,0.036387041211128235,-0.0021694418974220753
1761413481736520000,8.16452001953125,-0.03878767415881157,0.04768958315253258,-0.004807859659194946
1761413481746534000,8.174533935546876,-0.03372473642230034,0.04597530514001846,-0.004652331117540598
1761413481756547000,8.184547119140625,-0.03040924482047558,0.0412914864718914,-0.002049601636826992
1761413481766559700,8.194559814453125,-0.02445255219936371,0.029223639518022537,0.0031914995051920414
1761413481776573000,8.204572998046874,-0.014590227976441383,0.014493037015199661,0.0076467362232506275
1761413481786587000,8.2145869140625,-0.011487645097076893,-0.0050782677717506886,0.013227922841906548
1761413481796599800,8.224599853515626,-0.005628744140267372,-0.017715541645884514,0.009370345622301102
1761413481806613000,8.234613037109375,-0.0012166851665824652,-0.024036023765802383,-0.0029787318781018257
1761413481816626000,8.2446259765625,0.00041162496199831367,-0.02608288638293743,-0.009485911577939987
1761413481826640000,8.254639892578124,0.0025147232227027416,-0.022508390247821808,-0.015651395544409752
1761413481836653000,8.264653076171875,0.004525374621152878,-0.005198884755373001,-0.022147320210933685
1761413481846666000,8.274666015625,0.006802110932767391,0.01069565862417221,-0.02060641720890999
1761413481856679000,8.284678955078125,0.007534125354140997,0.021880174055695534,-0.019620118662714958
1761413481866693000,8.294693115234375,0.009420175105333328,0.021345144137740135,-0.019845955073833466
1761413481876705800,8.304705810546874,0.012691016308963299,0.013553757220506668,-0.012822387740015984
1761413481886719000,8.314718994140625,0.015424485318362713,0.003209774848073721,-0.005004412494599819
1761413481896732000,8.32473193359375,0.014214432798326015,-0.002619444625452161,-0.00380138261243701
1761413481906744800,8.334744873046875,0.018999600782990456,-0.00231451285071671,0.0013374530244618654
1761413481916759000,8.344759033203125,0.015783444046974182,-0.0023527462035417557,-0.0010868455283343792
1761413481926772000,8.35477197265625,0.012473933398723602,-0.0032326546497642994,-0.007298402488231659
1761413481936785000,8.364784912109375,0.005511258728802204,-0.0008079865947365761,-0.01912899687886238
1761413481946797800,8.3747978515625,-0.000665943487547338,0.0010631503537297249,-0.028181880712509155
1761413481956812000,8.38481201171875,-0.0015444494783878326,0.0024540722370147705,-0.030988169834017754
1761413481966825000,8.394824951171875,-0.0026920055970549583,0.007089303806424141,-0.032790862023830414
1761413481976838000,8.404837890625,-0.002064262516796589,0.004861490800976753,-0.032969944179058075
1761413481986851000,8.41485107421875,0.0038977558724582195,0.006223165430128574,-0.023894423618912697
1761413481996865000,8.424864990234376,0.0071939146146178246,0.017415445297956467,-0.014471244066953659
1761413482006878000,8.4348779296875,0.009668790735304356,0.019369937479496002,-0.006576836109161377
1761413482016891000,8.444890869140625,0.010741760954260826,0.010582450777292252,0.0005355640314519405
1761413482026903800,8.45490380859375,0.009387809783220291,0.006513406988233328,-0.0031028466764837503
1761413482036917000,8.4649169921875,0.007256179116666317,0.0013962225057184696,0.00013301009312272072
1761413482046931000,8.474930908203126,0.002113349037244916,-0.0039005386643111706,-0.0045099444687366486
1761413482056943900,8.48494384765625,-0.005273798014968634,-0.0017281509935855865,-0.01079568825662136
1761413482066957000,8.49495703125,-0.008505011908710003,-0.0018298837821930647,-0.015350226312875748
1761413482076970000,8.504969970703126,-0.010237077251076698,0.00435614911839366,-0.01015814021229744
1761413482086984000,8.51498388671875,-0.0083518261089921,0.011556271463632584,-0.004472291097044945
1761413482096997000,8.5249970703125,-0.0058021522127091885,0.01963457278907299,0.002735995687544346
1761413482107009800,8.535009765625,-0.0036188922822475433,0.02305753342807293,0.01024610921740532
1761413482117023000,8.54502294921875,0.0004899928462691605,0.016544099897146225,0.012653306126594543
1761413482127037000,8.555036865234374,0.005338011309504509,0.010692870244383812,0.016921021044254303
1761413482137049900,8.5650498046875,0.010052356868982315,-0.00044733332470059395,0.019951211288571358
1761413482147063000,8.57506298828125,0.010134648531675339,-0.012133283540606499,0.022206110879778862
1761413482157076000,8.585075927734374,0.017353305593132973,-0.02174551598727703,0.023019997403025627
1761413482167089000,8.5950888671875,0.02010088972747326,-0.022719699889421463,0.021920111030340195
1761413482177103000,8.60510302734375,0.018882617354393005,-0.009365872479975224,0.024300524964928627
1761413482187116000,8.615115966796875,0.016732115298509598,0.004709999077022076,0.024399327114224434
1761413482197129000,8.62512890625,0.014956194907426834,0.0208717193454504,0.020475346595048904
1761413482207142000,8.635141845703124,0.016594836488366127,0.03031715378165245,0.017579691484570503
1761413482217155800,8.64515576171875,0.018368219956755638,0.037450361996889114,0.013761203736066818
1761413482227169000,8.6551689453125,0.022160295397043228,0.030740531161427498,0.006479323375970125
1761413482237182000,8.665181884765625,0.019087806344032288,0.017712555825710297,0.007288066670298576
1761413482247195000,8.67519482421875,0.01891683042049408,0.006479608826339245,0.011241795495152473
1761413482257208800,8.685208740234375,0.016531703993678093,-0.009339513257145882,0.015920495614409447
1761413482267222000,8.695221923828125,0.023182949051260948,-0.024052677676081657,0.016571637243032455
1761413482277235000,8.70523486328125,0.026467638090252876,-0.026818202808499336,0.011646874248981476
1761413482287248000,8.715247802734375,0.024534448981285095,-0.023065010085701942,0.0015923755709081888
1761413482297261000,8.725260986328125,0.025639625266194344,-0.01787501759827137,-0.0013282557483762503
1761413482307275000,8.73527490234375,0.021128229796886444,-0.009706836193799973,-0.005947775207459927
1761413482317288000,8.745287841796875,0.020508958026766777,0.007832779549062252,0.0013273099903017282
1761413482327301000,8.755301025390626,0.03957878798246384,0.018517915159463882,0.011096850037574768
1761413482337313800,8.765313720703125,0.02274022437632084,-0.004644499626010656,0.010686282999813557
1761413482347328000,8.775327880859376,0.021590804681181908,0.007695523090660572,0.015809405595064163
1761413482357341000,8.7853408203125,0.030684398487210274,0.006742402911186218,0.021446576341986656
1761413482367353900,8.795353759765625,0.02856186032295227,0.0012709381990134716,0.016395624727010727
1761413482377367000,8.805366943359376,0.026886481791734695,-0.0005524074658751488,0.01348649337887764
1761413482387380700,8.815380615234375,0.04543593153357506,-0.0032235579565167427,0.009519980289041996
1761413482397394000,8.825393798828125,0.04872063919901848,-0.021587040275335312,0.008301966823637486
1761413482407407000,8.835406982421874,0.03505542874336243,-0.010557558387517929,0.014007522724568844
1761413482417420000,8.845419921875,0.03546652942895889,-0.011262249201536179,0.021619707345962524
1761413482427433000,8.855432861328126,0.040111880749464035,-0.031568318605422974,0.018013253808021545
1761413482437447000,8.865447021484375,0.06094183400273323,-0.0004347139038145542,0.025128038600087166
1761413482447459800,8.8754599609375,0.04985509440302849,0.012632619589567184,0.023431338369846344
1761413482457473000,8.88547314453125,0.041563358157873154,0.03449409827589989,0.0265010017901659
1761413482467486000,8.89548583984375,0.048117928206920624,0.026289429515600204,0.02830582484602928
1761413482477500000,8.9055,0.048290252685546875,0.011844033375382423,0.02801857516169548
1761413482487512800,8.915512939453125,0.04103926569223404,0.009991537779569626,0.023957254365086555
1761413482497526000,8.925526123046875,0.034167829900979996,-0.004598015453666449,0.017437025904655457
1761413482507539000,8.9355390625,0.039760202169418335,-0.023290477693080902,0.01245824620127678
1761413482517553000,8.945552978515625,0.05456661432981491,-0.03459727019071579,0.007294793613255024
1761413482527566000,8.955566162109376,0.03277290239930153,-0.0259902011603117,0.00895127933472395
1761413482537579000,8.9655791015625,0.018500523641705513,-0.014847559854388237,0.012888706289231777
1761413482547592000,8.975592041015625,0.015167846344411373,-0.0182939562946558,0.010157900862395763
1761413482557604600,8.9856044921875,0.004752648528665304,-0.009170584380626678,0.008916092105209827
1761413482567618300,8.995618408203125,-0.004287185613065958,-0.0003195679746568203,0.0006270029116421938
1761413482577631500,9.005631591796876,-0.011119544506072998,0.00010289950296282768,-0.005082444287836552
1761413482587644700,9.015644775390625,-0.015507102012634277,-0.004603172652423382,-0.009548032656311989
1761413482597657300,9.0256572265625,-0.01883431151509285,-0.015555627644062042,-0.012352954596281052
1761413482607671600,9.035671630859374,-0.026464801281690598,-0.016837140545248985,-0.013458432629704475
1761413482617684500,9.0456845703125,-0.03128047287464142,-0.014948165975511074,-0.0077239759266376495
1761413482627697400,9.055697509765626,-0.038004953414201736,-0.005906201899051666,-0.0026953949127346277
1761413482637710600,9.065710693359375,-0.044763416051864624,0.0012761610560119152,0.0034671365283429623
1761413482647723500,9.0757236328125,-0.04775787517428398,0.008714369498193264,0.007687714416533709
1761413482657737500,9.085737548828124,-0.047873493283987045,0.008937887847423553,0.003827578155323863
1761413482667750700,9.095750732421875,-0.047325681895017624,0.004899737425148487,-0.004840478301048279
1761413482677763600,9.105763671875,-0.04652952030301094,-0.003058847738429904,-0.00913869310170412
1761413482687776500,9.115776611328124,-0.046553220599889755,-0.004988840781152248,-0.009648955427110195
1761413482697790500,9.12579052734375,-0.0516279973089695,-0.003087815595790744,-0.009319337084889412
1761413482707803400,9.135803466796874,-0.05427704378962517,-0.00357703841291368,-0.0066609689965844154
1761413482717816600,9.145816650390625,-0.055692728608846664,-0.0028962367214262486,-0.007708077318966389
1761413482727829500,9.15582958984375,-0.05201250687241554,-0.002767872530966997,-0.008128058165311813
1761413482737843500,9.165843505859375,-0.05078120157122612,-0.0024550114758312702,-0.006752454675734043
1761413482747856400,9.1758564453125,-0.044194940477609634,0.00026327697560191154,-0.002231472171843052
1761413482757869600,9.18586962890625,-0.0437636636197567,0.007398235611617565,-0.00048153242096304893
1761413482767882500,9.195882568359375,-0.03666900470852852,0.010606545954942703,0.0005110276397317648
1761413482777895400,9.2058955078125,-0.03822338581085205,0.008005309849977493,0.0018160119652748108
1761413482787909600,9.21590966796875,-0.030778784304857254,0.001493615098297596,-0.0005227762740105391
1761413482797922300,9.22592236328125,-0.023302245885133743,-0.026610635221004486,-0.00921017024666071
1761413482807935500,9.235935546875,-0.0055261775851249695,-0.0008599967695772648,-0.003717933315783739
1761413482817948700,9.24594873046875,0.03541671112179756,0.0017192084342241287,0.006496841087937355
1761413482827962400,9.25596240234375,0.023047393187880516,-0.025745438411831856,0.008987429551780224
1761413482837975600,9.2659755859375,0.014056099578738213,-0.005439471453428268,0.020210614427924156
1761413482847988500,9.275988525390625,0.02416066639125347,-0.0037757945246994495,0.01993417926132679
1761413482858001400,9.28600146484375,0.023658694699406624,0.004118535201996565,0.014395486563444138
1761413482868014600,9.2960146484375,0.01653713546693325,0.02137954719364643,0.005611849948763847
1761413482878028300,9.3060283203125,0.018060393631458282,0.026515822857618332,-0.00609869509935379
1761413482888041500,9.31604150390625,0.027761757373809814,0.028157927095890045,-0.009453479200601578
1761413482898054700,9.3260546875,0.032017290592193604,0.01963464356958866,-0.016983740031719208
1761413482908067600,9.336067626953126,0.032755784690380096,0.003713201265782118,-0.012309626676142216
1761413482918081500,9.34608154296875,0.035741422325372696,-0.009115965105593204,-0.013351872563362122
1761413482928094500,9.356094482421875,0.04021286964416504,-0.017883891239762306,-0.013130297884345055
1761413482938107400,9.366107421875,0.036732543259859085,-0.013835970312356949,-0.014242676086723804
1761413482948120600,9.37612060546875,0.03351837396621704,-0.009100602939724922,-0.021214831620454788
1761413482958134500,9.386134521484376,0.029204586520791054,-0.0006816070526838303,-0.014293867163360119
1761413482968147500,9.3961474609375,0.021025219932198524,0.006049798335880041,-0.009450376033782959
1761413482978160400,9.406160400390625,0.022436926141381264,0.032816510647535324,0.005943343508988619
1761413482988173600,9.416173583984374,0.00989450141787529,0.01816060207784176,0.008816095069050789
1761413482998186500,9.4261865234375,-0.006804706994444132,0.0034751943312585354,0.0030524013563990593
1761413483008200400,9.436200439453126,-0.014040515758097172,0.016121480613946915,0.0026542586274445057
1761413483018213600,9.446213623046875,-0.015637045726180077,0.030549343675374985,0.001727628754451871
1761413483028226300,9.456226318359375,-0.02167523093521595,0.025502651929855347,-0.004730003885924816
1761413483038239500,9.466239501953124,-0.024169299751520157,0.007422064896672964,-0.017715414986014366
1761413483048252700,9.476252685546875,-0.02184862084686756,-0.006837830878794193,-0.025091571733355522
1761413483058266400,9.486266357421876,-0.02196991816163063,-0.01368023082613945,-0.02262743189930916
1761413483068279600,9.496279541015625,-0.026734845712780952,-0.01085195317864418,-0.019650816917419434
1761413483078292500,9.50629248046875,-0.027905039489269257,-0.00222331122495234,-0.015603343024849892
1761413483088305400,9.516305419921874,-0.02960227057337761,0.010204330086708069,-0.008801097050309181
1761413483098319600,9.526319580078125,-0.031701959669589996,0.01815835013985634,-0.0023977812379598618
1761413483108332300,9.536332275390626,-0.03297548368573189,0.02557924948632717,-0.004498749040067196
1761413483118345500,9.546345458984375,-0.031131085008382797,0.021767916157841682,-0.002958353143185377
1761413483128358400,9.5563583984375,-0.029779531061649323,0.01513238251209259,-0.014511944726109505
1761413483138372400,9.566372314453124,-0.027469664812088013,0.008975771255791187,-0.01832508109509945
1761413483148385500,9.576385498046875,-0.020383793860673904,0.002451559528708458,-0.02296004630625248
1761413483158398500,9.5863984375,-0.014143367297947407,-0.0014857847709208727,-0.023633791133761406
1761413483168411400,9.596411376953125,-0.013728179968893528,-0.0021118938457220793,-0.027537720277905464
1761413483178424600,9.606424560546875,-0.0036460028495639563,-0.005023116245865822,-0.027076300233602524
1761413483188438500,9.6164384765625,0.006553105544298887,-0.004556796979159117,-0.02627335488796234
1761413483198451500,9.626451416015625,0.008932391181588173,-0.00862785056233406,-0.02709297090768814
1761413483208464400,9.63646435546875,0.010263971984386444,-0.010153308510780334,-0.027777936309576035
1761413483218477600,9.6464775390625,0.007794900797307491,-0.011493508704006672,-0.033434804528951645
1761413483228491500,9.656491455078125,0.010013846680521965,-0.010180836543440819,-0.03540261462330818
1761413483238504400,9.66650439453125,0.005775940138846636,-0.0070621296763420105,-0.031834349036216736
1761413483248517600,9.676517578125,0.008190096355974674,0.000023476313799619675,-0.033457811921834946
1761413483258530300,9.6865302734375,0.00866731721907854,0.006458939053118229,-0.028747525066137314
1761413483268544500,9.69654443359375,0.009544828906655312,0.014668133109807968,-0.016711635515093803
1761413483278557400,9.706557373046875,0.00811112392693758,0.01583593524992466,0.0020366136450320482
1761413483288570400,9.7165703125,0.0070226904936134815,0.015872687101364136,0.016029661521315575
1761413483298583600,9.72658349609375,0.006768341641873121,0.014065932482481003,0.023994863033294678
1761413483308596500,9.736596435546875,0.0075313374400138855,0.009006991982460022,0.02785777859389782
1761413483318610400,9.7466103515625,0.005030218977481127,0.0038736332207918167,0.02183772623538971
1761413483328623600,9.75662353515625,0.003647772129625082,0.0040302276611328125,0.013755830936133862
1761413483338636300,9.76663623046875,-0.0015773663762956858,0.014055363833904266,0.008117073215544224
1761413483348649500,9.7766494140625,-0.008206240832805634,0.023377493023872375,0.003975325264036655
1761413483358663700,9.78666357421875,-0.010952119715511799,0.02488572522997856,-0.0019486332312226295
1761413483368676400,9.79667626953125,-0.01370263285934925,0.024294503033161163,-0.00661422498524189
1761413483378689500,9.806689453125,-0.013125205412507057,0.018183445557951927,-0.012141569517552853
1761413483388702500,9.816702392578126,-0.00982847809791565,0.016708852723240852,-0.015268120914697647
1761413483398715400,9.82671533203125,-0.008792188949882984,0.012670477852225304,-0.011804158799350262
1761413483408729600,9.8367294921875,-0.005646463017910719,0.018271105363965034,-0.0048921904526650906
1761413483418742500,9.846742431640624,-0.000780068919993937,0.025080807507038116,0.0032741266768425703
1761413483428755500,9.85675537109375,0.0003661555820144713,0.020863691344857216,0.004915965721011162
1761413483438768400,9.866768310546876,0.005784905515611172,0.011646026745438576,0.0032874890603125095
1761413483448782300,9.8767822265625,0.005995295941829681,0.004683990962803364,-0.0006388092879205942
1761413483458795500,9.88679541015625,0.005976512562483549,0.0036466834135353565,-0.006419061683118343
1761413483468808400,9.896808349609374,0.009323041886091232,0.0007049553096294403,-0.01496940664947033
1761413483478821600,9.906821533203125,0.009310915134847164,-0.004181473050266504,-0.014197541400790215
1761413483488834300,9.916834228515626,0.004391523543745279,-0.003742317669093609,-0.009736746549606323
1761413483498848500,9.9268486328125,0.0069638886488974094,0.0018075648695230484,-0.003752519842237234
1761413483508861400,9.936861328125,0.009535702876746655,0.010806386359035969,0.0035123175475746393
1761413483518874400,9.946874267578124,0.01483596209436655,0.01588229276239872,0.0037438964936882257
1761413483528887600,9.956887451171875,0.02136017195880413,0.013732587918639183,0.010718715377151966
1761413483538901500,9.966901611328124,0.026315394788980484,0.009765926748514175,0.012420719489455223
1761413483548914400,9.97691455078125,0.025614982470870018,0.008308909833431244,0.021596640348434448
1761413483558928100,9.98692822265625,0.024446208029985428,-0.0003714882768690586,0.02391979657113552
1761413483568940800,9.99694091796875,0.02053988352417946,-0.004657046869397163,0.03221793845295906
1761413483578954000,10.0069541015625,0.013290154747664928,-0.008917735889554024,0.029683049768209457
1761413483588968000,10.016968017578124,0.008532950654625893,-0.0129321850836277,0.018015475943684578
1761413483598980900,10.02698095703125,0.006006801966577768,-0.01818208023905754,0.0019626126158982515
1761413483608994000,10.036994140625,0.005060048308223486,-0.013134324923157692,-0.015972444787621498
1761413483619007000,10.047007080078124,0.002459914656355977,-0.01009487733244896,-0.02326917089521885
1761413483629021000,10.05702099609375,0.005045577883720398,-0.0023099244572222233,-0.022891534492373466
1761413483639034000,10.0670341796875,0.0075437286868691444,0.009660536423325539,-0.019700825214385986
1761413483649046800,10.077046875,0.011437536217272282,0.019986411556601524,-0.008372802287340164
1761413483659060000,10.08706005859375,0.016241559758782387,0.03405211865901947,-0.004729586653411388
1761413483669073000,10.097072998046874,0.021464552730321884,0.03317327797412872,-0.007217512000352144
1761413483679086800,10.1070869140625,0.021467693150043488,0.009671105071902275,-0.01301253866404295
1761413483689100000,10.11710009765625,0.020794712007045746,-0.016275808215141296,-0.02291603572666645
1761413483699113000,10.127113037109375,0.01708207093179226,-0.0241873636841774,-0.029095808044075966
1761413483709126000,10.1371259765625,0.018371040001511574,-0.02227015234529972,-0.024270959198474884
1761413483719140000,10.14714013671875,0.015580525621771812,-0.020200707018375397,-0.017943868413567543
1761413483729153000,10.157153076171875,0.014848156832158566,-0.017660317942500114,-0.0163078885525465
1761413483739166000,10.167166015625,0.013109914027154446,-0.010482778772711754,-0.019968345761299133
1761413483749179000,10.177178955078125,0.016552049666643143,-0.0015023329760879278,-0.02338012121617794
1761413483759192000,10.187192138671875,0.01669348031282425,0.0017582420259714127,-0.0206705741584301
1761413483769206000,10.1972060546875,0.011109097860753536,0.00028498098254203796,-0.01808411255478859
1761413483779219000,10.207218994140625,0.007669394835829735,-0.006872821133583784,-0.0056338924914598465
1761413483789232000,10.217232177734376,0.007437966763973236,-0.009977001696825027,0.007283504121005535
1761413483799244800,10.227244873046875,0.007377459667623043,-0.008449721150100231,0.01736917346715927
1761413483809259000,10.237259033203125,0.006145747844129801,-0.003177727572619915,0.018705014139413834
1761413483819272000,10.24727197265625,0.0061988853849470615,-0.00029937736690044403,0.02376275137066841
1761413483829284900,10.257284912109375,0.0023117349483072758,0.00899532064795494,0.024636534973978996
1761413483839298000,10.267298095703126,-0.0011708077508956194,0.020082013681530952,0.025224177166819572
1761413483849311000,10.27731103515625,-0.006157044321298599,0.025740964338183403,0.02979123406112194
1761413483859325000,10.287324951171875,-0.00862845778465271,0.02584109827876091,0.018929796293377876
1761413483869338000,10.297338134765624,-0.014886213466525078,0.02664032019674778,0.01286244485527277
1761413483879350800,10.307350830078125,-0.011230473406612873,0.0290367528796196,0.0015537017025053501
1761413483889364000,10.317364013671876,-0.009478645399212837,0.02856404334306717,-0.002578192623332143
1761413483899378200,10.327378173828125,-0.00704478332772851,0.0207362100481987,-0.0006873483071103692
1761413483909390800,10.337390869140625,-0.0030500416178256273,0.008464897982776165,0.0028163064271211624
1761413483919404000,10.347404052734374,0.0040656933560967445,-0.0023798388428986073,0.01784627139568329
1761413483929417000,10.3574169921875,0.00152184150647372,0.008653370663523674,0.03571688383817673
1761413483939430000,10.367429931640626,-0.01175797637552023,-0.013721520081162453,0.037872061133384705
1761413483949444000,10.377444091796875,-0.024389082565903664,-0.05493739992380142,0.006628124043345451
1761413483959457000,10.38745703125,-0.02195342443883419,-0.06450624763965607,-0.01182415522634983
1761413483969470000,10.397469970703124,-0.019937146455049515,-0.06198769435286522,-0.0229543037712574
1761413483979483000,10.40748291015625,-0.01975814811885357,-0.038329318165779114,-0.021282222121953964
1761413483989496800,10.417496826171876,-0.026189148426055908,-0.010722190141677856,-0.011522001586854458
1761413483999510000,10.427510009765625,-0.033145662397146225,0.0263400599360466,-0.0015464259777218103
1761413484009523000,10.43752294921875,-0.029840147122740746,0.05949055776000023,0.013771810568869114
1761413484019536100,10.4475361328125,-0.013966783881187439,0.06914099305868149,0.018224429339170456
1761413484029548800,10.457548828125,-0.0010749541688710451,0.06448259204626083,0.011870128102600574
1761413484039563000,10.46756298828125,0.011310290545225143,0.05780920013785362,-0.003331183921545744
1761413484049576000,10.477575927734375,0.017443548887968063,0.03557420149445534,-0.01835673861205578
1761413484059588900,10.4875888671875,0.016216328367590904,0.012828700244426727,-0.021445946767926216
1761413484069602000,10.49760205078125,0.008339229971170425,-0.013728341087698936,-0.021866725757718086
1761413484079616000,10.507615966796875,0.004420427605509758,-0.025245685130357742,-0.011815158650279045
1761413484089629000,10.51762890625,0.0011292933486402035,-0.018480457365512848,-0.008704852312803268
1761413484099642000,10.52764208984375,0.0012866317993029952,-0.01850292459130287,-0.007214860524982214
1761413484109654800,10.53765478515625,-0.0026524497661739588,-0.009843123145401478,-0.009982417337596416
