time,seconds_elapsed,z,y,x
1761413674349884400,0.021884521484375,0.1791096329689026,-0.25779178738594055,-0.18693393468856812
1761413674359898600,0.031898681640625,0.1432192176580429,-0.2526409924030304,-0.22142928838729858
1761413674369911600,0.04191162109375,0.11192547529935837,-0.21783161163330078,-0.2442760169506073
1761413674379925500,0.051925537109375,0.08974095433950424,-0.14930295944213867,-0.2620168626308441
1761413674389938700,0.061938720703125,0.06895577907562256,-0.07376319169998169,-0.2735148072242737
1761413674399952400,0.071952392578125,0.04432779550552368,-0.010893216356635094,-0.28233352303504944
1761413674409965600,0.081965576171875,0.0230824276804924,0.037724122405052185,-0.29005536437034607
1761413674419979500,0.0919794921875,0.00027372734621167183,0.07310031354427338,-0.30414703488349915
1761413674429992400,0.101992431640625,-0.015738528221845627,0.09363462030887604,-0.3177504539489746
1761413674440006400,0.11200634765625,-0.02945287525653839,0.08901903033256531,-0.33357247710227966
1761413674450019600,0.12201953125,-0.040609121322631836,0.05963822826743126,-0.35306549072265625
1761413674460032500,0.132032470703125,-0.05854479596018791,0.007859972305595875,-0.3593159019947052
1761413674470046500,0.14204638671875,-0.0786852240562439,-0.07012590765953064,-0.3602812886238098
1761413674480059400,0.152059326171875,-0.09702208638191223,-0.14590519666671753,-0.35239240527153015
1761413674490073300,0.1620732421875,-0.11550761759281158,-0.21571730077266693,-0.33111852407455444
1761413674500086500,0.17208642578125,-0.1308056116104126,-0.2813306450843811,-0.287064790725708
1761413674510100500,0.1821005859375,-0.141815647482872,-0.33819445967674255,-0.228563129901886
1761413674520113400,0.192113525390625,-0.14900045096874237,-0.375529408454895,-0.15761326253414154
1761413674530127600,0.202127685546875,-0.13971960544586182,-0.3731299042701721,-0.08320560306310654
1761413674540140300,0.212140380859375,-0.11323799192905426,-0.32200947403907776,-0.01988065429031849
1761413674550154500,0.222154541015625,-0.07443307340145111,-0.22820335626602173,0.026353951543569565
1761413674560167400,0.23216748046875,-0.02946147695183754,-0.1088143140077591,0.05995817855000496
1761413674570181600,0.242181640625,0.012357608415186405,0.005065380595624447,0.06317475438117981
1761413674580194600,0.252194580078125,0.05453002452850342,0.08997996896505356,0.0370747372508049
1761413674590208500,0.26220849609375,0.08337126672267914,0.13967935740947723,0.0013231313787400723
1761413674600221400,0.272221435546875,0.11159577965736389,0.17512857913970947,-0.037804730236530304
1761413674610235400,0.2822353515625,0.13150131702423096,0.19864162802696228,-0.05252348631620407
1761413674620248600,0.29224853515625,0.1416095346212387,0.20348884165287018,-0.047719649970531464
1761413674630262300,0.30226220703125,0.14166732132434845,0.1765962392091751,-0.024304069578647614
1761413674640275500,0.312275390625,0.13342997431755066,0.12649567425251007,0.007102161645889282
1761413674650289400,0.322289306640625,0.12307800352573395,0.06266236305236816,0.050503697246313095
1761413674660302300,0.33230224609375,0.11138458549976349,-0.0013573579490184784,0.08196734637022018
1761413674670316500,0.342316650390625,0.10214101523160934,-0.0502745658159256,0.10889163613319397
1761413674680329500,0.35232958984375,0.09711910039186478,-0.0683145597577095,0.11389758437871933
1761413674690342400,0.36234228515625,0.09971728175878525,-0.06386175751686096,0.10189924389123917
1761413674700356600,0.372356689453125,0.1041732132434845,-0.04605761915445328,0.07591387629508972
1761413674710369500,0.38236962890625,0.10828273743391037,-0.014113267883658409,0.04450375586748123
1761413674720383500,0.392383544921875,0.11086594313383102,0.02913682721555233,0.018946103751659393
1761413674730396400,0.402396484375,0.11529504507780075,0.07079346477985382,-0.0050782738253474236
1761413674740410600,0.41241064453125,0.11228858679533005,0.09687020629644394,-0.024469951167702675
1761413674750423000,0.422423095703125,0.10442933440208435,0.112640380859375,-0.0325142964720726
1761413674760437000,0.43243701171875,0.09274758398532867,0.1218213364481926,-0.03290441632270813
1761413674770450000,0.442449951171875,0.08024030923843384,0.1243356242775917,-0.02791684679687023
1761413674780463900,0.4524638671875,0.06639301031827927,0.10792538523674011,-0.023666074499487877
1761413674790477000,0.46247705078125,0.05400398373603821,0.09185320883989334,-0.017147189006209373
1761413674800491000,0.472490966796875,0.03862043097615242,0.06386642158031464,-0.008458726108074188
1761413674810504000,0.48250390625,0.029798446223139763,0.029609376564621925,-0.003934281878173351
1761413674820518100,0.49251806640625,0.0224447101354599,0.006319546140730381,0.002910807030275464
1761413674830530800,0.50253076171875,0.021526452153921127,0.002170607913285494,0.008530610240995884
1761413674840545000,0.512544921875,0.027374019846320152,0.012198908254504204,0.014646393246948719
1761413674850558000,0.522557861328125,0.040261853486299515,0.02848094142973423,0.021258490160107613
1761413674860572200,0.532572265625,0.050081219524145126,0.034402597695589066,0.027401205152273178
1761413674870585000,0.542585205078125,0.05718919634819031,0.03851904347538948,0.043929580599069595
1761413674880599000,0.55259912109375,0.06377112865447998,0.04187352955341339,0.06456751376390457
1761413674890612000,0.562612060546875,0.06268509477376938,0.029035229235887527,0.08979111164808273
1761413674900626000,0.5726259765625,0.06092027947306633,0.013153903186321259,0.11773815751075745
1761413674910639000,0.58263916015625,0.05798441171646118,-0.004672498442232609,0.13872119784355164
1761413674920653000,0.592653076171875,0.05491844564676285,-0.028585219755768776,0.1576857715845108
1761413674930666000,0.602666015625,0.050877895206213,-0.050303295254707336,0.1611287146806717
1761413674940679200,0.61267919921875,0.052810557186603546,-0.057322729378938675,0.1566435545682907
1761413674950692900,0.62269287109375,0.061299651861190796,-0.0361279621720314,0.1505608856678009
1761413674960706000,0.6327060546875,0.06726685911417007,-0.016578296199440956,0.1379958987236023
1761413674970720000,0.642719970703125,0.0734989270567894,-0.002209477126598358,0.12474186718463898
1761413674980733000,0.65273291015625,0.07722900807857513,0.004800266586244106,0.11040151119232178
1761413674990747000,0.662746826171875,0.07449980080127716,0.0009035291150212288,0.10565655678510666
1761413675000760000,0.672760009765625,0.07016725093126297,-0.009747722186148167,0.11572776734828949
1761413675010774000,0.68277392578125,0.06551417708396912,-0.019814470782876015,0.13487723469734192
1761413675020787000,0.692786865234375,0.06640826165676117,-0.03308709338307381,0.1519635021686554
1761413675030801200,0.70280126953125,0.07108796387910843,-0.0507931187748909,0.17625792324543
1761413675040813800,0.712813720703125,0.07919228821992874,-0.06502354890108109,0.1978842318058014
1761413675050828000,0.722828125,0.08259181678295135,-0.06121949106454849,0.22185161709785461
1761413675060841000,0.732841064453125,0.0896846130490303,-0.04670420289039612,0.2401144951581955
1761413675070855000,0.74285498046875,0.09160315245389938,-0.017853381112217903,0.2524329721927643
1761413675080868000,0.7528681640625,0.09740491956472397,0.01646321453154087,0.2575601637363434
1761413675090882000,0.762882080078125,0.10398133099079132,0.05269046127796173,0.2584264874458313
1761413675100895000,0.77289501953125,0.11203199625015259,0.1002088189125061,0.25895848870277405
1761413675110909000,0.782908935546875,0.11707362532615662,0.12347392737865448,0.25547587871551514
1761413675120922000,0.792922119140625,0.11642495542764664,0.12172478437423706,0.24539925158023834
1761413675130935800,0.802935791015625,0.12145593017339706,0.0912126824259758,0.24118080735206604
1761413675140949000,0.812948974609375,0.12290795147418976,0.03615092858672142,0.242187038064003
1761413675150963000,0.822962890625,0.11188007146120071,-0.019579444080591202,0.2349104881286621
1761413675160976000,0.832975830078125,0.10051149874925613,-0.0676102563738823,0.22240819036960602
1761413675170990000,0.842989990234375,0.09215130656957626,-0.08688594400882721,0.21185700595378876
1761413675181003000,0.8530029296875,0.08844897896051407,-0.09625095129013062,0.1917480081319809
1761413675191017000,0.863016845703125,0.081150583922863,-0.09943769127130508,0.1799507439136505
1761413675201030000,0.87302978515625,0.0731336697936058,-0.08952819555997849,0.17118880152702332
1761413675211044000,0.883044189453125,0.07110566645860672,-0.056677572429180145,0.1764855682849884
1761413675221057000,0.89305712890625,0.06985224783420563,-0.02580813691020012,0.1731489598751068
1761413675231070000,0.903070068359375,0.06657629460096359,0.00687364349141717,0.14573384821414948
1761413675241084200,0.913084228515625,0.06897914409637451,0.060445450246334076,0.09544197469949722
1761413675251097000,0.92309716796875,0.07659045606851578,0.11857347190380096,0.03857309743762016
1761413675261111000,0.933111083984375,0.08033031225204468,0.1564917117357254,-0.02621455304324627
1761413675271124000,0.9431240234375,0.07940113544464111,0.1777796894311905,-0.0829436182975769
1761413675281138000,0.953137939453125,0.07125247269868851,0.1792668104171753,-0.12890128791332245
1761413675291151000,0.963151123046875,0.06497060507535934,0.16507641971111298,-0.16492480039596558
1761413675301165000,0.9731650390625,0.05990174040198326,0.14119358360767365,-0.18013714253902435
1761413675311178000,0.983177978515625,0.0553344190120697,0.10635250061750412,-0.18171292543411255
1761413675321192000,0.99319189453125,0.051491629332304,0.06852167844772339,-0.17661744356155396
1761413675331204900,1.003204833984375,0.04884684458374977,0.032402828335762024,-0.16456717252731323
1761413675341219000,1.013218994140625,0.04387238994240761,0.007254232652485371,-0.14971302449703217
1761413675351232000,1.02323193359375,0.0426366813480854,0.002085302956402302,-0.14616622030735016
1761413675361246200,1.03324609375,0.04027052968740463,0.015854813158512115,-0.14487981796264648
1761413675371259000,1.0432587890625,0.04406313970685005,0.027903754264116287,-0.14638076722621918
1761413675381273000,1.053273193359375,0.05052303150296211,0.041022155433893204,-0.16185632348060608
1761413675391286000,1.0632861328125,0.06440155953168869,0.03845459967851639,-0.1783311814069748
1761413675401300000,1.073300048828125,0.07473667711019516,0.03228043392300606,-0.2063770443201065
1761413675411313200,1.083313232421875,0.08877553045749664,0.026914965361356735,-0.23351332545280457
1761413675421326800,1.093326904296875,0.10763949900865555,0.03860611096024513,-0.25048524141311646
1761413675431340000,1.103340087890625,0.11994063854217529,0.053907837718725204,-0.25922226905822754
1761413675441354000,1.11335400390625,0.12479107826948166,0.07058720290660858,-0.26254668831825256
1761413675451367000,1.123366943359375,0.12720681726932526,0.09435804933309555,-0.25267380475997925
1761413675461380000,1.133380126953125,0.12792600691318512,0.11551585793495178,-0.23668880760669708
1761413675471394000,1.14339404296875,0.12087582051753998,0.11244230717420578,-0.21766157448291779
1761413675481407000,1.153406982421875,0.1175273060798645,0.10496488213539124,-0.2029201239347458
1761413675491421000,1.1634208984375,0.11476507037878036,0.10579046607017517,-0.19144189357757568
1761413675501434000,1.17343408203125,0.11795173585414886,0.10815691947937012,-0.17552094161510468
1761413675511447800,1.18344775390625,0.1305982917547226,0.11373943835496902,-0.16451862454414368
1761413675521461000,1.1934609375,0.1425260454416275,0.11953408271074295,-0.1626305878162384
1761413675531475000,1.203474853515625,0.15925735235214233,0.11667784303426743,-0.15198779106140137
1761413675541487900,1.21348779296875,0.17249387502670288,0.10843711346387863,-0.13275007903575897
1761413675551502000,1.223502197265625,0.1846562623977661,0.10905789583921432,-0.10257327556610107
1761413675561515000,1.233514892578125,0.19266799092292786,0.09977497160434723,-0.06920818984508514
1761413675571529000,1.243529052734375,0.19594049453735352,0.09021049737930298,-0.0362774059176445
1761413675581542000,1.2535419921875,0.192493736743927,0.07937966287136078,-0.006233988329768181
1761413675591556000,1.26355615234375,0.1846347600221634,0.06344597041606903,0.018604781478643417
1761413675601569000,1.273569091796875,0.16998665034770966,0.06184864044189453,0.030926663428544998
1761413675611583000,1.2835830078125,0.15594299137592316,0.07267039269208908,0.03713129460811615
1761413675621596200,1.29359619140625,0.14034931361675262,0.07533832639455795,0.025927675887942314
1761413675631609900,1.30360986328125,0.12670780718326569,0.06315942108631134,0.001566143473610282
1761413675641623000,1.313623046875,0.11286430060863495,0.039117395877838135,-0.0342160239815712
1761413675651637000,1.323636962890625,0.10575339198112488,0.016835791990160942,-0.06086307764053345
1761413675661650000,1.33364990234375,0.09958784282207489,0.009072243236005306,-0.07960118353366852
1761413675671663900,1.343663818359375,0.09306283295154572,0.005839698016643524,-0.0781249925494194
1761413675681677000,1.353677001953125,0.08829157799482346,-0.003252166323363781,-0.0632399469614029
1761413675691691000,1.36369091796875,0.08286778628826141,-0.012216899544000626,-0.041302427649497986
1761413675701704000,1.373703857421875,0.07537951320409775,-0.016262643039226532,-0.019823631271719933
1761413675711718100,1.38371826171875,0.06894905120134354,-0.023022014647722244,-0.0052446890622377396
1761413675721731000,1.39373095703125,0.06505297124385834,-0.012528421357274055,0.00036425981670618057
1761413675731745000,1.4037451171875,0.06489664316177368,0.009859975427389145,0.0033003946300596
1761413675741758200,1.41375830078125,0.06309135258197784,0.030911900103092194,0.0033612146507948637
1761413675751771100,1.423771240234375,0.0638389065861702,0.056611668318510056,-0.006966523826122284
1761413675761785300,1.433785400390625,0.06294794380664825,0.07299669831991196,-0.02194247581064701
1761413675771798000,1.443798095703125,0.06410588324069977,0.07209281623363495,-0.03528065234422684
1761413675781812200,1.453812255859375,0.0572596974670887,0.06096666678786278,-0.04823959246277809
1761413675791825200,1.4638251953125,0.05815984308719635,0.043810319155454636,-0.0533352866768837
1761413675801839000,1.473839111328125,0.05695604160428047,0.035008128732442856,-0.05498894304037094
1761413675811852300,1.483852294921875,0.05872384458780289,0.024542706087231636,-0.04601301997900009
1761413675821866200,1.4938662109375,0.05881032347679138,0.0012241736985743046,-0.03445873409509659
1761413675831879200,1.503879150390625,0.05844946578145027,-0.032247234135866165,-0.023422064259648323
1761413675841893000,1.51389306640625,0.05470279976725578,-0.06723245233297348,-0.013108371756970882
1761413675851906000,1.523906005859375,0.045158565044403076,-0.09597274661064148,-0.01399813313037157
1761413675861920000,1.533919921875,0.03655387833714485,-0.11463218182325363,-0.021172158420085907
1761413675871933200,1.54393310546875,0.02703254669904709,-0.11790920794010162,-0.03255131468176842
1761413675881947100,1.553947021484375,0.026293734088540077,-0.11458269506692886,-0.05348531901836395
1761413675891960000,1.5639599609375,0.02912760339677334,-0.09342760592699051,-0.0691729336977005
1761413675901974300,1.573974365234375,0.03199894353747368,-0.0693071112036705,-0.0846802219748497
1761413675911987000,1.583987060546875,0.03353052958846092,-0.0443120151758194,-0.085881307721138
1761413675922001200,1.594001220703125,0.031057987362146378,-0.0228179469704628,-0.076810821890831
1761413675932014300,1.604014404296875,0.024921266362071037,-0.0006079818122088909,-0.056954555213451385
1761413675942028000,1.614028076171875,0.020631233230233192,0.022926416248083115,-0.040181469172239304
1761413675952041200,1.624041259765625,0.01791401021182537,0.03849658742547035,-0.02637351304292679
1761413675962055200,1.63405517578125,0.007443194277584553,0.039132919162511826,-0.01748824119567871
1761413675972068000,1.644068115234375,0.004664984531700611,0.04253483936190605,-0.020836099982261658
1761413675982082000,1.65408203125,0.001886985031887889,0.05796928331255913,-0.02277391590178013
1761413675992095200,1.66409521484375,0.0026971185579895973,0.07322386652231216,-0.030033426359295845
1761413676002108200,1.674108154296875,-0.002240845002233982,0.08219209313392639,-0.0349656343460083
1761413676012122000,1.6841220703125,-0.006445176899433136,0.07774434238672256,-0.0377289280295372
1761413676022135300,1.69413525390625,-0.013857375830411911,0.06970877200365067,-0.044964972883462906
1761413676032149000,1.70414892578125,-0.016651296988129616,0.07615575939416885,-0.044181469827890396
1761413676042162200,1.714162109375,-0.020727327093482018,0.07505103945732117,-0.03991185873746872
1761413676052176100,1.724176025390625,-0.022835219278931618,0.06271527707576752,-0.037952303886413574
1761413676062189000,1.73418896484375,-0.02206156589090824,0.052726954221725464,-0.037866950035095215
1761413676072203300,1.744203369140625,-0.02258727326989174,0.03587393835186958,-0.04402763769030571
1761413676082216200,1.75421630859375,-0.02122865431010723,0.018581029027700424,-0.044291093945503235
1761413676092230100,1.764230224609375,-0.01887069270014763,0.009336131624877453,-0.04626715928316116
1761413676102243000,1.7742431640625,-0.01921737939119339,0.01426848117262125,-0.041094399988651276
1761413676112257300,1.78425732421875,-0.016592301428318024,0.03210446983575821,-0.035735055804252625
1761413676122270200,1.794270263671875,-0.01449666079133749,0.04366764798760414,-0.025872305035591125
1761413676132284200,1.8042841796875,-0.012798083014786243,0.047896336764097214,-0.018797483295202255
1761413676142297300,1.81429736328125,-0.008697879500687122,0.0494910404086113,-0.009260437451303005
1761413676152311000,1.82431103515625,-0.010729871690273285,0.050678275525569916,-0.005302181001752615
1761413676162324200,1.83432421875,-0.007644263561815023,0.03977905586361885,-0.004147999454289675
1761413676172338200,1.844338134765625,-0.0015315099153667688,0.015913933515548706,-0.006169072352349758
1761413676182351000,1.85435107421875,0.001317343208938837,-0.006484550889581442,-0.0032297736033797264
1761413676192365000,1.864364990234375,0.006638871971517801,-0.025895265862345695,0.009068704210221767
1761413676202378200,1.874378173828125,0.008322710171341896,-0.037984978407621384,0.028241097927093506
1761413676212392200,1.88439208984375,0.01105724461376667,-0.045566994696855545,0.04678948223590851
1761413676222405000,1.894405029296875,0.01191504392772913,-0.05333663150668144,0.06289667636156082
1761413676232419300,1.90441943359375,0.008084885776042938,-0.05758623778820038,0.07074049115180969
1761413676242432000,1.914431884765625,-0.00008973994408734143,-0.05759081244468689,0.06954583525657654
1761413676252445200,1.924445068359375,-0.008653933182358742,-0.05741584300994873,0.0629662275314331
1761413676262459100,1.934459228515625,-0.010550513863563538,-0.0556626059114933,0.054895710200071335
1761413676272472000,1.94447216796875,-0.008701215498149395,-0.05872523784637451,0.04793500900268555
1761413676282486300,1.954486328125,-0.0062407818622887135,-0.060006529092788696,0.04495149850845337
1761413676292499000,1.9644990234375,-0.005625058896839619,-0.05230919271707535,0.04781493544578552
1761413676302513200,1.97451318359375,-0.005336863920092583,-0.04073717072606087,0.0582323856651783
1761413676312526300,1.9845263671875,-0.007697755936533213,-0.03135831654071808,0.0710240826010704
1761413676322540000,1.9945400390625,-0.00817364826798439,-0.030007172375917435,0.08102039247751236
1761413676332553200,2.00455322265625,-0.004524850752204657,-0.03293505311012268,0.09456975758075714
1761413676342567200,2.014567138671875,0.0015365690924227238,-0.04094274342060089,0.10392793267965317
1761413676352580000,2.024580078125,0.014064079150557518,-0.04954129084944725,0.11457205563783646
1761413676362594000,2.034593994140625,0.022169223055243492,-0.05261934921145439,0.12171648442745209
1761413676372607200,2.044607177734375,0.031513724476099014,-0.052765026688575745,0.12286697328090668
1761413676382621000,2.054620849609375,0.04009568318724632,-0.05019709840416908,0.12020744383335114
1761413676392634000,2.064634033203125,0.042158834636211395,-0.0531766451895237,0.11203952878713608
1761413676402648300,2.0746484375,0.041554711759090424,-0.057658422738313675,0.1065397709608078
1761413676412661000,2.084660888671875,0.03507763892412186,-0.058801718056201935,0.09725732356309891
1761413676422675200,2.09467529296875,0.029212944209575653,-0.04969269782304764,0.09255291521549225
1761413676432688000,2.104688232421875,0.01961491070687771,-0.03439336642622948,0.08529899269342422
1761413676442702000,2.1147021484375,0.017625004053115845,-0.012397529557347298,0.07814280688762665
1761413676452715300,2.12471533203125,0.02048736996948719,0.010761585086584091,0.06933200359344482
1761413676462729200,2.134729248046875,0.0232390183955431,0.03549172729253769,0.06040852144360542
1761413676472742100,2.1447421875,0.026448126882314682,0.046305228024721146,0.0510786697268486
1761413676482756000,2.154756103515625,0.030787473544478416,0.051493871957063675,0.04418507590889931
1761413676492769300,2.164769287109375,0.03406582400202751,0.04663999751210213,0.033939894288778305
1761413676502783000,2.174782958984375,0.04026046022772789,0.035523366183042526,0.030904226005077362
1761413676512796200,2.184796142578125,0.04266849160194397,0.028542686253786087,0.02745383232831955
1761413676522809300,2.194809326171875,0.04251418262720108,0.019966429099440575,0.02391216531395912
1761413676532823000,2.204822998046875,0.04135570675134659,0.011471478268504143,0.023628540337085724
1761413676542836200,2.214836181640625,0.0372496135532856,0.001842712052166462,0.014732113108038902
1761413676552850200,2.22485009765625,0.03643229231238365,-0.014248372986912727,0.008656910620629787
1761413676562863000,2.234863037109375,0.03603588789701462,-0.03773646801710129,0.003221731400117278
1761413676572877000,2.244876953125,0.03503533825278282,-0.049630675464868546,-0.008805636316537857
1761413676582890200,2.25489013671875,0.035813990980386734,-0.05676598846912384,-0.014837263152003288
1761413676592904200,2.264904296875,0.03063068352639675,-0.060591623187065125,-0.016618918627500534
1761413676602917000,2.274917236328125,0.02367476373910904,-0.04701881483197212,-0.0179305262863636
1761413676612931300,2.284931396484375,0.01663389801979065,-0.024586742743849754,-0.012766390107572079
1761413676622944000,2.294944091796875,0.013341632671654224,0.005406675860285759,-0.0022011969704180956
1761413676632958200,2.304958251953125,0.008533029817044735,0.0395641103386879,0.00071336654946208
1761413676642971100,2.31497119140625,0.003470757743343711,0.06683148443698883,0.00294662662781775
1761413676652985000,2.324985107421875,-0.0028204277623444796,0.0757533460855484,0.00013858964666724205
1761413676662998300,2.334998291015625,-0.011581485159695148,0.06860711425542831,-0.003471157979220152
1761413676673012200,2.34501220703125,-0.018565891310572624,0.0577014684677124,-0.006523673422634602
1761413676683025200,2.355025146484375,-0.025546777993440628,0.04130029305815697,-0.007961148396134377
1761413676693039000,2.3650390625,-0.023792289197444916,0.024846486747264862,-0.010830171406269073
1761413676703052000,2.375052001953125,-0.02828117646276951,0.0051858993247151375,-0.020962368696928024
1761413676713066000,2.38506591796875,-0.036323923617601395,-0.012193623930215836,-0.026218915358185768
1761413676723079200,2.3950791015625,-0.04120935872197151,-0.018266230821609497,-0.04485032334923744
1761413676733093400,2.40509326171875,-0.04853465035557747,-0.01383206807076931,-0.0622309111058712
1761413676743106000,2.41510595703125,-0.05581318587064743,-0.00942821055650711,-0.07609059661626816
1761413676753120000,2.4251201171875,-0.05859645456075668,-0.011010395362973213,-0.08740264177322388
1761413676763133000,2.4351328125,-0.06089078634977341,-0.0161268450319767,-0.09038831293582916
1761413676773147000,2.44514697265625,-0.06151369959115982,-0.02119137905538082,-0.08945407718420029
1761413676783160000,2.45516015625,-0.06334948539733887,-0.032122619450092316,-0.08494238555431366
1761413676793173800,2.465173828125,-0.061233337968587875,-0.035022005438804626,-0.0745169073343277
1761413676803187000,2.47518701171875,-0.059483375400304794,-0.0348435714840889,-0.06677056849002838
1761413676813200000,2.485199951171875,-0.05844820290803909,-0.04705416411161423,-0.06486081331968307
1761413676823213800,2.4952138671875,-0.05888482555747032,-0.05709728226065636,-0.06805441528558731
1761413676833227000,2.50522705078125,-0.053859975188970566,-0.06969323754310608,-0.062234073877334595
1761413676843241000,2.515240966796875,-0.053826745599508286,-0.0822809711098671,-0.06033174693584442
1761413676853254000,2.52525390625,-0.058169830590486526,-0.08339949697256088,-0.051629066467285156
1761413676863267800,2.535267822265625,-0.06045036390423775,-0.07120837271213531,-0.050519030541181564
1761413676873280800,2.54528076171875,-0.060852766036987305,-0.04962718486785889,-0.047147467732429504
1761413676883294700,2.555294677734375,-0.05984988808631897,-0.02365061081945896,-0.04418746381998062
1761413676893308000,2.565307861328125,-0.06511815637350082,-0.005810893606394529,-0.042884644120931625
1761413676903321900,2.57532177734375,-0.07101751863956451,0.0009097610600292683,-0.040165722370147705
1761413676913334800,2.585334716796875,-0.07609137147665024,0.0051290071569383144,-0.03552223742008209
1761413676923349000,2.595348876953125,-0.07805444300174713,0.01680745556950569,-0.03661729022860527
1761413676933361700,2.605361572265625,-0.07388073205947876,0.034946508705616,-0.041814181953668594
1761413676943376000,2.6153759765625,-0.06821168959140778,0.05280861258506775,-0.044606778770685196
1761413676953389000,2.62538916015625,-0.06266006082296371,0.05411968752741814,-0.05160396918654442
1761413676963402800,2.63540283203125,-0.062857985496521,0.05760879069566727,-0.055788956582546234
1761413676973416000,2.645416015625,-0.06163133680820465,0.05643460154533386,-0.052907951176166534
1761413676983430000,2.655429931640625,-0.06750934571027756,0.052894141525030136,-0.051838357001543045
1761413676993442800,2.66544287109375,-0.06734929233789444,0.041925378143787384,-0.051127560436725616
1761413677003456800,2.675456787109375,-0.06863725185394287,0.03478393703699112,-0.05115748569369316
1761413677013470000,2.685469970703125,-0.06715014576911926,0.028569450601935387,-0.050837110728025436
1761413677023483600,2.695483642578125,-0.06262488663196564,0.026089370250701904,-0.058844566345214844
1761413677033496800,2.705496826171875,-0.05951591581106186,0.022556155920028687,-0.06516958028078079
1761413677043511000,2.715510986328125,-0.05839812755584717,0.02673349529504776,-0.06845075637102127
1761413677053523700,2.725523681640625,-0.053981274366378784,0.03960349038243294,-0.06489117443561554
1761413677063538000,2.735537841796875,-0.05436542257666588,0.05105926841497421,-0.061381325125694275
1761413677073550800,2.74555078125,-0.051579490303993225,0.05732302367687225,-0.05792135000228882
1761413677083564800,2.755564697265625,-0.047983504831790924,0.06136301904916763,-0.06117516756057739
1761413677093578000,2.765577880859375,-0.04617016017436981,0.060292162001132965,-0.05954371765255928
1761413677103591000,2.7755908203125,-0.03954822197556496,0.06110643222928047,-0.05686577409505844
1761413677113604900,2.78560498046875,-0.03290842846035957,0.054265834391117096,-0.05500875040888786
1761413677123617800,2.79561767578125,-0.023163707926869392,0.0418567880988121,-0.049100495874881744
1761413677133632000,2.805632080078125,-0.01439072284847498,0.030514653772115707,-0.04598752781748772
1761413677143645000,2.81564501953125,-0.0023349288385361433,0.009965939447283745,-0.03400380164384842
1761413677153659000,2.825658935546875,0.002048368100076914,-0.003674239618703723,-0.021222492679953575
1761413677163672000,2.835672119140625,0.008809194900095463,-0.014987941831350327,-0.010663525201380253
1761413677173685800,2.845685791015625,0.009942902252078056,-0.018283603712916374,0.0026285783387720585
1761413677183699000,2.855698974609375,0.010566217824816704,-0.015607994049787521,0.008705979213118553
1761413677193713000,2.865712890625,0.004641749896109104,-0.013067338615655899,0.010474051348865032
1761413677203725800,2.875725830078125,-0.003025743877515197,-0.012062937952578068,0.003119067754596472
1761413677213739800,2.88573974609375,-0.008823978714644909,-0.018016701564192772,-0.008345307782292366
1761413677223753000,2.8957529296875,-0.01902121864259243,-0.017330540344119072,-0.015297622419893742
1761413677233767000,2.905766845703125,-0.020185019820928574,-0.014806129969656467,-0.01910381019115448
1761413677243779800,2.91577978515625,-0.023255910724401474,-0.01503622718155384,-0.019445760175585747
1761413677253794000,2.9257939453125,-0.027011767029762268,-0.018969183787703514,-0.01928011141717434
1761413677263806700,2.935806640625,-0.03174540773034096,-0.027621589601039886,-0.01659238710999489
1761413677273821000,2.945821044921875,-0.03542802482843399,-0.025988006964325905,-0.014442415907979012
1761413677283833900,2.955833740234375,-0.03461277112364769,-0.018695570528507233,-0.00949309766292572
1761413677293847800,2.965847900390625,-0.03574860841035843,-0.009803809225559235,-0.001204275293275714
1761413677303861000,2.975861083984375,-0.041402027010917664,0.0017172540538012981,0.0011891419999301434
1761413677313875000,2.985875,-0.042379673570394516,0.011250038631260395,-0.00048651895485818386
1761413677323887900,2.995887939453125,-0.04618494212627411,0.017735710367560387,-0.004363616928458214
1761413677333901800,3.00590185546875,-0.05279384180903435,0.01486668735742569,-0.01962060108780861
1761413677343914800,3.015914794921875,-0.05925093591213226,0.009301343932747841,-0.03204943984746933
1761413677353928700,3.0259287109375,-0.06577861309051514,0.0038242866285145283,-0.04871976375579834
1761413677363942000,3.03594189453125,-0.07070513069629669,-0.0021187858656048775,-0.06515256315469742
1761413677373955800,3.045955810546875,-0.07015359401702881,-0.0077002388425171375,-0.07894773781299591
1761413677383968800,3.05596875,-0.06819936633110046,-0.015851110219955444,-0.07973017543554306
1761413677393983000,3.06598291015625,-0.059183765202760696,-0.040107980370521545,-0.0901053175330162
1761413677403995600,3.07599560546875,-0.056702956557273865,-0.07210676372051239,-0.10514728724956512
1761413677414008800,3.0860087890625,-0.0540216863155365,-0.12055791914463043,-0.11641059070825577
1761413677424023000,3.09602294921875,-0.06505837291479111,-0.15901142358779907,-0.12479914724826813
1761413677434035700,3.10603564453125,-0.07167499512434006,-0.1669047772884369,-0.11323543637990952
1761413677444050000,3.1160498046875,-0.07546428591012955,-0.14913541078567505,-0.09225339442491531
1761413677454062800,3.126062744140625,-0.0849778950214386,-0.12054159492254257,-0.06874273717403412
1761413677464076800,3.136076904296875,-0.0941140428185463,-0.09155227243900299,-0.045650236308574677
1761413677474090000,3.146090087890625,-0.10574912279844284,-0.057145025581121445,-0.023800596594810486
1761413677484104000,3.15610400390625,-0.10919567197561264,-0.02210334502160549,-0.007393196225166321
1761413677494116900,3.166116943359375,-0.10835464298725128,0.02321779727935791,0.00211135926656425
1761413677504130800,3.176130859375,-0.10398166626691818,0.06693055480718613,0.008664433844387531
1761413677514144000,3.18614404296875,-0.10337845981121063,0.10285233706235886,0.014498620294034481
1761413677524157700,3.19615771484375,-0.10587736964225769,0.11933274567127228,0.01520678773522377
1761413677534171000,3.2061708984375,-0.10315694659948349,0.10942365229129791,0.01369810663163662
1761413677544184800,3.216184814453125,-0.1034437045454979,0.08150296658277512,0.01389448344707489
1761413677554197800,3.22619775390625,-0.11217700690031052,0.045341506600379944,0.018933715298771858
1761413677564212000,3.2362119140625,-0.12174107879400253,0.013840898871421814,0.027100499719381332
1761413677574225000,3.246224853515625,-0.13273540139198303,-0.01500379852950573,0.03362231329083443
1761413677584238800,3.25623876953125,-0.13816359639167786,-0.04211696982383728,0.0268345158547163
1761413677594251800,3.266251708984375,-0.13900594413280487,-0.06347179412841797,0.017536088824272156
1761413677604266000,3.276265869140625,-0.13090188801288605,-0.08637721091508865,0.0013295221142470837
1761413677614279000,3.28627880859375,-0.12195020914077759,-0.11777933686971664,-0.016473710536956787
1761413677624292900,3.29629296875,-0.1177375465631485,-0.14994177222251892,-0.03261809051036835
1761413677634306000,3.30630615234375,-0.10964339971542358,-0.1722566783428192,-0.04545293003320694
1761413677644319700,3.31631982421875,-0.10425937175750732,-0.1891961246728897,-0.04624532163143158
1761413677654333000,3.3263330078125,-0.10094000399112701,-0.19661782681941986,-0.03999754786491394
1761413677664347000,3.336346923828125,-0.0966256707906723,-0.20972271263599396,-0.02326170727610588
1761413677674359800,3.34635986328125,-0.09382961690425873,-0.21561522781848907,-0.004325833171606064
1761413677684373800,3.356373779296875,-0.08758556842803955,-0.2026728093624115,0.018974697217345238
1761413677694387000,3.366386962890625,-0.07830765098333359,-0.17935949563980103,0.03158583119511604
1761413677704401000,3.37640087890625,-0.06409336626529694,-0.14556187391281128,0.036307379603385925
1761413677714413800,3.386413818359375,-0.055783241987228394,-0.11186596006155014,0.031249236315488815
1761413677724428000,3.396427978515625,-0.049458350986242294,-0.08455518633127213,0.01632721722126007
1761413677734440700,3.406440673828125,-0.04318847134709358,-0.052719224244356155,0.008285002782940865
1761413677744454000,3.416453857421875,-0.04150942340493202,-0.027260493487119675,-0.0003492012619972229
1761413677754467800,3.4264677734375,-0.03789098560810089,-0.013462924398481846,-0.004968986846506596
1761413677764481000,3.43648095703125,-0.03577715903520584,-0.005536533892154694,-0.0013306066393852234
1761413677774495200,3.4464951171875,-0.031688142567873,-0.013896197080612183,0.001448668073862791
1761413677784508000,3.4565078125,-0.030038196593523026,-0.02207375317811966,0.003822407452389598
1761413677794522000,3.466522216796875,-0.02362317405641079,-0.02070142701268196,0.01129923202097416
1761413677804535000,3.47653515625,-0.019344326108694077,-0.01340227946639061,0.016848230734467506
1761413677814549000,3.486549072265625,-0.011340460740029812,-0.007273546420037746,0.023520514369010925
1761413677824562200,3.496562255859375,-0.0011138087138533592,0.0028164549730718136,0.027068573981523514
1761413677834576100,3.506576171875,0.007087129633873701,0.0146065354347229,0.028898699209094048
1761413677844589000,3.516589111328125,0.015414315275847912,0.02380947582423687,0.023559460416436195
1761413677854603000,3.52660302734375,0.019489483907818794,0.02705160714685917,0.01450791023671627
1761413677864616000,3.536615966796875,0.02265222556889057,0.02710542641580105,-0.00011524162255227566
1761413677874630000,3.5466298828125,0.021527839824557304,0.021842489019036293,-0.015330146998167038
1761413677884643000,3.55664306640625,0.016013773158192635,0.01073496788740158,-0.021521463990211487
1761413677894657000,3.566656982421875,0.013992168940603733,-0.01346464455127716,-0.017728324979543686
1761413677904670000,3.576669921875,0.015066566877067089,-0.035220783203840256,-0.009031538851559162
1761413677914684200,3.58668408203125,0.013878264464437962,-0.05221228301525116,0.008859843015670776
1761413677924696800,3.59669677734375,0.010186594910919666,-0.054869454354047775,0.02473028562963009
1761413677934711000,3.6067109375,0.0067678955383598804,-0.037718430161476135,0.03456107899546623
1761413677944724000,3.616723876953125,-0.0028206766583025455,-0.01280396617949009,0.0337761826813221
1761413677954738200,3.62673828125,-0.019724559038877487,0.019012287259101868,0.026432247832417488
1761413677964751000,3.636751220703125,-0.038251519203186035,0.05861743539571762,0.01107625849545002
1761413677974765000,3.64676513671875,-0.053241923451423645,0.0924379825592041,-0.010095605626702309
1761413677984778000,3.656778076171875,-0.06702617555856705,0.12041901051998138,-0.030470119789242744
1761413677994792000,3.6667919921875,-0.07551473379135132,0.14868074655532837,-0.04355529323220253
1761413678004805000,3.67680517578125,-0.0806305930018425,0.16494137048721313,-0.0465584397315979
1761413678014819000,3.686819091796875,-0.08658994734287262,0.1588994562625885,-0.03808186203241348
1761413678024832000,3.69683203125,-0.0868203192949295,0.13690482079982758,-0.03088347613811493
1761413678034846000,3.706845947265625,-0.08501230180263519,0.10744386166334152,-0.019737880676984787
1761413678044859000,3.71685888671875,-0.08281612396240234,0.08053534477949142,-0.005157405510544777
1761413678054873000,3.726873046875,-0.07599683105945587,0.061400532722473145,0.0024443212896585464
1761413678064886000,3.736885986328125,-0.06659533828496933,0.05144057795405388,0.004847824107855558
1761413678074900200,3.746900146484375,-0.057726215571165085,0.04689376428723335,0.0062001775950193405
1761413678084913000,3.756912841796875,-0.048124801367521286,0.046788278967142105,0.005691014230251312
1761413678094927000,3.766927001953125,-0.04232683405280113,0.050824299454689026,0.0036707406397908926
1761413678104940000,3.77693994140625,-0.038534361869096756,0.060271669179201126,-0.0006361898267641664
1761413678114954000,3.7869541015625,-0.03754127025604248,0.07096904516220093,0.0003616965841501951
1761413678124967200,3.79696728515625,-0.03727705776691437,0.07710668444633484,-0.003065125783905387
1761413678134980900,3.80698095703125,-0.035409118980169296,0.08149584382772446,-0.008578135631978512
1761413678144994000,3.816994140625,-0.029988525435328484,0.08367258310317993,-0.009639006108045578
1761413678155007200,3.82700732421875,-0.019639214500784874,0.0695572942495346,-0.009835547767579556
1761413678165021000,3.83702099609375,-0.007430211175233126,0.04438402131199837,-0.01235729269683361
1761413678175034000,3.8470341796875,0.005706363823264837,0.014765412546694279,-0.015436173416674137
1761413678185048000,3.857048095703125,0.017171140760183334,-0.020237646996974945,-0.01965029165148735
1761413678195061000,3.86706103515625,0.02628900483250618,-0.050442688167095184,-0.017463304102420807
1761413678205075000,3.877074951171875,0.026487402617931366,-0.07312296330928802,-0.012268545106053352
1761413678215088000,3.887088134765625,0.020390095189213753,-0.08852775394916534,-0.00783624593168497
1761413678225101800,3.897101806640625,0.011039933189749718,-0.09144526720046997,-0.0024523662868887186
1761413678235115000,3.907114990234375,-0.003619436640292406,-0.08623506128787994,-0.005289165303111076
1761413678245129200,3.917129150390625,-0.015851275995373726,-0.08111083507537842,-0.007361404597759247
1761413678255142000,3.927141845703125,-0.03565081208944321,-0.06563733518123627,-0.01651628687977791
1761413678265156000,3.937156005859375,-0.052678462117910385,-0.05044211074709892,-0.028696022927761078
1761413678275169000,3.9471689453125,-0.06441155076026917,-0.03292809799313545,-0.04192261025309563
1761413678285183000,3.957182861328125,-0.07176439464092255,-0.019764168187975883,-0.059734031558036804
1761413678295196200,3.967196044921875,-0.07414978742599487,-0.008267834782600403,-0.07266128063201904
1761413678305210000,3.977210205078125,-0.0747041255235672,0.002260911278426647,-0.08209839463233948
1761413678315223000,3.98722314453125,-0.07311981171369553,0.0024582515470683575,-0.0827745720744133
1761413678325237000,3.997237060546875,-0.06702544540166855,0.0011832676827907562,-0.08408204466104507
1761413678335250200,4.007250244140625,-0.057236991822719574,-0.0007099737413227558,-0.0786803588271141
1761413678345263900,4.017263916015625,-0.0442223846912384,-0.005937629844993353,-0.06376172602176666
1761413678355277000,4.027277099609375,-0.032687436789274216,-0.012751061469316483,-0.04929144307971001
1761413678365291000,4.037291015625,-0.019455531612038612,-0.021593013778328896,-0.030879680067300797
1761413678375304000,4.047303955078125,-0.00825081393122673,-0.02775769867002964,-0.01345195434987545
1761413678385318100,4.057318115234375,0.0018411132041364908,-0.02300962619483471,0.001846908126026392
1761413678395331000,4.0673310546875,0.008363193832337856,-0.01668541692197323,0.01069259736686945
1761413678405345000,4.077344970703125,0.015078149735927582,-0.010676754638552666,0.008680013008415699
1761413678415358000,4.08735791015625,0.014789196662604809,-0.005717150401324034,0.000683339312672615
1761413678425372200,4.0973720703125,0.01363405305892229,0.001169449184089899,-0.009385473094880581
1761413678435385000,4.107385009765625,0.017018930986523628,0.010287580080330372,-0.01951959915459156
1761413678445399000,4.11739892578125,0.016706082969903946,0.01919255033135414,-0.02058609388768673
1761413678455412200,4.127412109375,0.016747362911701202,0.025540996342897415,-0.018404433503746986
1761413678465426000,4.137426025390625,0.01817905902862549,0.028330935165286064,-0.008253529667854309
1761413678475439000,4.147439208984375,0.018455229699611664,0.03525862097740173,0.0026862029917538166
1761413678485453000,4.157453125,0.018846189603209496,0.03786690905690193,0.014428611844778061
1761413678495466000,4.167466064453125,0.02044169045984745,0.04448326677083969,0.018835078924894333
1761413678505480000,4.17747998046875,0.01840510591864586,0.04512811824679375,0.02014419063925743
1761413678515492900,4.187492919921875,0.018078602850437164,0.05374371260404587,0.01492998655885458
1761413678525507000,4.197507080078125,0.017075061798095703,0.061993617564439774,0.007468375377357006
1761413678535520000,4.20752001953125,0.010666964575648308,0.06862808018922806,-0.0016739900456741452
1761413678545534200,4.2175341796875,0.005659823771566153,0.07322010397911072,-0.00618318747729063
1761413678555547000,4.227546875,0.002356172539293766,0.07155349850654602,-0.01039364468306303
1761413678565560000,4.23756005859375,-0.0016749845817685127,0.061002880334854126,-0.005639668088406324
1761413678575574000,4.247573974609375,-0.00380924204364419,0.0508546382188797,-0.0009040351724252105
1761413678585587000,4.2575869140625,-0.004918541293591261,0.04061810299754143,0.010924292728304863
1761413678595601200,4.26760107421875,-0.004475657362490892,0.037352267652750015,0.0183585062623024
1761413678605613800,4.27761376953125,-0.003304585814476013,0.03730035945773125,0.02742067724466324
1761413678615628000,4.2876279296875,-0.0020795315504074097,0.03781168535351753,0.021016307175159454
1761413678625641200,4.29764111328125,-0.002500516828149557,0.03811292722821236,0.019562454894185066
1761413678635655000,4.307655029296875,-0.005031585227698088,0.03672834858298302,0.015646010637283325
1761413678645668000,4.317668212890625,-0.006417891010642052,0.031179051846265793,0.009168202988803387
1761413678655682000,4.32768212890625,-0.01127656176686287,0.02254561521112919,0.008033430203795433
1761413678665695000,4.337695068359375,-0.015406320802867413,0.014610856771469116,0.012005934491753578
1761413678675709000,4.347708984375,-0.022187262773513794,0.00523146940395236,0.01762360706925392
1761413678685722000,4.35772216796875,-0.0296157393604517,-0.0013175844214856625,0.0223007183521986
1761413678695735800,4.36773583984375,-0.03539666160941124,-0.007746721617877483,0.021593384444713593
1761413678705749000,4.3777490234375,-0.04119162634015083,-0.009913308545947075,0.01923365890979767
1761413678715763200,4.38776318359375,-0.051791273057460785,-0.006497271824628115,0.006977525539696217
1761413678725776000,4.39777587890625,-0.05838941037654877,-0.0005634012632071972,-0.002985164988785982
1761413678735790000,4.4077900390625,-0.06557168811559677,0.005839104298502207,-0.01572279818356037
1761413678745803000,4.417802978515625,-0.07419266551733017,0.02063358947634697,-0.03214820846915245
1761413678755816700,4.427816650390625,-0.08159971237182617,0.04186058044433594,-0.04820840433239937
1761413678765829600,4.43782958984375,-0.08050422370433807,0.06430470198392868,-0.057195037603378296
1761413678775843600,4.447843505859375,-0.07990634441375732,0.07923810929059982,-0.05939321219921112
1761413678785856800,4.457856689453125,-0.0762181356549263,0.08063986897468567,-0.05369684472680092
1761413678795870500,4.467870361328125,-0.07125959545373917,0.08070671558380127,-0.04431213065981865
1761413678805883600,4.477883544921875,-0.06515442579984665,0.07316257804632187,-0.0289476215839386
1761413678815897600,4.487897705078125,-0.05487995222210884,0.05493510514497757,-0.02239624597132206
1761413678825910500,4.49791064453125,-0.04014994576573372,0.036940429359674454,-0.01279744878411293
1761413678835924700,4.5079248046875,-0.033876605331897736,0.01915557309985161,-0.007398954592645168
1761413678845937700,4.517937744140625,-0.025147486478090286,0.007505201734602451,-0.0057032182812690735
1761413678855951600,4.52795166015625,-0.020921850576996803,-0.0009735040366649628,-0.004213712178170681
1761413678865964500,4.537964599609375,-0.018947578966617584,-0.009566695429384708,-0.013372089713811874
1761413678875978800,4.547978759765625,-0.0190487802028656,-0.023173319175839424,-0.017750592902302742
1761413678885991700,4.55799169921875,-0.02387150563299656,-0.01614150032401085,-0.022892095148563385
1761413678896005600,4.568005615234375,-0.027385812252759933,-0.004955691751092672,-0.02797606959939003
1761413678906018800,4.578018798828125,-0.027125561609864235,0.0063001965172588825,-0.029895709827542305
1761413678916032500,4.588032470703125,-0.029773809015750885,0.015627650544047356,-0.03149094060063362
1761413678926045700,4.598045654296875,-0.030653713271021843,0.017675751820206642,-0.03390496224164963
1761413678936059600,4.6080595703125,-0.0279250368475914,0.018178291618824005,-0.029154416173696518
1761413678946072600,4.618072509765625,-0.026326486840844154,0.015337040647864342,-0.021824931725859642
1761413678956086500,4.62808642578125,-0.021503236144781113,0.0012606359086930752,-0.015119625255465508
1761413678966099700,4.638099609375,-0.020696153864264488,-0.013984438963234425,-0.005563070997595787
1761413678976113700,4.64811376953125,-0.02250523865222931,-0.025216586887836456,-0.0010506109101697803
1761413678986126600,4.658126708984375,-0.02243007719516754,-0.03436344116926193,0.0030796516221016645
1761413678996140800,4.668140869140625,-0.02591242641210556,-0.027763331308960915,-0.002249599900096655
1761413679006153500,4.678153564453125,-0.026561638340353966,-0.011251830495893955,-0.003263099119067192
1761413679016167700,4.688167724609375,-0.029678868129849434,0.006503730546683073,-0.00983657967299223
1761413679026180900,4.698180908203125,-0.02625364623963833,0.015949232503771782,-0.014173870906233788
1761413679036194600,4.708194580078125,-0.022631747648119926,0.010510524734854698,-0.015647398307919502
1761413679046207700,4.718207763671875,-0.02230757661163807,0.002414149232208729,-0.01197719480842352
1761413679056220700,4.728220703125,-0.018327482044696808,-0.008808411657810211,-0.013652057386934757
1761413679066234600,4.738234619140625,-0.019580483436584473,-0.006686951033771038,-0.007400816306471825
1761413679076247800,4.748247802734375,-0.012378495186567307,0.0018966835923492908,-0.0072929589077830315
1761413679086261800,4.75826171875,-0.004537559580057859,0.014783360995352268,0.0026087716687470675
1761413679096274700,4.768274658203125,-0.002649111906066537,0.012408354319632053,0.009554562158882618
1761413679106288600,4.77828857421875,-0.004590163938701153,0.008129391819238663,0.017971549183130264
1761413679116301800,4.7883017578125,-0.006216023582965136,0.0043977708555758,0.022921301424503326
1761413679126315500,4.7983154296875,-0.006669485475867987,0.008744476363062859,0.022303547710180283
1761413679136328700,4.80832861328125,-0.002391383284702897,0.0066954405046999454,0.017211051657795906
1761413679146342700,4.8183427734375,-0.0008229168597608805,0.009724588133394718,0.0013902091886848211
1761413679156355600,4.82835546875,0.004768123850226402,0.008275295607745647,-0.007334839552640915
1761413679166369800,4.838369873046875,0.006830606609582901,0.0057296487502753735,-0.018983572721481323
1761413679176382500,4.848382568359375,0.008192813023924828,-0.001796444645151496,-0.021348459646105766
1761413679186396700,4.858396728515625,0.007145125884562731,-0.01455511711537838,-0.01328067947179079
1761413679196409600,4.86840966796875,0.009177650325000286,-0.01900951936841011,-0.003733779536560178
1761413679206423800,4.878423828125,0.010780079290270805,-0.017159026116132736,0.014705282635986805
1761413679216436700,4.888436767578125,0.008902817033231258,-0.01796196959912777,0.026032239198684692
1761413679226450700,4.89845068359375,0.011737354099750519,-0.011018111370503902,0.03460981324315071
1761413679236463600,4.908463623046875,0.015700938180088997,-0.004033438861370087,0.035357363522052765
1761413679246477600,4.9184775390625,0.02328387089073658,-0.006600513122975826,0.03224818781018257
1761413679256490800,4.92849072265625,0.029627786949276924,-0.008002134971320629,0.02779192291200161
1761413679266504700,4.938504638671875,0.03806310519576073,-0.0065435366705060005,0.022948697209358215
1761413679276517600,4.948517578125,0.046962857246398926,0.0007450026459991932,0.02016250044107437
1761413679286531600,4.958531494140625,0.054126083850860596,0.0027281977236270905,0.023048100993037224
1761413679296544500,4.96854443359375,0.05883588641881943,0.007796725258231163,0.020993737503886223
1761413679306558700,4.978558837890625,0.06228373944759369,0.006868286058306694,0.021726438775658607
1761413679316571600,4.988571533203125,0.06470881402492523,0.0013792449608445168,0.018149280920624733
1761413679326585900,4.9985859375,0.0768355205655098,0.018521076068282127,0.019396839663386345
1761413679336598500,5.0085986328125,0.08048192411661148,0.02599417231976986,0.005055717192590237
1761413679346612700,5.01861279296875,0.0824965313076973,0.035276856273412704,-0.01560159120708704
1761413679356625700,5.028625732421875,0.07632599025964737,0.04387300834059715,-0.025244897231459618
1761413679366639600,5.0386396484375,0.06335252523422241,0.04720909148454666,-0.03513847291469574
1761413679376652800,5.04865283203125,0.05425383523106575,0.0524832159280777,-0.032645221799612045
1761413679386666800,5.058666748046875,0.045895326882600784,0.05428698658943176,-0.035557154566049576
1761413679396679700,5.0686796875,0.04178580269217491,0.053875796496868134,-0.04069652408361435
1761413679406693600,5.078693603515625,0.03926857188344002,0.050205036997795105,-0.04555585980415344
1761413679416706600,5.08870654296875,0.03871729597449303,0.04542279988527298,-0.047975342720746994
1761413679426720500,5.098720458984375,0.03563230112195015,0.02482883632183075,-0.05643727257847786
1761413679436733700,5.108733642578125,0.03948749229311943,0.008119364269077778,-0.05816459655761719
1761413679446747600,5.11874755859375,0.04416733607649803,-0.011835237964987755,-0.054848626255989075
1761413679456760600,5.128760498046875,0.04258062317967415,-0.026397936046123505,-0.051003020256757736
1761413679466774800,5.13877490234375,0.04126454517245293,-0.021806204691529274,-0.04690112546086311
1761413679476787500,5.148787353515625,0.04249199852347374,-0.007318607997149229,-0.03959394246339798
1761413679486801700,5.1588017578125,0.038090720772743225,0.0102175772190094,-0.03687891736626625
1761413679496814800,5.16881494140625,0.033219534903764725,0.02465883456170559,-0.027617506682872772
1761413679506828500,5.17882861328125,0.027829887345433235,0.028651215136051178,-0.023101085796952248
1761413679516841700,5.188841796875,0.026158487424254417,0.026528146117925644,-0.011458544991910458
1761413679526855700,5.198855712890625,0.026390187442302704,0.018624279648065567,-0.0032063405960798264
1761413679536868600,5.20886865234375,0.02685544267296791,0.005264797247946262,0.004617227241396904
1761413679546881800,5.2188818359375,0.027122771367430687,-0.009581038728356361,0.011351598426699638
1761413679556895700,5.228895751953125,0.026513174176216125,-0.019124742597341537,0.01768592745065689
1761413679566908700,5.23890869140625,0.022866303101181984,-0.025887802243232727,0.01699426956474781
1761413679576922600,5.248922607421875,0.019850805401802063,-0.027022575959563255,0.011530794203281403
1761413679586935800,5.258935791015625,0.01816762238740921,-0.027441391721367836,0.0020285360515117645
1761413679596949500,5.268949462890625,0.014081267639994621,-0.025377441197633743,-0.008754070848226547
1761413679606962700,5.278962646484375,0.008784707635641098,-0.02516801841557026,-0.01978285424411297
1761413679616976600,5.2889765625,0.0016066893003880978,-0.026641279458999634,-0.022951748222112656
1761413679626989600,5.298989501953125,-0.00553810503333807,-0.01944265514612198,-0.027769239619374275
1761413679637003800,5.309003662109375,-0.012897217646241188,-0.015977617353200912,-0.02545761689543724
1761413679647016700,5.3190166015625,-0.01897336356341839,-0.0077478415332734585,-0.030469486489892006
1761413679657030700,5.32903076171875,-0.026247521862387657,0.003013193141669035,-0.03061622567474842
1761413679667043600,5.339043701171875,-0.03284861147403717,0.008174417540431023,-0.0322040319442749
1761413679677057800,5.349057861328125,-0.04055633395910263,0.013315649703145027,-0.028716623783111572
1761413679687070700,5.35907080078125,-0.048478592187166214,0.021152615547180176,-0.016158025711774826
1761413679697084700,5.369084716796875,-0.057563167065382004,0.03498241305351257,-0.0014941277913749218
1761413679707097900,5.379097900390625,-0.059956543147563934,0.04642960801720619,0.004771891050040722
1761413679717111600,5.389111572265625,-0.05925986170768738,0.05590460076928139,0.011346436105668545
1761413679727124700,5.399124755859375,-0.057483118027448654,0.05489185452461243,0.00950533151626587
1761413679737138700,5.409138671875,-0.04915887489914894,0.05442819744348526,0.0031156083568930626
1761413679747151600,5.419151611328125,-0.04127341881394386,0.05358033627271652,-0.0035367722157388926
1761413679757166000,5.429166015625,-0.03842223808169365,0.03880485147237778,-0.010357128456234932
1761413679767179300,5.43917919921875,-0.03157470002770424,0.021622655913233757,-0.012555832974612713
1761413679777193000,5.44919287109375,-0.02742709219455719,0.0038572410121560097,-0.011295891366899014
1761413679787206100,5.4592060546875,-0.019590886309742928,-0.016099613159894943,-0.005874295718967915
1761413679797220400,5.469220458984375,-0.01966012828052044,-0.02595996856689453,-0.0017700978787615895
1761413679807233000,5.47923291015625,-0.018616285175085068,-0.02978741005063057,0.002909810049459338
1761413679817247200,5.489247314453125,-0.01519838534295559,-0.0334058441221714,0.0018551985267549753
1761413679827260200,5.49926025390625,-0.011637477204203606,-0.03207971900701523,0.0013740973081439734
1761413679837274000,5.509274169921875,-0.005080241709947586,-0.01440485380589962,-0.0012693562312051654
1761413679847287300,5.519287353515625,0.005348491482436657,-0.004759911447763443,-0.009272456169128418
1761413679857301200,5.52930126953125,0.01647677645087242,-0.0003784792497754097,-0.016241414472460747
1761413679867314200,5.539314208984375,0.02707510069012642,0.007841627113521099,-0.023087335750460625
1761413679877328100,5.549328125,0.033488258719444275,0.010175354778766632,-0.025747301056981087
1761413679887341300,5.55934130859375,0.03683297336101532,0.00368580874055624,-0.020033791661262512
1761413679897355000,5.56935498046875,0.03708703815937042,-0.00835194531828165,-0.008317745290696621
1761413679907368200,5.5793681640625,0.035482484847307205,-0.021595846861600876,0.006504343822598457
1761413679917382100,5.589382080078125,0.03652457892894745,-0.021421141922473907,0.015681063756346703
1761413679927395000,5.59939501953125,0.03808906301856041,-0.019689759239554405,0.023310156539082527
1761413679937409300,5.6094091796875,0.03690448775887489,-0.014338936656713486,0.02850944548845291
1761413679947422200,5.619422119140625,0.03470812365412712,-0.004096592776477337,0.03409639373421669
1761413679957436200,5.629436279296875,0.03628125041723251,0.003944022580981255,0.046517107635736465
1761413679967449000,5.639448974609375,0.029196972027420998,0.005550577770918608,0.05115034431219101
1761413679977463300,5.64946337890625,0.027963129803538322,0.007013985421508551,0.05253678560256958
1761413679987476200,5.659476318359375,0.025810230523347855,0.006299192551523447,0.05036630854010582
1761413679997490200,5.669490234375,0.024837909266352654,0.006248060148209333,0.04051447659730911
1761413680007503400,5.67950341796875,0.018746068701148033,0.0028456668369472027,0.03065512143075466
1761413680017516000,5.68951611328125,0.014892741106450558,-0.00576113723218441,0.01590893417596817
1761413680027530200,5.6995302734375,0.005839325021952391,-0.01298389583826065,0.006431808695197105
1761413680037543200,5.709543212890625,-0.002790382131934166,-0.012347400188446045,-0.0012958860024809837
1761413680047557000,5.71955712890625,-0.007234398741275072,-0.006083379499614239,-0.0017446286510676146
1761413680057570300,5.7295703125,-0.005811738315969706,0.00006772344931960106,-0.0004719039425253868
1761413680067584300,5.739584228515625,-0.004353133495897055,0.005284596234560013,0.001902302261441946
1761413680077597200,5.74959716796875,0.003484816290438175,0.011655677109956741,0.008853152394294739
1761413680087611100,5.759611083984375,0.0087110111489892,0.021031061187386513,0.011320573277771473
1761413680097624000,5.7696240234375,0.01619262993335724,0.025319017469882965,0.013294508680701256
1761413680107638000,5.779637939453125,0.019589290022850037,0.027544254437088966,0.010708678513765335
1761413680117651200,5.789651123046875,0.020356813445687294,0.022050954401493073,0.0057120556011796
1761413680127665200,5.7996650390625,0.017927486449480057,0.013568245805799961,-0.0003311862237751484
1761413680137678000,5.809677978515625,0.017018817365169525,0.008122880943119526,-0.006461783312261105
1761413680147692300,5.8196923828125,0.01972164213657379,0.010231319814920425,-0.009322822093963623
1761413680157705000,5.829705078125,0.023169104009866714,0.01687351055443287,-0.01330824289470911
1761413680167719200,5.83971923828125,0.028479119762778282,0.015113121829926968,-0.01752346009016037
1761413680177732400,5.849732421875,0.03720656409859657,0.006151584908366203,-0.023624494671821594
1761413680187746000,5.85974609375,0.04385347291827202,-0.0012340534012764692,-0.02360249124467373
1761413680197759200,5.86975927734375,0.05396203324198723,-0.007385422941297293,-0.02240140549838543
1761413680207773200,5.879773193359375,0.057925689965486526,-0.009198608808219433,-0.014492249116301537
1761413680217786000,5.8897861328125,0.061225082725286484,-0.007040383294224739,-0.007467363961040974
1761413680227800000,5.899800048828125,0.06636179238557816,-0.004545670468360186,-0.005242424085736275
1761413680237813200,5.909813232421875,0.0678158774971962,-0.00564129464328289,-0.0040807537734508514
1761413680247827000,5.919826904296875,0.06534386426210403,-0.004920278210192919,-0.004271535202860832
1761413680257840000,5.929840087890625,0.06818519532680511,-0.0037412969395518303,-0.009709443897008896
1761413680267854300,5.939854248046875,0.0641901046037674,-0.002269924385473132,-0.016567053273320198
1761413680277867000,5.949866943359375,0.0657547116279602,-0.003673676634207368,-0.02211468480527401
1761413680287881200,5.959881103515625,0.06383032351732254,-0.006398492958396673,-0.026332996785640717
1761413680297894100,5.96989404296875,0.061498984694480896,-0.012098190374672413,-0.019162967801094055
1761413680307908000,5.979908203125,0.05898723378777504,-0.012333422899246216,-0.009204274043440819
1761413680317921300,5.98992138671875,0.051442231982946396,-0.008578365668654442,-0.003082465846091509
1761413680327935200,5.999935302734375,0.042754728347063065,-0.0002634371630847454,-0.003503248328343034
1761413680337948200,6.0099482421875,0.03384379297494888,0.008333246223628521,-0.00771716795861721
1761413680347962000,6.019962158203125,0.018150582909584045,0.016270264983177185,-0.022242315113544464
1761413680357975300,6.029975341796875,0.0005641315365210176,0.03591480851173401,-0.040849022567272186
1761413680367989000,6.039989013671875,-0.022576067596673965,0.05667014420032501,-0.058227475732564926
1761413680378002200,6.050002197265625,-0.04076066240668297,0.08058186620473862,-0.07977697998285294
1761413680388016000,6.06001611328125,-0.058047305792570114,0.09603682905435562,-0.09630252420902252
1761413680398029000,6.070029052734375,-0.06912578642368317,0.10863624513149261,-0.11567515134811401
1761413680408043300,6.080043212890625,-0.06862306594848633,0.10226207971572876,-0.1266155242919922
1761413680418056200,6.09005615234375,-0.06701238453388214,0.08783839643001556,-0.12797532975673676
1761413680428070100,6.100070068359375,-0.06208014115691185,0.06914503127336502,-0.1229114979505539
1761413680438083000,6.1100830078125,-0.05568668991327286,0.04572492465376854,-0.11758890748023987
1761413680448097300,6.12009716796875,-0.046568289399147034,0.02770877070724964,-0.1057712659239769
1761413680458110200,6.130110107421875,-0.03997376933693886,0.0007546516135334969,-0.09014702588319778
1761413680468124200,6.140124267578125,-0.03407860919833183,-0.016809018328785896,-0.07296764105558395
1761413680478137300,6.150137451171875,-0.029395438730716705,-0.0289200097322464,-0.06127876415848732
1761413680488151000,6.160151123046875,-0.021165329962968826,-0.0411413311958313,-0.04839964956045151
1761413680498164200,6.170164306640625,-0.02197040244936943,-0.051167599856853485,-0.0402945838868618
1761413680508178200,6.18017822265625,-0.01862320676445961,-0.05375306308269501,-0.03994777426123619
1761413680518191000,6.190191162109375,-0.012643611058592796,-0.03820286691188812,-0.04563681781291962
1761413680528204300,6.200204345703125,-0.009288101457059383,-0.025562601163983345,-0.0563095398247242
1761413680538218200,6.21021826171875,-0.009785314090549946,-0.017987770959734917,-0.06322763115167618
1761413680548231200,6.220231201171875,-0.007433873601257801,-0.009544286876916885,-0.066060371696949
1761413680558245000,6.2302451171875,-0.005841303616762161,-0.005608668085187674,-0.06201503053307533
1761413680568258000,6.240258056640625,-0.004770250059664249,-0.005835866555571556,-0.05198100209236145
1761413680578272000,6.25027197265625,-0.0007462134235538542,-0.011895889416337013,-0.039614614099264145
1761413680588285200,6.26028515625,0.00442312890663743,-0.01734120026230812,-0.027180910110473633
1761413680598299400,6.27029931640625,0.011685303412377834,-0.02340788021683693,-0.01849154755473137
1761413680608312000,6.28031201171875,0.012664806097745895,-0.01779339835047722,-0.019266264513134956
1761413680618326300,6.290326171875,0.01097796019166708,-0.0033183186315000057,-0.018817255273461342
1761413680628339000,6.3003388671875,0.006380154751241207,0.011613685637712479,-0.02554832585155964
1761413680638353200,6.310353271484375,-0.0010777611751109362,0.019524870440363884,-0.03855946287512779
1761413680648366300,6.320366455078125,-0.009829727932810783,0.021117590367794037,-0.04598769545555115
1761413680658380300,6.33038037109375,-0.020656542852520943,0.020195070654153824,-0.058123718947172165
1761413680668393200,6.340393310546875,-0.028001392260193825,0.022200753912329674,-0.06666214019060135
1761413680678407200,6.3504072265625,-0.029273051768541336,0.013375570997595787,-0.060511037707328796
1761413680688420000,6.360420166015625,-0.03101816587150097,0.003151069860905409,-0.05095179006457329
1761413680698434000,6.37043408203125,-0.026920093223452568,-0.01295626163482666,-0.03632597625255585
1761413680708447200,6.380447265625,-0.020317574962973595,-0.022432859987020493,-0.018503567203879356
1761413680718461200,6.390461181640625,-0.01836174912750721,-0.04159989580512047,-0.013374052941799164
1761413680728474000,6.40047412109375,-0.01546256709843874,-0.056631140410900116,-0.004993784707039595
1761413680738488300,6.41048828125,-0.017436502501368523,-0.06935519725084305,-0.002222499344497919
1761413680748500200,6.420500244140625,-0.024372635409235954,-0.07398667186498642,-0.007850855588912964
1761413680758514400,6.430514404296875,-0.030746113508939743,-0.06562700122594833,-0.014730066992342472
1761413680768527400,6.44052734375,-0.030024614185094833,-0.04758070781826973,-0.019593968987464905
1761413680778541300,6.450541259765625,-0.02699766494333744,-0.023485228419303894,-0.027298759669065475
1761413680788554500,6.460554443359375,-0.026945581659674644,-0.007265061140060425,-0.03521253913640976
1761413680798568200,6.470568115234375,-0.020261580124497414,0.005962061230093241,-0.034170445054769516
1761413680808581400,6.480581298828125,-0.012872901745140553,0.006517459638416767,-0.028909767046570778
1761413680818595300,6.49059521484375,-0.0065185995772480965,0.0035576224327087402,-0.014742015860974789
1761413680828608300,6.500608154296875,-0.0009796988451853395,-0.00006010802462697029,0.0015046941116452217
1761413680838622200,6.510622314453125,0.006261436268687248,0.0004813126288354397,0.01481810212135315
1761413680848635400,6.520635498046875,0.009861833415925503,0.0005258182063698769,0.014408743008971214
1761413680858649300,6.5306494140625,0.010382747277617455,0.007024197373539209,0.01426546461880207
1761413680868662300,6.540662353515625,0.014322611503303051,0.01420382596552372,0.007477596402168274
1761413680878676500,6.550676513671875,0.0196358822286129,0.018935730680823326,-0.006255527026951313
1761413680888689200,6.560689208984375,0.024768270552158356,0.0245436429977417,-0.01370342168956995
1761413680898703400,6.570703369140625,0.024476921185851097,0.022637352347373962,-0.01403818093240261
1761413680908716500,6.580716552734375,0.02251984179019928,0.005405391566455364,-0.010245336219668388
1761413680918730200,6.590730224609375,0.023691367357969284,-0.017865842208266258,0.006197819486260414
1761413680928743400,6.600743408203125,0.026975834742188454,-0.04386387765407562,0.01952294446527958
1761413680938757400,6.61075732421875,0.027361726388335228,-0.06960466504096985,0.03343955799937248
1761413680948770300,6.620770263671875,0.027322176843881607,-0.091391921043396,0.041223641484975815
1761413680958783500,6.630783447265625,0.02445315383374691,-0.0989566296339035,0.048265039920806885
1761413680968797400,6.64079736328125,0.02170623652637005,-0.09393823146820068,0.04575907438993454
1761413680978810400,6.650810302734375,0.019648145884275436,-0.08343125879764557,0.03614666312932968
1761413680988824300,6.66082421875,0.010321883484721184,-0.07477018982172012,0.025746015831828117
1761413680998837500,6.67083740234375,0.008609470911324024,-0.06302884966135025,0.010652816854417324
1761413681008851200,6.680851318359375,0.0064204963855445385,-0.05687808617949486,0.001906000543385744
1761413681018864400,6.690864501953125,0.004516602493822575,-0.052169084548950195,-0.000953435548581183
1761413681028878300,6.70087841796875,0.005162553861737251,-0.045661985874176025,0.00404911395162344
1761413681038891300,6.710891357421875,0.007997488602995872,-0.03966960683465004,0.01073125097900629
1761413681048905500,6.720905517578125,0.014096259139478207,-0.04660307615995407,0.027178067713975906
1761413681058918400,6.73091845703125,0.014840345829725266,-0.04619854316115379,0.037329237908124924
1761413681068932400,6.740932373046875,0.014828022569417953,-0.039091527462005615,0.054462581872940063
1761413681078945300,6.7509453125,0.018143923953175545,-0.030246105045080185,0.06499165296554565
1761413681088959500,6.76095947265625,0.018813250586390495,-0.01507338136434555,0.0635983943939209
1761413681098972400,6.770972412109375,0.025251442566514015,0.004628950264304876,0.055692002177238464
1761413681108986400,6.780986328125,0.023902280256152153,0.01763117127120495,0.04430472105741501
1761413681118999600,6.79099951171875,0.014873099513351917,0.02684304676949978,0.03265579044818878
1761413681129013200,6.80101318359375,0.017937608063220978,0.04302413761615753,0.025984307751059532
1761413681139026400,6.8110263671875,0.012330320663750172,0.04938669875264168,0.009270841255784035
1761413681149040400,6.821040283203125,0.006985602434724569,0.040603213012218475,-0.0026890214066952467
1761413681159053300,6.83105322265625,-0.00016551779117435217,0.038421548902988434,-0.00764942541718483
1761413681169067300,6.8410673828125,-0.008403989486396313,0.04421177878975868,-0.013318225741386414
1761413681179080200,6.851080078125,-0.014724736101925373,0.05234560742974281,-0.01485699974000454
1761413681189094400,6.861094482421875,-0.024078432470560074,0.062294185161590576,-0.02297252230346203
1761413681199107300,6.871107421875,-0.02983378991484642,0.07691361010074615,-0.03580869361758232
1761413681209121500,6.88112158203125,-0.033611882477998734,0.08293947577476501,-0.04947623237967491
1761413681219134200,6.89113427734375,-0.03480098396539688,0.08689747005701065,-0.05922286957502365
1761413681229148400,6.9011484375,-0.03987717255949974,0.09084563702344894,-0.060781918466091156
1761413681239161300,6.911161376953125,-0.04661710187792778,0.07987900823354721,-0.05847135931253433
1761413681249175300,6.92117529296875,-0.046369556337594986,0.05902092903852463,-0.0538678877055645
1761413681259188500,6.9311884765625,-0.04583878815174103,0.037276480346918106,-0.05013946071267128
1761413681269202400,6.941202392578125,-0.04216301813721657,0.007088379468768835,-0.04585033655166626
1761413681279215400,6.95121533203125,-0.03332611545920372,-0.017941871657967567,-0.04127049818634987
1761413681289229300,6.961229248046875,-0.030751105397939682,-0.03254105523228645,-0.034558799117803574
1761413681299242200,6.9712421875,-0.026918284595012665,-0.03710731118917465,-0.034560661762952805
1761413681309256200,6.981256103515625,-0.025654343888163567,-0.03116992861032486,-0.03360498696565628
1761413681319269400,6.991269287109375,-0.03078652173280716,-0.023464340716600418,-0.03823835402727127
1761413681329283600,7.00128369140625,-0.032071568071842194,-0.008590616285800934,-0.04921720176935196
1761413681339296300,7.011296142578125,-0.03132162243127823,0.007494078017771244,-0.06013190373778343
1761413681349310500,7.021310546875,-0.028667781502008438,0.021965162828564644,-0.0664244219660759
1761413681359323100,7.0313232421875,-0.019862040877342224,0.02808217890560627,-0.06801965832710266
1761413681369337300,7.04133740234375,-0.012389488518238068,0.03271915018558502,-0.06239598989486694
1761413681379350500,7.0513505859375,-0.0017400395590811968,0.01681634970009327,-0.048765137791633606
1761413681389364500,7.061364501953125,0.005040581338107586,0.006472855340689421,-0.03212753310799599
1761413681399377400,7.07137744140625,0.007884836755692959,-0.008230723440647125,-0.014869449660182
1761413681409391400,7.081391357421875,0.0029103150591254234,-0.015967870131134987,0.003043901640921831
1761413681419404300,7.091404296875,0.0002085380838252604,-0.016070934012532234,0.010329244658350945
1761413681429417500,7.10141748046875,-0.008331617340445518,-0.0027974415570497513,0.00935050193220377
1761413681439431400,7.111431396484375,-0.014699235558509827,0.0131588876247406,-0.0050353617407381535
1761413681449444400,7.1214443359375,-0.021420126780867577,0.023845825344324112,-0.027795737609267235
1761413681459458300,7.131458251953125,-0.025843637064099312,0.02930983155965805,-0.05525186285376549
1761413681469471500,7.141471435546875,-0.027651257812976837,0.027909740805625916,-0.07242625206708908
1761413681479485200,7.151485107421875,-0.03363031893968582,0.0173399206250906,-0.08479636907577515
1761413681489498400,7.161498291015625,-0.03939026966691017,-0.005101639777421951,-0.0834164246916771
1761413681499512300,7.17151220703125,-0.04020892456173897,-0.026648743078112602,-0.07899690419435501
1761413681509525200,7.181525146484375,-0.04286943003535271,-0.03845612704753876,-0.06723745167255402
1761413681519539500,7.19153955078125,-0.041831064969301224,-0.039476651698350906,-0.05221323296427727
1761413681529552400,7.201552490234375,-0.04520554468035698,-0.036506835371255875,-0.04065124690532684
1761413681539566300,7.21156640625,-0.04922877997159958,-0.0321379192173481,-0.02461209148168564
1761413681549579300,7.221579345703125,-0.052193690091371536,-0.0387733094394207,-0.023895040154457092
1761413681559593500,7.231593505859375,-0.05540013685822487,-0.03890380635857582,-0.024032993242144585
1761413681569606400,7.2416064453125,-0.056465860456228256,-0.030770083889365196,-0.02867318131029606
1761413681579620400,7.251620361328125,-0.05395077168941498,-0.023529214784502983,-0.033408015966415405
1761413681589633500,7.261633544921875,-0.05076677352190018,-0.019458863884210587,-0.03095521219074726
1761413681599647200,7.271647216796875,-0.04554324969649315,-0.019620517268776894,-0.02642650716006756
1761413681609660400,7.281660400390625,-0.04297035187482834,-0.02503873221576214,-0.011667530983686447
1761413681619674400,7.29167431640625,-0.03894418478012085,-0.02780815400183201,0.0036038330290466547
1761413681629687300,7.301687255859375,-0.032794684171676636,-0.03289864957332611,0.022912949323654175
1761413681639701200,7.311701171875,-0.02710777148604393,-0.023703288286924362,0.03429689630866051
1761413681649714400,7.32171435546875,-0.019080335274338722,-0.010142272338271141,0.045401278883218765
1761413681659728400,7.331728271484375,-0.011322814039885998,0.00011542486026883125,0.05421128496527672
1761413681669741300,7.3417412109375,-0.0002613017277326435,0.010579144582152367,0.06404723972082138
1761413681679755500,7.351755615234375,0.0048660822212696075,0.016162462532520294,0.06752666085958481
1761413681689768200,7.361768310546875,0.014365622773766518,0.019322887063026428,0.07658829540014267
1761413681699782400,7.371782470703125,0.02293327823281288,0.021406009793281555,0.06946247071027756
1761413681709795600,7.381795654296875,0.032238177955150604,0.017534863203763962,0.06264714896678925
1761413681719809300,7.391809326171875,0.041144851595163345,0.019847286865115166,0.049560368061065674
1761413681729822500,7.401822509765625,0.0453566275537014,0.021095387637615204,0.04162721335887909
1761413681739836400,7.41183642578125,0.04988879710435867,0.023806218057870865,0.031851544976234436
1761413681749849600,7.421849609375,0.054620373994112015,0.01612389087677002,0.029727309942245483
1761413681759863600,7.431863525390625,0.06337924301624298,0.011917428113520145,0.030339304357767105
1761413681769876700,7.441876708984375,0.07546534389257431,0.0023841718211770058,0.0368349552154541
1761413681779890400,7.451890380859375,0.08574780821800232,-0.00839151069521904,0.044618044048547745
1761413681789903600,7.461903564453125,0.09165935218334198,-0.01593657396733761,0.05688862130045891
1761413681799916500,7.47191650390625,0.09406045824289322,-0.02358916774392128,0.06322721391916275
1761413681809930500,7.481930419921875,0.09491659700870514,-0.029989171773195267,0.06229367107152939
1761413681819943700,7.491943603515625,0.09435360133647919,-0.0314408577978611,0.056853633373975754
1761413681829957600,7.50195751953125,0.08823911845684052,-0.03711612522602081,0.04789775609970093
1761413681839970600,7.511970458984375,0.08392159640789032,-0.037728115916252136,0.04233867675065994
1761413681849984800,7.52198486328125,0.07619637995958328,-0.03155408799648285,0.03958280757069588
1761413681859997400,7.53199755859375,0.06987829506397247,-0.016187913715839386,0.04000571742653847
1761413681870011600,7.54201171875,0.06656286120414734,-0.005490560084581375,0.038381755352020264
1761413681880024600,7.552024658203125,0.05999444052577019,0.0029109143652021885,0.0380491241812706
1761413681890038800,7.562038818359375,0.055714864283800125,0.0106891468167305,0.03201499953866005
1761413681900051700,7.5720517578125,0.051619987934827805,0.011952018365263939,0.03122670203447342
1761413681910065700,7.582065673828125,0.04903220385313034,0.007107721641659737,0.033856041729450226
1761413681920078600,7.59207861328125,0.0451812706887722,0.003202994354069233,0.038966383785009384
1761413681930092500,7.602092529296875,0.03679465129971504,-0.000356889795511961,0.045905549079179764
1761413681940105700,7.612105712890625,0.036154959350824356,-0.0013025784865021706,0.0547187514603138
1761413681950119700,7.62211962890625,0.03252440690994263,0.0031138104386627674,0.060184020549058914
1761413681960132600,7.632132568359375,0.030570441856980324,0.009045735001564026,0.05482148006558418
1761413681970146600,7.642146484375,0.02690952643752098,0.024250589311122894,0.04130054637789726
1761413681980159500,7.652159423828125,0.029095448553562164,0.04290017485618591,0.029649481177330017
1761413681990173700,7.662173583984375,0.03190506622195244,0.05421223118901253,0.015917686745524406
1761413682000186600,7.6721865234375,0.031575899571180344,0.054131269454956055,0.007038706913590431
1761413682010200600,7.68220068359375,0.03810146450996399,0.04663272202014923,0.006676388904452324
1761413682020213500,7.692213623046875,0.03658932074904442,0.031852442771196365,0.007725674659013748
1761413682030227700,7.702227783203125,0.038981642574071884,0.018036894500255585,0.016833288595080376
1761413682040240600,7.71224072265625,0.04383765161037445,0.007693443447351456,0.028750935569405556
1761413682050254600,7.722254638671875,0.04415475204586983,0.0006194007582962513,0.03169894590973854
1761413682060267800,7.732267822265625,0.04665412753820419,0.006685814820230007,0.03384092450141907
1761413682070281500,7.742281494140625,0.04627370834350586,0.019655464217066765,0.028949705883860588
1761413682080294700,7.752294677734375,0.044440653175115585,0.03456410765647888,0.018839547410607338
1761413682090308600,7.76230859375,0.043959084898233414,0.04102450981736183,0.011097634211182594
1761413682100321500,7.772321533203125,0.042284753173589706,0.05086595565080643,-0.0009630229324102402
1761413682110335500,7.78233544921875,0.03829766809940338,0.040991052985191345,-0.012538551352918148
1761413682120348700,7.7923486328125,0.03763986751437187,0.02658574841916561,-0.025785116478800774
1761413682130362600,7.802362548828125,0.03619537129998207,0.006498321890830994,-0.0380694754421711
1761413682140375600,7.81237548828125,0.03637539967894554,-0.016612855717539787,-0.04622753709554672
1761413682150389800,7.8223896484375,0.03396503999829292,-0.036917299032211304,-0.04456229880452156
1761413682160402400,7.83240234375,0.02739928662776947,-0.0506107397377491,-0.04339716583490372
1761413682170416600,7.842416748046875,0.017438456416130066,-0.050870027393102646,-0.03541257977485657
1761413682180429800,7.852429931640625,0.00885748490691185,-0.04173405095934868,-0.030941927805542946
1761413682190443500,7.862443603515625,0.005407294724136591,-0.02187289670109749,-0.022034287452697754
1761413682200456700,7.872456787109375,0.004543099086731672,-0.0013508435804396868,-0.022557333111763
1761413682210469600,7.8824697265625,0.001842584228143096,0.01739911176264286,-0.01959053799510002
1761413682220483600,7.892483642578125,0.003960063681006432,0.037278808653354645,-0.02361004613339901
1761413682230496800,7.902496826171875,0.004423931706696749,0.04430551826953888,-0.028189312666654587
1761413682240510700,7.9125107421875,0.001300842734053731,0.03095455840229988,-0.02442040666937828
1761413682250523600,7.922523681640625,0.00209544925019145,0.015044412575662136,-0.006806633435189724
1761413682260537600,7.93253759765625,0.0035905479453504086,-0.004220894537866116,0.009063942357897758
1761413682270550800,7.94255078125,0.004161402583122253,-0.013898227363824844,0.02010507695376873
1761413682280564500,7.952564453125,0.004456214141100645,-0.017745163291692734,0.026080677285790443
1761413682290577700,7.96257763671875,0.004640702158212662,-0.01670815981924534,0.03427232801914215
1761413682300591600,7.972591552734375,0.003247602377086878,-0.01153949648141861,0.044520970433950424
1761413682310604500,7.9826044921875,0.0023232267703861,-0.008439583703875542,0.052950143814086914
1761413682320618800,7.99261865234375,-0.0012283648829907179,-0.007935447618365288,0.06363901495933533
1761413682330631700,8.002631591796876,-0.0015048665227368474,-0.008525504730641842,0.06562722474336624
1761413682340645600,8.012645751953125,-0.0016401550965383649,-0.010901576839387417,0.05814826861023903
1761413682350658600,8.022658447265625,0.0005738031468354166,-0.016913501545786858,0.04801824316382408
1761413682360672800,8.0326728515625,0.002134948270395398,-0.022893894463777542,0.034077394753694534
1761413682370685700,8.042685791015625,0.00021571142133325338,-0.026495065540075302,0.021833032369613647
1761413682380699600,8.05269970703125,-0.004055732395499945,-0.028996305540204048,0.011155621148645878
1761413682390712600,8.062712646484375,-0.006924005690962076,-0.03058958798646927,0.002469890983775258
1761413682400726500,8.0727265625,-0.011599451303482056,-0.02609071135520935,-0.003733143676072359
1761413682410739700,8.08273974609375,-0.01616649515926838,-0.015560448169708252,-0.005680041387677193
1761413682420753700,8.092753662109375,-0.013389883562922478,-0.003949332516640425,-0.006232913583517075
1761413682430766600,8.1027666015625,-0.012732232920825481,0.00552947074174881,-0.005219389218837023
1761413682440780500,8.112780517578125,-0.012094938196241856,0.013297644443809986,-0.0032638302072882652
1761413682450793500,8.12279345703125,-0.012798672541975975,0.015411990694701672,-0.00441358145326376
1761413682460807700,8.1328076171875,-0.011164823547005653,0.0057335300371050835,-0.011630748398602009
1761413682470820600,8.142820556640626,-0.012459386140108109,-0.007094384171068668,-0.01918134279549122
1761413682480834800,8.152834716796875,-0.01789250038564205,-0.018605630844831467,-0.03295787423849106
1761413682490847500,8.162847412109375,-0.02391696535050869,-0.025354817509651184,-0.03810316324234009
1761413682500861700,8.17286181640625,-0.02505413442850113,-0.0220293290913105,-0.04396611452102661
1761413682510874600,8.18287451171875,-0.02375173009932041,-0.013469185680150986,-0.03894226625561714
1761413682520888600,8.192888671875,-0.03204641118645668,-0.006742306984961033,-0.029859822243452072
1761413682530901800,8.20290185546875,-0.030482392758131027,0.0002187555655837059,-0.01655316725373268
1761413682540915700,8.212915771484376,-0.026756364852190018,0.010874062776565552,-0.0024029940832406282
1761413682550928600,8.2229287109375,-0.022024720907211304,0.018771395087242126,0.012026015669107437
1761413682560941800,8.23294189453125,-0.016730356961488724,0.013255721889436245,0.015605838038027287
1761413682570955500,8.24295556640625,-0.013785574585199356,0.0007360093295574188,0.015621212311089039
1761413682580968700,8.25296875,-0.009009460918605328,-0.014574769884347916,0.013353264890611172
1761413682590982700,8.262982666015626,-0.01086302101612091,-0.02981976978480816,0.0028934329748153687
1761413682600995600,8.27299560546875,-0.018950508907437325,-0.042959004640579224,0.0011296214070171118
1761413682611009500,8.283009521484376,-0.025547809898853302,-0.0481482557952404,-0.0002852401230484247
1761413682621022700,8.293022705078124,-0.027353432029485703,-0.0407358780503273,-0.006781222764402628
1761413682631036400,8.303036376953125,-0.02526427060365677,-0.022639315575361252,-0.006275598891079426
1761413682641049600,8.313049560546874,-0.025781722739338875,-0.013405870646238327,-0.0048422859981656075
1761413682651063800,8.323063720703125,-0.026600100100040436,-0.00628844927996397,0.0028216305654495955
1761413682661076500,8.333076416015626,-0.020775767043232918,0.0047735231928527355,0.02397964708507061
1761413682671090700,8.343090576171875,-0.014767145738005638,0.01207205280661583,0.04157395288348198
1761413682681103600,8.353103515625,-0.010865082032978535,0.009773744270205498,0.059126049280166626
1761413682691117600,8.36311767578125,-0.00975873600691557,0.0067076776176691055,0.0648142620921135
1761413682701130800,8.373130859375,-0.010704956948757172,0.002023177221417427,0.07011448591947556
1761413682711144700,8.383144775390624,-0.010243088938295841,0.002659698948264122,0.06712186336517334
1761413682721157600,8.39315771484375,-0.01396352518349886,-0.0024109596852213144,0.05977393314242363
1761413682731171600,8.403171630859376,-0.013918984681367874,-0.003980992361903191,0.05423492565751076
1761413682741184800,8.413184814453125,-0.016815172508358955,-0.008572015911340714,0.04448375850915909
1761413682751198500,8.423198486328126,-0.01624247618019581,0.006550290621817112,0.03878612071275711
1761413682761211600,8.433211669921874,-0.017415598034858704,0.018854893743991852,0.03216150775551796
1761413682771225600,8.4432255859375,-0.014247358776628971,0.021648209542036057,0.025986770167946815
1761413682781238500,8.453238525390624,-0.010247823782265186,0.01800234243273735,0.024537213146686554
1761413682791252700,8.463252685546875,-0.005987101700156927,0.017960231751203537,0.03024839237332344
1761413682801265700,8.473265625,-0.0043021198362112045,0.013485855422914028,0.03552651032805443
1761413682811279600,8.483279541015625,-0.002740241354331374,0.011010813526809216,0.04593830928206444
1761413682821292500,8.49329248046875,-0.0002962584258057177,0.013827105052769184,0.042538516223430634
1761413682831306800,8.503306640625,-0.00036890897899866104,0.020338844507932663,0.036067262291908264
1761413682841319700,8.513319580078125,0.0023158236872404814,0.029558176174759865,0.02508838288486004
1761413682851333600,8.523333740234374,0.003244939260184765,0.029224177822470665,0.012014692649245262
1761413682861346800,8.533346923828125,0.005885730031877756,0.021983308717608452,-0.007331041619181633
1761413682871360500,8.543360595703126,0.00664953188970685,0.008285067975521088,-0.01506752148270607
1761413682881373700,8.553373779296875,0.008337443694472313,-0.006190543994307518,-0.013646459206938744
1761413682891387600,8.5633876953125,0.009612039662897587,-0.011325124651193619,-0.017974890768527985
1761413682901400600,8.573400634765624,0.008249565958976746,-0.014487627893686295,-0.01950567588210106
1761413682911414500,8.58341455078125,0.010132873430848122,-0.01621883735060692,-0.026831340044736862
1761413682921427700,8.593427734375,0.011032489128410816,-0.009980915114283562,-0.030415154993534088
1761413682931440600,8.603440673828125,0.01484055444598198,-0.00504488917067647,-0.03061821684241295
1761413682941454600,8.61345458984375,0.013685541227459908,-0.004941824823617935,-0.03778212144970894
1761413682951467500,8.623467529296875,0.010616451501846313,-0.004121607169508934,-0.03523477166891098
1761413682961481500,8.6334814453125,0.010435356758534908,-0.0031751198694109917,-0.03361396864056587
1761413682971494700,8.64349462890625,0.0076729911379516125,0.0012463275343179703,-0.032055821269750595
1761413682981508600,8.653508544921875,0.004589051008224487,0.008615294471383095,-0.03936033695936203
1761413682991521500,8.663521484375,0.005797586403787136,0.012679283507168293,-0.04268050566315651
1761413683001535700,8.67353564453125,0.00741385854780674,0.016082536429166794,-0.04130179062485695
1761413683011548400,8.68354833984375,0.010587938129901886,0.015050369314849377,-0.03679046407341957
1761413683021562600,8.693562744140625,0.014988545328378677,0.009251070208847523,-0.02686086855828762
1761413683031575600,8.703575439453125,0.018329087644815445,0.00002780696377158165,-0.023847298696637154
1761413683041589500,8.713589599609374,0.012892510741949081,-0.00545590789988637,-0.0285768061876297
1761413683051602700,8.723602783203125,0.008276671171188354,-0.012441692873835564,-0.03694415092468262
1761413683061616600,8.73361669921875,0.007206612266600132,-0.011538615450263023,-0.05338490754365921
1761413683071629600,8.743629638671875,-0.0020103345159441233,-0.011860847473144531,-0.06751138716936111
1761413683081643500,8.7536435546875,-0.002312869532033801,-0.0223784688860178,-0.07191119343042374
1761413683091656700,8.76365673828125,0.0018063108436763287,-0.023132644593715668,-0.06330043077468872
1761413683101670400,8.77367041015625,-0.0007055827882140875,-0.022356066852808,-0.046300940215587616
1761413683111683600,8.78368359375,-0.004763904493302107,-0.017978066578507423,-0.026643380522727966
1761413683121697800,8.79369775390625,-0.009334954433143139,-0.020319251343607903,-0.01691405288875103
1761413683131710500,8.80371044921875,-0.008684005588293076,-0.019156619906425476,-0.0109412781894207
1761413683141724700,8.813724609375,-0.003385912859812379,-0.013262510299682617,-0.0037076000589877367
1761413683151737600,8.823737548828126,0.0017508402233943343,-0.007979284040629864,0.002592329401522875
1761413683161751600,8.83375146484375,0.003639021422713995,-0.011367357335984707,0.009913625195622444
1761413683171764700,8.8437646484375,0.004493371583521366,-0.022577140480279922,0.013484927825629711
1761413683181778700,8.85377880859375,0.004845441319048405,-0.029398029670119286,0.014947534538805485
1761413683191791600,8.86379150390625,0.006372366100549698,-0.025230517610907555,0.014449059963226318
1761413683201805600,8.8738056640625,0.004453025758266449,-0.019220028072595596,0.006445728242397308
1761413683211818800,8.88381884765625,0.007291028741747141,-0.016346948221325874,-0.000341933686286211
1761413683221832400,8.89383251953125,0.005709909833967686,-0.018448181450366974,-0.000949400826357305
1761413683231845600,8.903845703125,0.013697998598217964,-0.010959142819046974,0.0011057972442358732
1761413683241859600,8.913859619140625,0.023031579330563545,-0.007609152235090733,0.011425546370446682
1761413683251872500,8.92387255859375,0.034726582467556,-0.0057766311801970005,0.01717078499495983
1761413683261885700,8.9338857421875,0.042702220380306244,-0.007369201630353928,0.02360844425857067
1761413683271899600,8.943899658203126,0.04538620635867119,-0.007623888552188873,0.024076983332633972
1761413683281912600,8.95391259765625,0.04727305471897125,-0.0021910397335886955,0.023913199082016945
1761413683291926500,8.963926513671876,0.049234677106142044,0.0002117631956934929,0.026624197140336037
1761413683301939700,8.973939697265624,0.04831508547067642,-0.0023858838248997927,0.026379186660051346
1761413683311953700,8.98395361328125,0.048464033752679825,0.0004919534549117088,0.031591229140758514
1761413683321966600,8.993966552734374,0.04735535755753517,0.0008269790560007095,0.03332308679819107
1761413683331980800,9.003980712890625,0.05096074566245079,0.00195882236585021,0.0389130637049675
1761413683341993500,9.013993408203126,0.05150696262717247,0.0028214198537170887,0.03778787702322006
1761413683352007700,9.024007568359375,0.05513184517621994,-0.00043785013258457184,0.031960438936948776
1761413683362020600,9.0340205078125,0.05751510709524155,-0.005740203894674778,0.0283712986856699
1761413683372034600,9.04403466796875,0.05906108021736145,-0.011721668764948845,0.0240604430437088
1761413683382047700,9.0540478515625,0.05832045525312424,-0.021705593913793564,0.02580348215997219
1761413683392061700,9.064061767578124,0.0544687882065773,-0.02930249087512493,0.022236142307519913
1761413683402074600,9.07407470703125,0.04358284920454025,-0.0388062484562397,0.021725881844758987
1761413683412088600,9.084088623046876,0.03445227071642876,-0.03234991431236267,0.018264006823301315
1761413683422101500,9.0941015625,0.026389552280306816,-0.017223691567778587,0.0019681232515722513
1761413683432115500,9.104115478515626,0.021794205531477928,-0.002406698651611805,-0.008118828758597374
1761413683442128600,9.114128662109374,0.012733066454529762,0.004288754425942898,-0.019849255681037903
1761413683452142600,9.124142578125,0.007834122516214848,-0.00039431964978575706,-0.02854190580546856
1761413683462155500,9.134155517578124,0.0035237958654761314,-0.008088191971182823,-0.03197285532951355
1761413683472169700,9.144169677734375,-0.00024299169308505952,-0.01147838681936264,-0.02910490706562996
1761413683482182400,9.154182373046876,-0.002590035554021597,-0.009329215623438358,-0.025462768971920013
1761413683492196600,9.164196533203125,-0.003946646582335234,-0.00541823310777545,-0.02293769083917141
1761413683502209500,9.17420947265625,-0.009773376397788525,0.004356101155281067,-0.0217355415225029
1761413683512223700,9.1842236328125,-0.015097900293767452,0.007115501444786787,-0.02161872573196888
1761413683522236700,9.194236572265625,-0.017656665295362473,0.009573332965373993,-0.017608538269996643
1761413683532250600,9.204250732421874,-0.021077366545796394,0.011537883430719376,-0.014200162142515182
1761413683542263600,9.214263671875,-0.018904494121670723,0.014885744079947472,-0.008741214871406555
1761413683552277500,9.224277587890626,-0.021172307431697845,0.01838293857872486,-0.003990067169070244
1761413683562290700,9.234290771484375,-0.019466552883386612,0.017087576910853386,-0.00036870106123387814
1761413683572303600,9.2443037109375,-0.022132910788059235,0.014093386009335518,-0.00024140183813869953
1761413683582317600,9.254317626953124,-0.02090732380747795,0.011794278398156166,0.004074516706168652
1761413683592330800,9.264330810546875,-0.022036967799067497,0.013717911206185818,0.0050044613890349865
1761413683602344400,9.274344482421874,-0.012648791074752808,0.01894569769501686,0.013637363910675049
1761413683612357600,9.284357666015625,-0.011277197860181332,0.024374183267354965,0.021861571818590164
1761413683622371600,9.29437158203125,-0.005481093656271696,0.030212899670004845,0.02562328614294529
1761413683632384500,9.304384521484375,-0.003099629655480385,0.02850331738591194,0.01852313242852688
1761413683642398700,9.314398681640625,0.001424814690835774,0.022734643891453743,0.012420497834682465
1761413683652411600,9.32441162109375,0.003130697412416339,0.019092973321676254,0.0004235536325722933
1761413683662425600,9.334425537109375,0.004510214552283287,0.011629731394350529,-0.004629261791706085
1761413683672438500,9.3444384765625,0.00799217913299799,0.004024198744446039,-0.012489503249526024
1761413683682452700,9.35445263671875,0.015221595764160156,0.0025911517441272736,-0.006659578066319227
1761413683692465700,9.364465576171876,0.022867459803819656,0.005716209299862385,-0.0020430933218449354
1761413683702479600,9.374479736328125,0.03125428408384323,0.004838697612285614,0.0043279873207211494
1761413683712492800,9.384492919921875,0.044798266142606735,0.009717702865600586,0.009653950110077858
1761413683722506500,9.394506591796874,0.05607914924621582,0.01972133480012417,0.0112859345972538
1761413683732519700,9.404519775390625,0.0689958781003952,0.04542224109172821,-0.002453647553920746
1761413683742533600,9.41453369140625,0.07832971960306168,0.06370031088590622,-0.011312918737530708
1761413683752547600,9.424547607421875,0.08073621988296509,0.06929977983236313,-0.015468422323465347
1761413683762561500,9.4345615234375,0.07992688566446304,0.060002684593200684,-0.015489460900425911
1761413683772574500,9.444574462890625,0.07904118299484253,0.05412738397717476,-0.006549929268658161
1761413683782588400,9.45458837890625,0.08111898601055145,0.04169921204447746,0.0020302427001297474
1761413683792601600,9.4646015625,0.07667716592550278,0.023496000096201897,0.006981033831834793
1761413683802615300,9.474615234375,0.07553280144929886,0.012041477486491203,0.006245202384889126
1761413683812628500,9.48462841796875,0.06983117759227753,-0.000012553296983242035,0.0009117205627262592
1761413683822642700,9.494642578125,0.06352560967206955,-0.01290491595864296,-0.005039112642407417
1761413683832655400,9.5046552734375,0.0597003810107708,-0.02902536280453205,-0.0027508563362061977
1761413683842669600,9.514669677734375,0.05117107555270195,-0.03540949523448944,0.0016817087307572365
1761413683852682500,9.5246826171875,0.03928298503160477,-0.03945336863398552,0.00964202731847763
1761413683862696400,9.534696533203125,0.0308799147605896,-0.03968293219804764,0.004783889278769493
1761413683872709600,9.544709716796875,0.020809033885598183,-0.034101810306310654,-0.008035706356167793
1761413683882722300,9.554722412109374,0.010675173252820969,-0.027368538081645966,-0.01945028267800808
1761413683892736500,9.564736572265625,-0.004118624143302441,-0.022950053215026855,-0.020640484988689423
1761413683902749400,9.57474951171875,-0.01678035594522953,-0.01917235739529133,-0.022259686142206192
1761413683912763600,9.584763671875,-0.03194957971572876,-0.0053791203536093235,-0.025387762114405632
1761413683922776600,9.594776611328125,-0.039216548204422,0.002447643782943487,-0.03356286883354187
1761413683932790500,9.60479052734375,-0.04515153914690018,0.0010002832859754562,-0.05008438974618912
1761413683942803500,9.614803466796875,-0.04962751269340515,-0.008973787538707256,-0.06279805302619934
1761413683952817400,9.6248173828125,-0.05190591886639595,-0.015225986950099468,-0.07091920077800751
1761413683962830600,9.63483056640625,-0.05523274093866348,-0.019369598478078842,-0.07375733554363251
1761413683972844500,9.644844482421876,-0.056456927210092545,-0.02522905543446541,-0.07227025926113129
1761413683982857500,9.654857421875,-0.05473678931593895,-0.020704343914985657,-0.06892159581184387
1761413683992871400,9.664871337890625,-0.054403964430093765,-0.003948298282921314,-0.06020370498299599
1761413684002884400,9.67488427734375,-0.050798311829566956,-0.0003903154283761978,-0.051403023302555084
1761413684012898600,9.684898681640625,-0.04771903157234192,0.004009957425296307,-0.04270293936133385
1761413684022911500,9.694911376953126,-0.040831562131643295,0.00785396434366703,-0.03153124824166298
1761413684032925700,9.70492578125,-0.03254866227507591,0.02040300890803337,-0.020042067393660545
1761413684042938400,9.7149384765625,-0.027946719899773598,0.03218536451458931,-0.01461987104266882
1761413684052952600,9.72495263671875,-0.02619682066142559,0.03702469542622566,-0.006925033405423164
1761413684062965500,9.734965576171875,-0.02108461782336235,0.039565883576869965,-0.0024381394032388926
1761413684072979500,9.7449794921875,-0.019084254279732704,0.040621597319841385,-0.006119463127106428
1761413684082992600,9.75499267578125,-0.013835164718329906,0.03413946554064751,-0.012600531801581383
1761413684093006300,9.76500634765625,-0.006814069114625454,0.024451380595564842,-0.017052769660949707
1761413684103019500,9.77501953125,-0.001859257579781115,0.013631755486130714,-0.01579255983233452
1761413684113033500,9.785033447265626,0.0026601983699947596,-0.00612021517008543,-0.012938878498971462
1761413684123046400,9.79504638671875,0.0023123896680772305,-0.02937254123389721,-0.006025578826665878
1761413684133060400,9.805060302734375,0.008587921969592571,-0.027052490040659904,-0.004730389919131994
1761413684143073500,9.815073486328124,0.014723844826221466,-0.01981401816010475,-0.0022363397292792797
1761413684153087500,9.82508740234375,0.019842378795146942,-0.009812818840146065,-0.0030243322253227234
1761413684163100400,9.835100341796876,0.010891759768128395,-0.016895495355129242,-0.008381281048059464
1761413684173113600,9.845113525390625,0.01578458398580551,-0.036535609513521194,-0.03031790442764759
1761413684183127300,9.855127197265626,0.021352987736463547,-0.02152816206216812,-0.043149013072252274
1761413684193140500,9.865140380859375,0.01219578180462122,-0.015599803999066353,-0.0627250075340271
1761413684203154700,9.87515478515625,0.0032582127023488283,-0.024342428892850876,-0.07183568179607391
1761413684213167400,9.88516748046875,0.006212711334228516,0.015280889347195625,-0.07235953211784363
1761413684223181600,9.895181640625,0.0012078328290954232,0.044398557394742966,-0.063738614320755
1761413684233194500,9.905194580078126,-0.0044602295383811,0.04235321283340454,-0.057802923023700714
1761413684243208400,9.91520849609375,-0.00693057756870985,0.02229987643659115,-0.06381846964359283
1761413684253221600,9.9252216796875,-0.00688530970364809,0.022474050521850586,-0.07567353546619415
1761413684263235600,9.935235595703125,-0.018439967185258865,0.002548812422901392,-0.09306184947490692
1761413684273248500,9.94524853515625,-0.030776990577578545,0.0014881067909300327,-0.08234239369630814
1761413684283262500,9.955262451171874,-0.02864779345691204,-0.0019327234476804733,-0.056821051985025406
1761413684293275600,9.965275634765625,-0.016993001103401184,-0.004896425176411867,-0.013663326390087605
1761413684303289300,9.975289306640626,-0.020599719136953354,-0.035436488687992096,0.015391228720545769
1761413684313302500,9.985302490234375,-0.028540678322315216,-0.049748409539461136,0.026978464797139168
