time,seconds_elapsed,z,y,x
1761413687653193700,0.07919384765625,-0.018730437383055687,0.0032034404575824738,0.0039528291672468185
1761413687663207700,0.089207763671875,-0.022805606946349144,0.003965903073549271,-0.0006624291418120265
1761413687673220900,0.099220947265625,-0.02434810996055603,0.010935395024716854,-0.005217233672738075
1761413687683234800,0.10923486328125,-0.026722317561507225,0.010765220038592815,-0.016519157215952873
1761413687693247700,0.119247802734375,-0.026689359918236732,0.029363371431827545,-0.02868550270795822
1761413687703262000,0.129261962890625,-0.02150817960500717,0.048309363424777985,-0.03552716597914696
1761413687713274600,0.139274658203125,-0.02418758161365986,0.06560166925191879,-0.03870337828993797
1761413687723288800,0.149288818359375,-0.02696419321000576,0.06629275530576706,-0.037091635167598724
1761413687733301800,0.1593017578125,-0.035936448723077774,0.05804184824228287,-0.028767477720975876
1761413687743315700,0.169315673828125,-0.046113986521959305,0.04571700468659401,-0.01972018927335739
1761413687753329000,0.179328857421875,-0.05444442108273506,0.039722997695207596,-0.00909735169261694
1761413687763342000,0.189342041015625,-0.05966901034116745,0.039056409150362015,-0.0035939295776188374
1761413687773356000,0.19935595703125,-0.059722140431404114,0.041633084416389465,0.00013496913015842438
1761413687783369000,0.209368896484375,-0.05514150485396385,0.052648186683654785,0.001288650557398796
1761413687793383200,0.219383056640625,-0.053855329751968384,0.05753621831536293,0.0041999490931630135
1761413687803396000,0.22939599609375,-0.04764989763498306,0.05991495028138161,0.005542980972677469
1761413687813410000,0.23941015625,-0.04370475560426712,0.06236262992024422,0.002916877157986164
1761413687823423200,0.24942333984375,-0.04322512075304985,0.06068110838532448,0.007794457022100687
1761413687833437000,0.25943701171875,-0.04429404437541962,0.054225239902734756,0.004420862998813391
1761413687843450000,0.2694501953125,-0.04846642166376114,0.044593386352062225,0.0024506566114723682
1761413687853464000,0.279464111328125,-0.05266629159450531,0.03669854626059532,-0.0018901284784078598
1761413687863477000,0.28947705078125,-0.06161291524767876,0.02110413834452629,-0.004183642566204071
1761413687873491000,0.299490966796875,-0.061386216431856155,0.012197630479931831,-0.006327131763100624
1761413687883504000,0.309504150390625,-0.0616525337100029,0.013909511268138885,-0.01761334203183651
1761413687893518000,0.31951806640625,-0.05721883103251457,0.01838698238134384,-0.03312907740473747
1761413687903531000,0.329531005859375,-0.051408879458904266,0.02065413072705269,-0.04757166653871536
1761413687913545200,0.339545166015625,-0.04524126648902893,0.02152698114514351,-0.05911446735262871
1761413687923558000,0.349557861328125,-0.04180845245718956,0.025592029094696045,-0.06258935481309891
1761413687933571000,0.359571044921875,-0.028933465480804443,0.024071598425507545,-0.06200583279132843
1761413687943585000,0.3695849609375,-0.023286232724785805,0.027320124208927155,-0.06292062252759933
1761413687953598000,0.379597900390625,-0.0010978423524647951,0.03380132466554642,-0.05337413027882576
1761413687963612200,0.389612060546875,0.024367837235331535,0.0456627793610096,-0.03232290595769882
1761413687973624800,0.399624755859375,0.0399605818092823,0.03725288063287735,-0.010923964902758598
1761413687983639000,0.40963916015625,0.06230796501040459,0.030632259324193,0.015768632292747498
1761413687993652200,0.41965234375,0.07759378105401993,0.01963796652853489,0.049382489174604416
1761413688003666000,0.429666015625,0.09639063477516174,0.007813531905412674,0.07402578741312027
1761413688013679000,0.43967919921875,0.11286501586437225,0.007347647100687027,0.09162377566099167
1761413688023693000,0.449693115234375,0.12601490318775177,0.011620421893894672,0.09665315598249435
1761413688033706000,0.4597060546875,0.13277047872543335,0.017637401819229126,0.09646716713905334
1761413688043720000,0.469719970703125,0.13520513474941254,0.022562386468052864,0.08644116669893265
1761413688053733000,0.479733154296875,0.14113673567771912,0.031175415962934494,0.07183787971735
1761413688063746800,0.489746826171875,0.14646011590957642,0.04687475040555,0.06498183310031891
1761413688073760000,0.499760009765625,0.15110275149345398,0.05327988415956497,0.06094319000840187
1761413688083774200,0.509774169921875,0.1453961282968521,0.05067770928144455,0.05919855460524559
1761413688093787000,0.519786865234375,0.13518649339675903,0.04009357467293739,0.054597340524196625
1761413688103800000,0.529800048828125,0.13211187720298767,0.045219630002975464,0.05289052054286003
1761413688113814000,0.53981396484375,0.12988367676734924,0.04463602602481842,0.043352264910936356
1761413688123827000,0.549826904296875,0.12214267253875732,0.03902580961585045,0.02238652855157852
1761413688133841200,0.559841064453125,0.11586266756057739,0.023999594151973724,0.007321943528950214
1761413688143854000,0.56985400390625,0.1063285544514656,0.006267734803259373,-0.007395217195153236
1761413688153868000,0.579867919921875,0.09871311485767365,-0.004332514014095068,-0.02130882255733013
1761413688163881000,0.589880859375,0.08977314829826355,-0.007949086837470531,-0.025285188108682632
1761413688173895200,0.599895263671875,0.08717922866344452,-0.014520566910505295,-0.026088546961545944
1761413688183908000,0.609908203125,0.0808267891407013,-0.026929831132292747,-0.028249170631170273
1761413688193922000,0.619922119140625,0.07329496741294861,-0.03727175295352936,-0.03714831918478012
1761413688203935200,0.629935302734375,0.062025003135204315,-0.04149606078863144,-0.041477020829916
1761413688213949000,0.639948974609375,0.05426594987511635,-0.044030025601387024,-0.04130421206355095
1761413688223962000,0.649962158203125,0.03768111392855644,-0.04911426827311516,-0.03774196654558182
1761413688233976000,0.65997607421875,0.025337232276797295,-0.06172586604952812,-0.02364777773618698
1761413688243989000,0.669989013671875,0.012985490262508392,-0.07812348008155823,-0.006036827340722084
1761413688254003000,0.6800029296875,-0.0011694119311869144,-0.10187911242246628,0.006713016889989376
1761413688264016100,0.69001611328125,-0.01568417251110077,-0.12216094881296158,0.02601587399840355
1761413688274029000,0.700029052734375,-0.028376927599310875,-0.11973673850297928,0.046843208372592926
1761413688284043000,0.71004296875,-0.034627366811037064,-0.0986439660191536,0.06470981985330582
1761413688294056000,0.720055908203125,-0.03733807057142258,-0.0746655985713005,0.07825857400894165
1761413688304070000,0.73006982421875,-0.04597177356481552,-0.04347385838627815,0.0877375602722168
1761413688314083000,0.7400830078125,-0.05471552535891533,-0.020208649337291718,0.0805506706237793
1761413688324097000,0.750096923828125,-0.06403126567602158,0.005857571493834257,0.06268192082643509
1761413688334110000,0.76010986328125,-0.07230697572231293,0.03593308478593826,0.0415053516626358
1761413688344124200,0.770124267578125,-0.08061736822128296,0.05738671123981476,0.018491379916667938
1761413688354136800,0.78013671875,-0.08843154460191727,0.06696147471666336,0.003142093075439334
1761413688364151000,0.790151123046875,-0.09001585841178894,0.07602927088737488,-0.000662765116430819
1761413688374164200,0.800164306640625,-0.09200816601514816,0.07659345865249634,0.007947629317641258
1761413688384178000,0.810177978515625,-0.09444122761487961,0.06855177879333496,0.020344112068414688
1761413688394191000,0.820191162109375,-0.09182840585708618,0.06660154461860657,0.034076690673828125
1761413688404205000,0.830205078125,-0.09486893564462662,0.045967645943164825,0.04208694398403168
1761413688414218000,0.840218017578125,-0.08980247378349304,0.037391096353530884,0.041772279888391495
1761413688424232000,0.85023193359375,-0.08223696798086166,0.04493609815835953,0.04597767814993858
1761413688434245000,0.8602451171875,-0.07690245658159256,0.04903773218393326,0.041045937687158585
1761413688444258000,0.870258056640625,-0.07441426068544388,0.044397443532943726,0.03061646595597267
1761413688454272000,0.88027197265625,-0.06723697483539581,0.04359706491231918,0.02273172326385975
1761413688464285200,0.89028515625,-0.06710674613714218,0.02184596285223961,0.01376565732061863
1761413688474299000,0.900298828125,-0.06258843094110489,-0.00039902515709400177,0.008462654426693916
1761413688484312000,0.91031201171875,-0.06085657328367233,-0.014331884682178497,0.011695732362568378
1761413688494326000,0.920325927734375,-0.06251099705696106,-0.027895396575331688,0.02348850481212139
1761413688504339000,0.9303388671875,-0.0647917240858078,-0.04403282329440117,0.034828510135412216
1761413688514353200,0.940353271484375,-0.06680634617805481,-0.05850759893655777,0.04767449572682381
1761413688524366000,0.950365966796875,-0.07795806974172592,-0.06422673910856247,0.054466355592012405
1761413688534380000,0.960380126953125,-0.08734637498855591,-0.07782064378261566,0.05756742134690285
1761413688544393000,0.97039306640625,-0.10393866151571274,-0.0840630978345871,0.052386507391929626
1761413688554407200,0.9804072265625,-0.11471128463745117,-0.08431269973516464,0.03592637553811073
1761413688564420000,0.990420166015625,-0.11327237635850906,-0.07071646302938461,0.009356550872325897
1761413688574434000,1.00043408203125,-0.1051093190908432,-0.05320927873253822,-0.0194187480956316
1761413688584447200,1.010447265625,-0.09630464762449265,-0.03448006138205528,-0.043823692947626114
1761413688594460000,1.0204599609375,-0.08670468628406525,-0.021854117512702942,-0.060346364974975586
1761413688604474000,1.03047412109375,-0.07864995300769806,-0.006689279340207577,-0.06410062313079834
1761413688614487000,1.040487060546875,-0.07102465629577637,0.0054828994907438755,-0.06160944327712059
1761413688624501000,1.0505009765625,-0.06809224933385849,0.011842261999845505,-0.05096558853983879
1761413688634514200,1.06051416015625,-0.06374823302030563,0.013785235583782196,-0.03253431245684624
1761413688644528000,1.070528076171875,-0.06548088788986206,0.007221876177936792,-0.010221550241112709
1761413688654541000,1.080541015625,-0.07174218446016312,0.003378703258931637,0.005491858348250389
1761413688664555000,1.090554931640625,-0.08089706301689148,0.00637396052479744,0.011934311129152775
1761413688674568000,1.10056787109375,-0.08904993534088135,0.009680874645709991,0.008959758095443249
1761413688684582000,1.110581787109375,-0.09584152698516846,0.022224895656108856,-0.00038633961230516434
1761413688694595000,1.120594970703125,-0.0992458388209343,0.03836391866207123,-0.014782845042645931
1761413688704609300,1.130609375,-0.10482782870531082,0.04607722908258438,-0.03111574612557888
1761413688714622000,1.1406220703125,-0.10837841778993607,0.05241977795958519,-0.048311203718185425
1761413688724636200,1.15063623046875,-0.11061360687017441,0.05892694368958473,-0.04947367310523987
1761413688734648800,1.16064892578125,-0.11501694470643997,0.047327250242233276,-0.048269353806972504
1761413688744663000,1.1706630859375,-0.11387471854686737,0.027699220925569534,-0.03140861168503761
1761413688754676200,1.18067626953125,-0.10738120228052139,0.014584188349545002,-0.00812112633138895
1761413688764688600,1.190688720703125,-0.10157044976949692,0.006873005069792271,0.007367551792412996
1761413688774702800,1.200702880859375,-0.09232914447784424,-0.0027798262890428305,0.02226843684911728
1761413688784715800,1.2107158203125,-0.08363205939531326,-0.007266187109053135,0.027700219303369522
1761413688794729700,1.220729736328125,-0.08184094727039337,-0.007370117120444775,0.03126704692840576
1761413688804743000,1.230742919921875,-0.07813595980405807,-0.010988021269440651,0.023831235244870186
1761413688814756900,1.2407568359375,-0.07438782602548599,-0.007675048895180225,0.021850643679499626
1761413688824769800,1.250769775390625,-0.07106553018093109,-0.009676148183643818,0.016977325081825256
1761413688834783700,1.26078369140625,-0.06956744194030762,-0.014792975969612598,0.005149503704160452
1761413688844797000,1.270796875,-0.0712210014462471,-0.023036524653434753,-0.004359845537692308
1761413688854810600,1.280810546875,-0.07243379950523376,-0.023326946422457695,-0.009771492332220078
1761413688864823800,1.29082373046875,-0.07092059403657913,-0.02985568530857563,-0.009948059916496277
1761413688874837800,1.300837646484375,-0.07418156415224075,-0.039061933755874634,-0.013462953269481659
1761413688884850700,1.3108505859375,-0.07241935282945633,-0.03440326452255249,-0.0196036696434021
1761413688894865000,1.320864990234375,-0.06832940876483917,-0.02381926402449608,-0.026165222749114037
1761413688904877800,1.3308779296875,-0.0680878609418869,-0.01961306668817997,-0.03679123520851135
1761413688914890800,1.340890869140625,-0.06635028123855591,-0.02173740044236183,-0.04065343365073204
1761413688924904700,1.35090478515625,-0.06325861811637878,-0.022973906248807907,-0.04192988947033882
1761413688934918000,1.36091796875,-0.06066203489899635,-0.0287654846906662,-0.036410219967365265
1761413688944931800,1.370931884765625,-0.056935474276542664,-0.028371069580316544,-0.03275769203901291
1761413688954944800,1.38094482421875,-0.052494581788778305,-0.021457206457853317,-0.0301629938185215
1761413688964959000,1.390958984375,-0.04716319963335991,-0.01841108314692974,-0.03250391408801079
1761413688974971600,1.4009716796875,-0.04642370715737343,-0.021937141194939613,-0.03861743584275246
1761413688984985900,1.41098583984375,-0.04796088486909866,-0.028766818344593048,-0.0503542535007
1761413688994999000,1.4209990234375,-0.047349218279123306,-0.041321657598018646,-0.057809315621852875
1761413689005012700,1.4310126953125,-0.044634927064180374,-0.051978565752506256,-0.05417835712432861
1761413689015026000,1.44102587890625,-0.04166650027036667,-0.0562911182641983,-0.035895928740501404
1761413689025040000,1.451039794921875,-0.03434919938445091,-0.05352063477039337,-0.024054981768131256
1761413689035052800,1.461052734375,-0.02764708921313286,-0.0480361208319664,-0.00794767402112484
1761413689045066000,1.47106591796875,-0.019975319504737854,-0.040080726146698,-0.0004399570170789957
1761413689055080000,1.481079833984375,-0.015845291316509247,-0.030179491266608238,0.006237780209630728
1761413689065092900,1.4910927734375,-0.013040716759860516,-0.02464118041098118,0.008034614846110344
1761413689075106800,1.50110693359375,-0.009986333549022675,-0.014239940792322159,0.012936719693243504
1761413689085119700,1.51111962890625,-0.008806020952761173,-0.011996494606137276,0.01775198057293892
1761413689095133700,1.5211337890625,-0.004873801488429308,-0.011005628854036331,0.022135619074106216
1761413689105147000,1.53114697265625,0.0004296176484785974,-0.01352284848690033,0.015701955184340477
1761413689115160800,1.541160888671875,0.004377624019980431,-0.01351306401193142,0.008953585289418697
1761413689125173800,1.551173828125,0.002914483193308115,-0.012760721147060394,-0.0037454315461218357
1761413689135188000,1.56118798828125,-0.0005117409746162593,-0.0067478688433766365,-0.014273145236074924
1761413689145200600,1.57120068359375,-0.0034579960629343987,-0.010643807239830494,-0.021114539355039597
1761413689155214800,1.58121484375,-0.006670831702649593,-0.014161311089992523,-0.021431976929306984
1761413689165227800,1.591227783203125,-0.010320693254470825,-0.013672621920704842,-0.022528665140271187
1761413689175242000,1.601241943359375,-0.007560931146144867,-0.010954763740301132,-0.013758199289441109
1761413689185255000,1.6112548828125,-0.003165383357554674,-0.0037943217903375626,-0.009361054748296738
1761413689195267800,1.621267822265625,-0.0015208139084279537,0.0014566653408110142,-0.004330105613917112
1761413689205281800,1.63128173828125,0.0005266244406811893,0.010223524644970894,-0.012612003833055496
1761413689215294700,1.641294677734375,0.0037986524403095245,0.011524645611643791,-0.0179509986191988
1761413689225309000,1.651308837890625,0.00733825983479619,0.00586116686463356,-0.026530105620622635
1761413689235321900,1.66132177734375,0.009663264267146587,-0.012427657842636108,-0.03144301846623421
1761413689245335800,1.671335693359375,0.008108510635793209,-0.02513306774199009,-0.03126645088195801
1761413689255349000,1.681348876953125,0.0011109880870208144,-0.024056516587734222,-0.029859069734811783
1761413689265362700,1.69136279296875,-0.0035482123494148254,-0.016142401844263077,-0.021680502220988274
1761413689275375900,1.7013759765625,-0.010421096347272396,-0.009475212544202805,-0.012384431436657906
1761413689285389800,1.711389892578125,-0.013405434787273407,-0.006927365902811289,-0.0014574810629710555
1761413689295402800,1.72140283203125,-0.015207935124635696,-0.006844970863312483,0.01247419323772192
1761413689305416700,1.731416748046875,-0.016812754794955254,-0.004678755532950163,0.02621610462665558
1761413689315430000,1.741429931640625,-0.02125723287463188,-0.00730912946164608,0.03820643573999405
1761413689325443800,1.75144384765625,-0.021564029157161713,-0.018212376162409782,0.04031512886285782
1761413689335456800,1.761456787109375,-0.01602065935730934,-0.03292887285351753,0.03631599619984627
1761413689345469700,1.7714697265625,-0.011902878992259502,-0.04199906438589096,0.028856750577688217
1761413689355483600,1.781483642578125,-0.009171944111585617,-0.045954324305057526,0.027053706347942352
1761413689365496800,1.791496826171875,-0.011245215311646461,-0.04743770509958267,0.021980121731758118
1761413689375511000,1.801510986328125,-0.015343948267400265,-0.04916616529226303,0.018355118110775948
1761413689385523700,1.811523681640625,-0.023756874725222588,-0.04960132762789726,0.017569219693541527
1761413689395538000,1.821537841796875,-0.029105303809046745,-0.046212319284677505,0.018327802419662476
1761413689405550600,1.831550537109375,-0.03382149338722229,-0.03690243884921074,0.020923051983118057
1761413689415564800,1.841564697265625,-0.03202938660979271,-0.025230439379811287,0.016425617039203644
1761413689425578000,1.851577880859375,-0.030137477442622185,-0.012758323922753334,0.00978129543364048
1761413689435592000,1.861592041015625,-0.025585804134607315,0.004986219573765993,0.006262547802180052
1761413689445604900,1.87160498046875,-0.017626147717237473,0.008484281599521637,-0.004348550923168659
1761413689455618800,1.881618896484375,-0.01331255678087473,0.003968656994402409,-0.011871731840074062
1761413689465631700,1.8916318359375,-0.01506518293172121,-0.00019173277541995049,-0.021527554839849472
1761413689475645000,1.90164501953125,-0.015662062913179398,0.001383093185722828,-0.02557910606265068
1761413689485659000,1.911658935546875,-0.017686065286397934,-0.002299259649589658,-0.01914624124765396
1761413689495671800,1.921671875,-0.02570304647088051,0.0005474938079714775,-0.017883481457829475
1761413689505685800,1.931685791015625,-0.029942797496914864,0.0039217183366417885,-0.01069054938852787
1761413689515699000,1.941698974609375,-0.03242979198694229,0.004816208966076374,-0.015878330916166306
1761413689525712600,1.951712646484375,-0.034371502697467804,0.01125706359744072,-0.016578208655118942
1761413689535725800,1.961725830078125,-0.034359052777290344,0.014054147526621819,-0.018735051155090332
1761413689545739800,1.97173974609375,-0.03295157104730606,0.018530653789639473,-0.032233014702796936
1761413689555752700,1.981752685546875,-0.03135906532406807,0.022635087370872498,-0.03208198770880699
1761413689565767000,1.991766845703125,-0.035008396953344345,0.028376325964927673,-0.029558107256889343
1761413689575779800,2.00177978515625,-0.03302627429366112,0.030673272907733917,-0.019254310056567192
1761413689585793800,2.011793701171875,-0.03566812723875046,0.030170734971761703,-0.01361826155334711
1761413689595806700,2.021806640625,-0.033783942461013794,0.029491359367966652,-0.005165666341781616
1761413689605820000,2.03181982421875,-0.03256048634648323,0.021525846794247627,-0.00147718854714185
1761413689615833900,2.041833740234375,-0.030707525089383125,0.015787366777658463,0.0009805443696677685
1761413689625846800,2.0518466796875,-0.02567761391401291,0.02588314563035965,0.008996659889817238
1761413689635861000,2.061861083984375,-0.020068995654582977,0.04021214693784714,0.013526036404073238
1761413689645873700,2.071873779296875,-0.017928346991539,0.04570012539625168,0.019234787672758102
1761413689655888000,2.081887939453125,-0.01450145710259676,0.04386570304632187,0.021353106945753098
1761413689665901000,2.091901123046875,-0.011545614339411259,0.036038145422935486,0.02810075879096985
1761413689675914800,2.101914794921875,-0.01686428114771843,0.01860598847270012,0.028904136270284653
1761413689685928000,2.111927978515625,-0.024916348978877068,-0.0026335190050303936,0.032110851258039474
1761413689695942000,2.12194189453125,-0.0329311303794384,-0.018886258825659752,0.035486672073602676
1761413689705954800,2.131954833984375,-0.042707860469818115,-0.027347654104232788,0.038602039217948914
1761413689715968800,2.14196875,-0.04592715948820114,-0.029723092913627625,0.03602265566587448
1761413689725981700,2.151981689453125,-0.04134705662727356,-0.017640065401792526,0.03307799622416496
1761413689735995600,2.16199560546875,-0.03311968594789505,-0.00794585794210434,0.03116047941148281
1761413689746008800,2.1720087890625,-0.025461232289671898,-0.0026911753229796886,0.030041420832276344
1761413689756021800,2.182021728515625,-0.017284393310546875,-0.001376973232254386,0.030292639508843422
1761413689766036200,2.1920361328125,-0.009663226082921028,0.020925402641296387,0.03893619775772095
1761413689776049200,2.202049072265625,0.0013197166845202446,0.006729589309543371,0.04256165027618408
1761413689786063000,2.21206298828125,0.005186626687645912,-0.006664512678980827,0.055218592286109924
1761413689796076000,2.222075927734375,0.013658741489052773,-0.005034758243709803,0.06637893617153168
1761413689806090200,2.23209033203125,0.016571173444390297,-0.015245583839714527,0.07282271981239319
1761413689816103200,2.242103271484375,0.01316006574779749,-0.02927371859550476,0.07333959639072418
1761413689826117400,2.252117431640625,0.006008945871144533,-0.04113543778657913,0.06525157392024994
1761413689836130000,2.262130126953125,0.0035744134802371264,-0.04555927962064743,0.06191360205411911
1761413689846144300,2.272144287109375,-0.002341532614082098,-0.04412543401122093,0.05672150105237961
1761413689856157200,2.2821572265625,-0.004927594680339098,-0.03710700571537018,0.05174225941300392
1761413689866171100,2.292171142578125,-0.006327085662633181,-0.01821693778038025,0.04181239753961563
1761413689876184300,2.302184326171875,-0.006492599844932556,0.0021568420343101025,0.03727724403142929
1761413689886197000,2.312197021484375,-0.010380015708506107,0.024524198845028877,0.03644127398729324
1761413689896211200,2.322211181640625,-0.01537470892071724,0.03609713166952133,0.03821583837270737
1761413689906224000,2.33222412109375,-0.017144644632935524,0.03476501628756523,0.03508609160780907
1761413689916238000,2.342238037109375,-0.0212955791503191,0.01969984918832779,0.037680499255657196
1761413689926251300,2.352251220703125,-0.02847040258347988,0.008149986155331135,0.03333581984043121
1761413689936265200,2.36226513671875,-0.030316241085529327,-0.004391238559037447,0.02762904390692711
1761413689946278100,2.372278076171875,-0.04181656986474991,-0.009560167789459229,0.02277037315070629
1761413689956292000,2.3822919921875,-0.04770561680197716,-0.012506421655416489,0.015784889459609985
1761413689966305300,2.39230517578125,-0.05571107938885689,-0.013576479628682137,0.00892618391662836
1761413689976319000,2.402319091796875,-0.057288333773612976,-0.0031259041279554367,0.005303162150084972
1761413689986332200,2.412332275390625,-0.05871472507715225,0.003149835392832756,0.0053987689316272736
1761413689996346000,2.42234619140625,-0.060501839965581894,0.013403470627963543,0.0029548697639256716
1761413690006359000,2.432359130859375,-0.060376137495040894,0.012519300915300846,0.007822329178452492
1761413690016372200,2.442372314453125,-0.06215912476181984,0.020131947472691536,0.007182357832789421
1761413690026386200,2.45238623046875,-0.06412693113088608,0.02822822332382202,0.00494929775595665
1761413690036399000,2.462399169921875,-0.06680101156234741,0.03151829168200493,-0.00442209979519248
1761413690046413000,2.4724130859375,-0.06782739609479904,0.028835423290729523,-0.01481934729963541
1761413690056426000,2.482426025390625,-0.06591491401195526,0.03190501406788826,-0.026132483035326004
1761413690066440200,2.492440185546875,-0.06391274929046631,0.03339212387800217,-0.03862404078245163
1761413690076453000,2.502453125,-0.056860633194446564,0.035571157932281494,-0.04048988223075867
1761413690086467300,2.51246728515625,-0.05202087014913559,0.03137800842523575,-0.04308939352631569
1761413690096480300,2.522480224609375,-0.041286401450634,0.028621671721339226,-0.04564767703413963
1761413690106494200,2.532494140625,-0.032200492918491364,0.014789480715990067,-0.04245427995920181
1761413690116507100,2.542507080078125,-0.022627759724855423,-0.004196195397526026,-0.03464241698384285
1761413690126521000,2.55252099609375,-0.016272125765681267,-0.021746426820755005,-0.01948663592338562
1761413690136534300,2.5625341796875,-0.00974219013005495,-0.02687174640595913,-0.005566501058638096
1761413690146547200,2.572547119140625,-0.00940556637942791,-0.02657320536673069,0.006896027363836765
1761413690156561200,2.58256103515625,-0.00782810803502798,-0.016323331743478775,0.0042846426367759705
1761413690166574300,2.59257421875,-0.005204095505177975,0.00026203645393252373,-0.0028294597286731005
1761413690176588000,2.602588134765625,-0.004881654400378466,0.01633564569056034,-0.01566227898001671
1761413690186601200,2.612601318359375,-0.005180461332201958,0.0328400544822216,-0.027063004672527313
1761413690196615200,2.622615234375,-0.0044471584260463715,0.04447733610868454,-0.03794819861650467
1761413690206628000,2.632628173828125,-0.0028362125158309937,0.04209141060709953,-0.042494479566812515
1761413690216642000,2.64264208984375,-0.0019469817634671926,0.03301228955388069,-0.036824993789196014
1761413690226655200,2.6526552734375,0.0036352702882140875,0.02615625038743019,-0.027478894218802452
1761413690236669200,2.662669189453125,0.00592119200155139,0.020750101655721664,-0.017083607614040375
1761413690246682000,2.67268212890625,0.01033005490899086,0.012881258502602577,-0.008300768211483955
1761413690256696300,2.6826962890625,0.015060226432979107,0.007737831212580204,-0.001126421382650733
1761413690266709000,2.692708984375,0.020146865397691727,0.003706337884068489,-0.0013120437506586313
1761413690276722200,2.70272216796875,0.024624107405543327,-0.0057836053892970085,-0.006640443112701178
1761413690286736100,2.712736083984375,0.024130357429385185,-0.0008964389562606812,-0.011859173886477947
1761413690296749000,2.7227490234375,0.025568200275301933,0.0061169955879449844,-0.019192174077033997
1761413690306763300,2.73276318359375,0.01971616968512535,0.01632915437221527,-0.02367027848958969
1761413690316776200,2.742776123046875,0.01561922486871481,0.01727500930428505,-0.032538533210754395
1761413690326790100,2.7527900390625,0.013661002740263939,0.02366499789059162,-0.04181565344333649
1761413690336803000,2.762802978515625,0.013540496118366718,0.028135579079389572,-0.05061360448598862
1761413690346817300,2.7728173828125,0.01658102497458458,0.025670824572443962,-0.05449382960796356
1761413690356830200,2.782830322265625,0.01997249759733677,0.02409486472606659,-0.05340120568871498
1761413690366844200,2.79284423828125,0.0266029704362154,0.023824553936719894,-0.05158786103129387
1761413690376857300,2.802857421875,0.030973084270954132,0.01442619040608406,-0.04734832048416138
1761413690386870300,2.812870361328125,0.02981061302125454,-0.0037384319584816694,-0.047203708440065384
1761413690396884200,2.82288427734375,0.026823613792657852,-0.017635472118854523,-0.056940339505672455
1761413690406897200,2.832897216796875,0.02152152732014656,-0.014343004673719406,-0.06607205420732498
1761413690416911000,2.8429111328125,0.0181332528591156,-0.007651912979781628,-0.07269899547100067
1761413690426924300,2.85292431640625,0.01765361614525318,-0.0027261304203420877,-0.07830148190259933
1761413690436938000,2.86293798828125,0.01575571484863758,0.0031957412138581276,-0.07933459430932999
1761413690446951200,2.872951171875,0.018360551446676254,0.000011665746569633484,-0.07199225574731827
1761413690456965000,2.882965087890625,0.0298103466629982,-0.0008837897330522537,-0.05957569181919098
1761413690466978000,2.89297802734375,0.037253882735967636,-0.00971216894686222,-0.042701635509729385
1761413690476992300,2.9029921875,0.041142161935567856,-0.014450697228312492,-0.023438766598701477
1761413690487005200,2.913005126953125,0.04580535739660263,-0.023234069347381592,-0.011136826127767563
1761413690497019100,2.92301904296875,0.04891899228096008,-0.02567971497774124,-0.002621044870465994
1761413690507032000,2.933031982421875,0.04980156198143959,-0.031125612556934357,0.0021705145481973886
1761413690517045200,2.943045166015625,0.0458262637257576,-0.025749357417225838,0.0012318897061049938
1761413690527059200,2.95305908203125,0.04055427014827728,-0.02113862708210945,0.0013850214891135693
1761413690537072000,2.963072021484375,0.038075536489486694,-0.01154532190412283,-0.001836661365814507
1761413690547086300,2.97308642578125,0.03299368917942047,-0.0128742391243577,-0.0022095039021223783
1761413690557099000,2.98309912109375,0.03471289202570915,-0.01282876543700695,-0.009438318200409412
1761413690567113200,2.99311328125,0.03441062569618225,-0.008513911627233028,-0.0064750188030302525
1761413690577126100,3.003126220703125,0.037483714520931244,-0.008696837350726128,-0.0013695008819922805
1761413690587140000,3.01314013671875,0.03968162089586258,-0.004898903425782919,0.004391449503600597
1761413690597153300,3.0231533203125,0.04414235055446625,-0.000939215999096632,0.013552345335483551
1761413690607167200,3.033167236328125,0.046293649822473526,-0.0014326998498290777,0.014189906418323517
1761413690617180200,3.04318017578125,0.04753202199935913,-0.000616973266005516,0.010045774281024933
1761413690627194000,3.053194091796875,0.04230396822094917,0.005488056689500809,0.004061385523527861
1761413690637207300,3.063207275390625,0.03993874788284302,0.015047173015773296,-0.00605939794331789
1761413690647220200,3.07322021484375,0.03511656075716019,0.023147445172071457,-0.010229907929897308
1761413690657234200,3.083234130859375,0.03073732741177082,0.021164756268262863,-0.017172278836369514
1761413690667247000,3.0932470703125,0.030769817531108856,0.024956829845905304,-0.0214218832552433
1761413690677261000,3.103260986328125,0.031867772340774536,0.028740614652633667,-0.02188790962100029
1761413690687274200,3.113274169921875,0.03753524273633957,0.03362805023789406,-0.022282589226961136
1761413690697288200,3.1232880859375,0.04466239735484123,0.029965003952383995,-0.016113754361867905
1761413690707301000,3.133301025390625,0.04902438819408417,0.025765998288989067,-0.015037305653095245
1761413690717315000,3.143315185546875,0.05504872277379036,0.02136632241308689,-0.008323896676301956
1761413690727328000,3.153327880859375,0.057061273604631424,0.020181482657790184,-0.003664963413029909
1761413690737342200,3.16334228515625,0.06259439885616302,0.020225755870342255,-0.000198649475350976
1761413690747355100,3.173355224609375,0.06506340950727463,0.023647120222449303,0.003392623271793127
1761413690757368000,3.1833681640625,0.06849482655525208,0.02999180182814598,-0.0061531830579042435
1761413690767381500,3.193381591796875,0.06747935712337494,0.03655782341957092,-0.011352738365530968
1761413690777394400,3.20339453125,0.06795001029968262,0.035911910235881805,-0.019640900194644928
1761413690787408600,3.21340869140625,0.06898118555545807,0.034102290868759155,-0.026239149272441864
1761413690797421600,3.223421630859375,0.07452449202537537,0.035704419016838074,-0.025793589651584625
1761413690807435500,3.233435546875,0.07969315350055695,0.03741815686225891,-0.019851811230182648
1761413690817448700,3.24344873046875,0.08476980775594711,0.03729252517223358,-0.008391233161091805
1761413690827462400,3.25346240234375,0.09417449682950974,0.03518356755375862,0.001045677810907364
1761413690837475600,3.2634755859375,0.10062965750694275,0.032084278762340546,0.013674836605787277
1761413690847489500,3.273489501953125,0.10624333471059799,0.033772725611925125,0.026887843385338783
1761413690857502500,3.28350244140625,0.10811920464038849,0.03192712366580963,0.028462331742048264
1761413690867516400,3.293516357421875,0.10667683184146881,0.03138357028365135,0.028669526800513268
1761413690877529600,3.303529541015625,0.10142534971237183,0.02574153058230877,0.02327994629740715
1761413690887542500,3.31354248046875,0.09862210601568222,0.024677064269781113,0.024198470637202263
1761413690897556500,3.323556396484375,0.09927970916032791,0.02369851805269718,0.022124767303466797
1761413690907569700,3.333569580078125,0.09336535632610321,0.01761079952120781,0.020110350102186203
1761413690917583400,3.343583251953125,0.09263351559638977,0.013920590281486511,0.016177549958229065
1761413690927596500,3.353596435546875,0.09597072005271912,0.01615152135491371,0.010061601176857948
1761413690937610800,3.36361083984375,0.09907817095518112,0.02485516294836998,0.0012841708958148956
1761413690947623400,3.37362353515625,0.098918117582798,0.03455838933587074,-0.002190189203247428
1761413690957637600,3.3836376953125,0.09581200778484344,0.04487091675400734,-0.00394462188705802
1761413690967650600,3.393650634765625,0.09427482634782791,0.05421115458011627,0.0017236501444131136
1761413690977664500,3.40366455078125,0.09199482202529907,0.09849736094474792,0.016331087797880173
1761413690987677700,3.413677734375,0.08064229786396027,0.08446010202169418,0.0177481546998024
1761413690997691600,3.423691650390625,0.07648225128650665,0.059699393808841705,0.006370037794113159
1761413691007704600,3.43370458984375,0.08366852253675461,0.07259362190961838,-0.0022713877260684967
1761413691017717500,3.443717529296875,0.08699973672628403,0.07566271722316742,-0.010109659284353256
1761413691027731500,3.4537314453125,0.08708468824625015,0.053838908672332764,-0.020197179168462753
1761413691037744600,3.46374462890625,0.08423137664794922,0.03716006875038147,-0.019180387258529663
1761413691047758600,3.473758544921875,0.08713209629058838,0.03650519251823425,-0.012134993448853493
1761413691057771500,3.483771484375,0.08851201087236404,0.027138125151395798,-0.007208481431007385
1761413691067785500,3.493785400390625,0.08587654680013657,0.017322245985269547,-0.005775434896349907
1761413691077798700,3.503798583984375,0.085030198097229,0.010208542458713055,-0.00614495575428009
1761413691087812400,3.513812255859375,0.0875420868396759,0.014698632061481476,-0.005911928601562977
1761413691097825500,3.523825439453125,0.08340519666671753,0.025861438363790512,-0.010459430515766144
1761413691107839500,3.533839599609375,0.0830046609044075,0.036098893731832504,-0.013898903504014015
1761413691117852400,3.543852294921875,0.08400827646255493,0.04076415300369263,-0.019054992124438286
1761413691127865600,3.553865478515625,0.08022285997867584,0.036111876368522644,-0.01951172575354576
1761413691137879600,3.563879638671875,0.07412508130073547,0.028037741780281067,-0.03022298589348793
1761413691147892500,3.573892578125,0.06207587569952011,0.01384682022035122,-0.04170813411474228
1761413691157906400,3.583906494140625,0.05339110642671585,0.005292248912155628,-0.05172562971711159
1761413691167919600,3.593919677734375,0.04530734941363335,0.0044514890760183334,-0.05923867225646973
1761413691177933600,3.60393359375,0.034349773079156876,0.004330181051045656,-0.06152062490582466
1761413691187946500,3.613946533203125,0.034599579870700836,0.006386940833181143,-0.06264128535985947
1761413691197960700,3.623960693359375,0.03110610879957676,0.01155736856162548,-0.05606928840279579
1761413691207973400,3.633973388671875,0.029620597139000893,0.019937803968787193,-0.042308468371629715
1761413691217987600,3.643987548828125,0.02717967890202999,0.02254057675600052,-0.025945277884602547
1761413691228000800,3.654000732421875,0.0288004782050848,0.017345283180475235,-0.004730269778519869
1761413691238013400,3.664013427734375,0.029385840520262718,0.011163951829075813,0.017124556005001068
1761413691248027600,3.674027587890625,0.03175925090909004,0.018446367233991623,0.03577201068401337
1761413691258040300,3.684040283203125,0.033941976726055145,0.02451304718852043,0.047770868986845016
1761413691268054500,3.694054443359375,0.036532431840896606,0.0316881388425827,0.056665826588869095
1761413691278067700,3.704067626953125,0.03611711412668228,0.037907086312770844,0.059386592358350754
1761413691288081700,3.71408154296875,0.02858595922589302,0.03491848707199097,0.06795984506607056
1761413691298094600,3.724094482421875,0.027325883507728577,0.03905203938484192,0.07914929836988449
1761413691308108500,3.734108642578125,0.02981407567858696,0.04709266126155853,0.08610893785953522
1761413691318121500,3.74412158203125,0.031403783708810806,0.043142691254615784,0.08676189929246902
1761413691328135400,3.754135498046875,0.03852134943008423,0.03534868359565735,0.0781785324215889
1761413691338148600,3.764148681640625,0.05327020213007927,0.023209862411022186,0.06388283520936966
1761413691348162600,3.77416259765625,0.06573992222547531,0.008448759093880653,0.05749497935175896
1761413691358175500,3.784175537109375,0.0760730504989624,-0.014522036537528038,0.04960427060723305
1761413691368188700,3.794188720703125,0.08447239547967911,-0.030799010768532753,0.047716621309518814
1761413691378202400,3.804202392578125,0.08918465673923492,-0.03792213276028633,0.05127803981304169
1761413691388215600,3.814215576171875,0.0937676876783371,-0.05107788369059563,0.052661020308732986
1761413691398229500,3.8242294921875,0.09000977128744125,-0.06071023643016815,0.04890165850520134
1761413691408242400,3.834242431640625,0.08250924944877625,-0.06319256871938705,0.05095069482922554
1761413691418256600,3.844256591796875,0.08009562641382217,-0.055680058896541595,0.047130122780799866
1761413691428269600,3.85426953125,0.07206326723098755,-0.04353711009025574,0.041063178330659866
1761413691438283500,3.864283447265625,0.06956841796636581,-0.020880799740552902,0.024393919855356216
1761413691448296400,3.87429638671875,0.07329417765140533,0.006025649607181549,0.014613993465900421
1761413691458310700,3.884310546875,0.07725249975919724,0.03260815888643265,0.00939962174743414
1761413691468323600,3.894323486328125,0.08142833411693573,0.048960231244564056,0.012523243203759193
1761413691478336500,3.90433642578125,0.08417265862226486,0.05183574929833412,0.0238807275891304
1761413691488350700,3.914350830078125,0.0839468240737915,0.04786071553826332,0.035216208547353745
1761413691498363400,3.92436328125,0.07700156420469284,0.040774840861558914,0.04602331295609474
1761413691508377600,3.934377685546875,0.06988420337438583,0.03205082565546036,0.053219765424728394
1761413691518390500,3.944390625,0.05979061871767044,0.027889937162399292,0.046899229288101196
1761413691528404500,3.954404541015625,0.05007727071642876,0.02161792479455471,0.04470851272344589
1761413691538417700,3.964417724609375,0.033795569092035294,0.023722387850284576,0.037038300186395645
1761413691548431600,3.974431640625,0.023455845192074776,0.03536146879196167,0.022634325549006462
1761413691558444500,3.984444580078125,0.012388747185468674,0.06013641878962517,0.008924290537834167
1761413691568458500,3.99445849609375,0.0031901895999908447,0.055437274277210236,-0.008623810485005379
1761413691578471400,4.004471435546875,-0.0010845835786312819,0.046143706887960434,-0.026619642972946167
1761413691588484600,4.014484619140625,-0.0011756636667996645,0.04930701106786728,-0.03452630341053009
1761413691598498600,4.02449853515625,-0.004942971281707287,0.046538520604372025,-0.03938271850347519
1761413691608511500,4.034511474609375,-0.013570280745625496,0.027827419340610504,-0.04082295671105385
1761413691618525400,4.044525390625,-0.01860099285840988,0.0159732885658741,-0.04402366653084755
1761413691628538600,4.05453857421875,-0.025773685425519943,0.00959555059671402,-0.04409823566675186
1761413691638552300,4.06455224609375,-0.03191053867340088,0.011698449030518532,-0.04319176822900772
1761413691648565500,4.0745654296875,-0.035253074020147324,0.007086120545864105,-0.04832341521978378
1761413691658579700,4.084579833984375,-0.03474787250161171,0.004630818963050842,-0.05248873680830002
1761413691668592400,4.09459228515625,-0.04035862162709236,0.007073470391333103,-0.05314786732196808
1761413691678606600,4.104606689453125,-0.04452073946595192,0.01056068018078804,-0.053616106510162354
1761413691688619500,4.11461962890625,-0.0470115952193737,0.011291185393929482,-0.05598818510770798
1761413691698633500,4.124633544921875,-0.05162159353494644,0.012022987008094788,-0.05558548867702484
1761413691708646700,4.134646728515625,-0.05876418948173523,0.018678227439522743,-0.058024678379297256
1761413691718659600,4.14465966796875,-0.06208382174372673,0.01856198161840439,-0.052739474922418594
1761413691728673500,4.154673583984375,-0.06646818667650223,0.01970900595188141,-0.050388969480991364
1761413691738686500,4.1646865234375,-0.07164835929870605,0.004038798622786999,-0.049539804458618164
1761413691748700700,4.17470068359375,-0.07566574215888977,-0.012581989169120789,-0.04580658674240112
1761413691758713600,4.184713623046875,-0.076514832675457,-0.015834275633096695,-0.039008304476737976
1761413691768727300,4.194727294921875,-0.08003392815589905,-0.008659719489514828,-0.03554512932896614
1761413691778740500,4.204740478515625,-0.07890354841947556,-0.007875884883105755,-0.023410508409142494
1761413691788754400,4.21475439453125,-0.07919836044311523,-0.00920293852686882,-0.015155240893363953
1761413691798767400,4.224767333984375,-0.0819346234202385,-0.013425977900624275,-0.007920945063233376
1761413691808780500,4.234780517578125,-0.07967360317707062,-0.018470805138349533,-0.006752615794539452
1761413691818794500,4.24479443359375,-0.08069971948862076,-0.02620542421936989,-0.002205046359449625
1761413691828807400,4.254807373046875,-0.07640537619590759,-0.031407907605171204,-0.0016652236226946115
1761413691838821400,4.2648212890625,-0.07269179075956345,-0.030241411179304123,0.0018703602254390717
1761413691848834600,4.27483447265625,-0.0696222260594368,-0.024961961433291435,0.005632075481116772
1761413691858848300,4.28484814453125,-0.06854245811700821,-0.02682597003877163,0.0032023245003074408
1761413691868861400,4.294861328125,-0.06600126624107361,-0.034737423062324524,0.00019561569206416607
1761413691878875400,4.30487548828125,-0.0632796511054039,-0.034034550189971924,-0.0014178298879414797
1761413691888888300,4.314888427734375,-0.061687346547842026,-0.02980092540383339,-0.0007946502882987261
1761413691898902500,4.324902587890625,-0.06370861083269119,-0.02053695172071457,0.00047286110930144787
1761413691908915500,4.33491552734375,-0.06259115040302277,-0.017078835517168045,0.008778195828199387
1761413691918928400,4.344928466796875,-0.06510098278522491,-0.018392741680145264,0.010828731581568718
1761413691928942300,4.3549423828125,-0.06434464454650879,-0.016656359657645226,0.013507605530321598
1761413691938955300,4.364955322265625,-0.06091036647558212,-0.013652779161930084,0.011862782761454582
1761413691948969500,4.374969482421875,-0.056826408952474594,-0.009360296651721,0.013249756768345833
1761413691958982400,4.384982421875,-0.05316409468650818,-0.010140103287994862,0.011377315036952496
1761413691968996600,4.39499658203125,-0.0474470891058445,-0.012616310268640518,0.010967721231281757
1761413691979009300,4.40500927734375,-0.04304095730185509,-0.009494585916399956,0.010251907631754875
1761413691989023500,4.4150234375,-0.04024730250239372,-0.005447113420814276,0.006991133093833923
1761413691999036400,4.425036376953125,-0.043658677488565445,-0.0023175666574388742,0.003329482162371278
1761413692009050400,4.43505029296875,-0.04537508264183998,-0.002123954938724637,-0.005581188481301069
1761413692019063600,4.4450634765625,-0.0471641942858696,-0.007514193654060364,-0.014675101265311241
1761413692029077500,4.455077392578125,-0.04636923968791962,-0.007893960922956467,-0.02465556189417839
1761413692039090400,4.46509033203125,-0.04665566235780716,-0.012354156002402306,-0.032477620989084244
1761413692049103600,4.475103515625,-0.044716883450746536,-0.009208430536091328,-0.03677702695131302
1761413692059117300,4.485117431640625,-0.036838650703430176,0.0016638245433568954,-0.03843846172094345
1761413692069130500,4.495130615234375,-0.026629691943526268,0.010450923815369606,-0.03841662406921387
1761413692079144400,4.50514453125,-0.01699097827076912,0.0035676853731274605,-0.034377362579107285
1761413692089157400,4.515157470703125,-0.0058403233997523785,-0.001223607687279582,-0.031015655025839806
1761413692099171300,4.52517138671875,0.001128636416979134,-0.009685669094324112,-0.025463370606303215
1761413692109184500,4.5351845703125,0.004519373178482056,-0.005335661582648754,-0.01917458139359951
1761413692119198200,4.5451982421875,0.0077775511890649796,-0.002796970307826996,-0.019992608577013016
1761413692129211400,4.55521142578125,0.006652099080383778,0.002064097672700882,-0.02273326739668846
1761413692139224600,4.565224609375,0.0028300632257014513,0.00218959990888834,-0.014592837542295456
1761413692149238300,4.57523828125,-0.0005694619030691683,0.001987998839467764,-0.011050567030906677
1761413692159251500,4.58525146484375,-0.002674690680578351,0.00221942737698555,-0.006269393023103476
1761413692169265400,4.595265380859375,-0.0012621501227840781,0.006445864215493202,-0.0012701071100309491
1761413692179278300,4.6052783203125,-0.0004393669660203159,0.005089849233627319,0.0025767749175429344
1761413692189292500,4.61529248046875,0.0033543058671057224,0.008525327779352665,0.0059707071632146835
1761413692199305200,4.62530517578125,0.013126309961080551,0.007424809504300356,0.009157011285424232
1761413692209319400,4.6353193359375,0.015503181144595146,-0.0026195691898465157,0.009276053868234158
1761413692219332400,4.645332275390625,0.017186032608151436,-0.014802064746618271,0.0063256798312067986
1761413692229346600,4.6553466796875,0.011596056632697582,-0.022698869928717613,-0.001592430635355413
1761413692239359500,4.665359375,0.006225127261132002,-0.016148360446095467,-0.005653697066009045
1761413692249372400,4.675372314453125,-0.005127661861479282,-0.0009198738262057304,-0.009999177418649197
1761413692259386400,4.685386474609375,-0.016502689570188522,0.007260890677571297,-0.015742087736725807
1761413692269399300,4.6953994140625,-0.024288706481456757,0.016699932515621185,-0.021514490246772766
1761413692279413500,4.70541357421875,-0.031537432223558426,0.014016597531735897,-0.02411860041320324
1761413692289426400,4.715426513671875,-0.03444906696677208,0.004901662468910217,-0.02881162241101265
1761413692299440400,4.7254404296875,-0.03833501785993576,-0.00071713887155056,-0.02932792156934738
1761413692309453600,4.73545361328125,-0.038850072771310806,-0.006050918251276016,-0.026296978816390038
1761413692319467300,4.74546728515625,-0.03674131631851196,-0.007991131395101547,-0.018996089696884155
1761413692329480400,4.75548046875,-0.03948543593287468,-0.006848102435469627,-0.008047569543123245
1761413692339494400,4.765494384765625,-0.039396222680807114,-0.007306965999305248,0.002376292832195759
1761413692349507300,4.77550732421875,-0.04041594639420509,-0.005535697564482689,0.010253923013806343
1761413692359520500,4.7855205078125,-0.037625882774591446,-0.003978746477514505,0.018265455961227417
1761413692369534500,4.795534423828125,-0.03782109543681145,-0.0013826971407979727,0.02226366102695465
1761413692379547400,4.80554736328125,-0.04362298920750618,-0.00343636074103415,0.029087310656905174
1761413692389561300,4.815561279296875,-0.04565338417887688,0.0035203485749661922,0.027213510125875473
1761413692399574500,4.825574462890625,-0.049123816192150116,0.01651960238814354,0.03142651543021202
1761413692409588200,4.835588134765625,-0.05401231348514557,0.02939758449792862,0.02461228519678116
1761413692419601400,4.845601318359375,-0.05523277074098587,0.031033067032694817,0.019871564581990242
1761413692429615600,4.85561572265625,-0.056895118206739426,0.03344216197729111,0.014130055904388428
1761413692439628300,4.865628173828125,-0.05799287557601929,0.0325341559946537,0.003756903111934662
1761413692449642500,4.875642578125,-0.05862271040678024,0.03534645214676857,-0.004597699269652367
1761413692459655400,4.885655517578125,-0.057756319642066956,0.03516712784767151,-0.009064754471182823
1761413692469668400,4.89566845703125,-0.053781550377607346,0.0387892909348011,-0.020753901451826096
1761413692479682600,4.9056826171875,-0.04981670156121254,0.041249483823776245,-0.02039463073015213
1761413692489695200,4.9156953125,-0.04235212877392769,0.03056727908551693,-0.031910672783851624
1761413692499709400,4.92570947265625,-0.033599916845560074,0.02796151116490364,-0.039748743176460266
1761413692509722400,4.935722412109375,-0.029463494196534157,0.03738909959793091,-0.03840997442603111
1761413692519736600,4.945736572265625,-0.02662236988544464,0.02998647838830948,-0.03596454858779907
1761413692529749500,4.95574951171875,-0.027916399762034416,0.011364059522747993,-0.046448614448308945
1761413692539763500,4.965763427734375,-0.03193757310509682,0.00873521901667118,-0.06047651916742325
1761413692549776400,4.9757763671875,-0.03398527950048447,0.021569790318608284,-0.07005377858877182
1761413692559789300,4.985789306640625,-0.032290440052747726,0.02870413288474083,-0.06983490288257599
1761413692569803500,4.995803466796875,-0.028779327869415283,0.021281635388731956,-0.06139587610960007
1761413692579816400,5.00581640625,-0.028318336233496666,0.00845864787697792,-0.043775975704193115
1761413692589830400,5.015830322265625,-0.024981660768389702,0.003617288079112768,-0.01980326697230339
1761413692599843600,5.025843505859375,-0.01850838214159012,-0.00012821564450860023,-0.008741801604628563
1761413692609857300,5.035857177734375,-0.014994872733950615,-0.009168049320578575,0.00004130392335355282
1761413692619870500,5.045870361328125,-0.011982638388872147,-0.013321016915142536,-0.0037123942747712135
1761413692629884400,5.055884521484375,-0.009925613179802895,-0.01132444478571415,-0.009817690588533878
1761413692639897300,5.0658974609375,-0.011085489764809608,-0.0046567171812057495,-0.013112476095557213
1761413692649911300,5.075911376953125,-0.017397981137037277,0.0024352804757654667,-0.022587737068533897
1761413692659924500,5.085924560546875,-0.022202054038643837,0.010473898611962795,-0.024726396426558495
1761413692669937400,5.0959375,-0.030509253963828087,0.019112659618258476,-0.0265037901699543
1761413692679951400,5.105951416015625,-0.03486612066626549,0.024070966988801956,-0.018187830224633217
1761413692689964300,5.11596435546875,-0.03452496975660324,0.022750038653612137,-0.008445453830063343
1761413692699978200,5.125978271484375,-0.03205355629324913,0.016592808067798615,-0.0010304327588528395
1761413692709991400,5.135991455078125,-0.03150733932852745,0.009002267383038998,-0.0004852837882936001
1761413692720005600,5.146005615234375,-0.029938137158751488,0.005668687168508768,0.001854117726907134
1761413692730018300,5.156018310546875,-0.029130667448043823,0.0008883131667971611,0.005471755750477314
1761413692740032500,5.166032470703125,-0.029583273455500603,-0.00016556261107325554,0.012512726709246635
1761413692750045200,5.176045166015625,-0.02727777510881424,0.009908110834658146,0.020865730941295624
1761413692760059400,5.186059326171875,-0.027633437886834145,0.011293947696685791,0.025334801524877548
1761413692770072600,5.196072509765625,-0.03421277552843094,-0.0032647540792822838,0.024337980896234512
1761413692780085500,5.20608544921875,-0.03904009237885475,-0.003983838949352503,0.012143958359956741
1761413692790099700,5.216099609375,-0.03667360544204712,0.009577509947121143,-0.0023042226675897837
1761413692800112400,5.2261123046875,-0.03951186686754227,0.016289006918668747,-0.006589069962501526
1761413692810126600,5.236126708984375,-0.04392685368657112,0.02219669707119465,-0.011619782075285912
1761413692820139500,5.246139404296875,-0.04986650496721268,0.03427572920918465,-0.01650586538016796
1761413692830153500,5.256153564453125,-0.0541352853178978,0.05269948020577431,-0.01943907141685486
1761413692840166700,5.266166748046875,-0.05816284939646721,0.06686998903751373,-0.02123522199690342
1761413692850180600,5.2761806640625,-0.06125318259000778,0.06241532415151596,-0.021552670747041702
1761413692860193500,5.286193603515625,-0.06395576149225235,0.06021755188703537,-0.025118734687566757
1761413692870206700,5.296206787109375,-0.05455533787608147,0.04883493855595589,-0.02374986931681633
1761413692880220700,5.306220703125,-0.044335320591926575,0.031736306846141815,-0.020078931003808975
1761413692890233600,5.316233642578125,-0.03846864402294159,0.012915216386318207,-0.015623463317751884
1761413692900247600,5.32624755859375,-0.03007262758910656,-0.0005346126854419708,-0.009373752400279045
1761413692910260500,5.336260498046875,-0.02490023523569107,-0.009948087856173515,-0.006314845755696297
1761413692920274400,5.3462744140625,-0.021073874086141586,-0.013602908700704575,-0.0038842582143843174
1761413692930287600,5.35628759765625,-0.01700323261320591,-0.012265734374523163,-0.008302176371216774
1761413692940301300,5.36630126953125,-0.015117445960640907,-0.005729142110794783,-0.00861951895058155
1761413692950314500,5.376314453125,-0.014414104633033276,-0.0001335744746029377,-0.013527723960578442
1761413692960328700,5.38632861328125,-0.010834552347660065,0.000826497096568346,-0.020521434023976326
1761413692970341400,5.39634130859375,-0.010466502979397774,-0.0008206679485738277,-0.022682590410113335
1761413692980354600,5.4063544921875,-0.00437891436740756,-0.003798816818743944,-0.020732976496219635
1761413692990368500,5.416368408203125,-0.002899262122809887,-0.013700183480978012,-0.016105733811855316
1761413693000381400,5.42638134765625,0.0019379663281142712,-0.010991010814905167,-0.002563720801845193
1761413693010395600,5.436395751953125,0.005753477569669485,-0.008613075129687786,0.0057812947779893875
1761413693020408600,5.44640869140625,0.007396917324513197,-0.006882557179778814,0.019290409982204437
1761413693030422500,5.456422607421875,0.011004435829818249,-0.008123324252665043,0.02531927265226841
1761413693040435500,5.466435546875,0.005042218137532473,-0.008454455994069576,0.022299064323306084
1761413693050449700,5.47644970703125,0.005281103774905205,-0.008862718939781189,0.01986307092010975
1761413693060462600,5.486462646484375,0.0002884067362174392,-0.003983171656727791,0.016922609880566597
1761413693070475500,5.4964755859375,-0.002651456743478775,0.003274741116911173,0.005384997930377722
1761413693080489700,5.50648974609375,-0.0037386270705610514,0.008234580047428608,-0.003597266972064972
1761413693090502400,5.51650244140625,-0.006520565133541822,0.012767013162374496,-0.013537248596549034
1761413693100516600,5.5265166015625,-0.007353600114583969,0.014915650710463524,-0.02041008695960045
1761413693110529500,5.536529541015625,0.00047422939678654075,0.01622326299548149,-0.014219037257134914
1761413693120543500,5.54654345703125,-0.0012902484741061926,0.00853811390697956,-0.009273208677768707
1761413693130556700,5.556556640625,0.0015428222250193357,0.002509781625121832,0.004886019043624401
1761413693140570600,5.566570556640625,0.0056186579167842865,0.0017961193807423115,0.020693408325314522
1761413693150583600,5.57658349609375,0.006815215572714806,0.005892860237509012,0.030832329764962196
1761413693160596700,5.5865966796875,0.013141089119017124,0.01145051047205925,0.02844223752617836
1761413693170610400,5.5966103515625,0.01899072341620922,0.011986339464783669,0.024685315787792206
1761413693180623600,5.60662353515625,0.02079048566520214,0.010201757773756981,0.008489586412906647
1761413693190637600,5.616637451171875,0.021432306617498398,-0.0010325214825570583,-0.009552263654768467
1761413693200650500,5.626650390625,0.022752171382308006,-0.011782238259911537,-0.030438780784606934
1761413693210664400,5.63666455078125,0.0209132581949234,-0.014181481674313545,-0.04309705272316933
1761413693220677600,5.646677734375,0.022531995549798012,-0.013898622244596481,-0.039881326258182526
1761413693230691300,5.65669140625,0.020510921254754066,-0.01196330226957798,-0.03087425045669079
1761413693240704500,5.66670458984375,0.018509089946746826,-0.01164395734667778,-0.013285447843372822
1761413693250718700,5.67671875,0.019939741119742393,-0.006941346917301416,0.0006330313626676798
1761413693260731400,5.6867314453125,0.023852190002799034,-0.0024987938813865185,0.015366045758128166
1761413693270744600,5.69674462890625,0.02279571443796158,-0.0017142265569418669,0.019891822710633278
1761413693280758500,5.706758544921875,0.02060672827064991,-0.005820887628942728,0.0261071790009737
1761413693290771500,5.716771484375,0.018932931125164032,-0.005740460008382797,0.028226787224411964
1761413693300785700,5.72678564453125,0.01423691213130951,-0.008181012235581875,0.028744017705321312
1761413693310798600,5.736798583984375,0.009514860808849335,-0.012237273156642914,0.03210492804646492
1761413693320812500,5.7468125,0.005679510533809662,-0.013864131644368172,0.02843954786658287
1761413693330825500,5.756825439453125,0.0008235024870373309,-0.014442836865782738,0.03330061584711075
1761413693340839700,5.766839599609375,-0.004530185367912054,-0.01515186857432127,0.02554427646100521
1761413693350852600,5.7768525390625,-0.01246374286711216,-0.0077219149097800255,0.020441392436623573
1761413693360865500,5.786865478515625,-0.015510529279708862,-0.006085073109716177,0.019399741664528847
1761413693370879700,5.796879638671875,-0.0178501158952713,0.011540792882442474,0.02458544820547104
1761413693380892400,5.806892333984375,-0.02088572084903717,0.0034637595526874065,0.0249963216483593
1761413693390906600,5.81690673828125,-0.013799316249787807,0.004890414420515299,0.008795779198408127
1761413693400919600,5.82691943359375,-0.005562623962759972,0.008477458730340004,0.0022411628160625696
1761413693410933500,5.83693359375,-0.0037239775992929935,0.014539079740643501,0.0030763300601392984
1761413693420946700,5.84694677734375,-0.0029083851259201765,0.006952999625355005,0.004996540490537882
1761413693430960600,5.856960693359375,-0.0008705342188477516,-0.004257044289261103,-0.0010709395864978433
1761413693440973600,5.8669736328125,0.002411076333373785,-0.0028932031709700823,-0.005133599042892456
1761413693450986500,5.876986572265625,0.0006046541966497898,-0.005229327827692032,-0.0027114544063806534
1761413693461000400,5.88700048828125,0.0007434730068780482,-0.014372461475431919,-0.004364257678389549
1761413693471013600,5.897013671875,0.005369383376091719,-0.005668185651302338,-0.009929731488227844
1761413693481027600,5.907027587890625,0.008172227069735527,0.0029643853195011616,-0.012990697287023067
1761413693491040500,5.91704052734375,0.011980547569692135,0.004959359299391508,-0.019490942358970642
1761413693501054500,5.927054443359375,0.013070379383862019,-0.0011463039554655552,-0.018678579479455948
1761413693511067600,5.937067626953125,0.013542824424803257,-0.013256496749818325,-0.019367005676031113
1761413693521081300,5.947081298828125,0.007324677892029285,-0.02022356167435646,-0.009104293771088123
1761413693531094500,5.957094482421875,0.0015762443654239178,-0.022114405408501625,-0.00013476726599037647
1761413693541107700,5.967107666015625,-0.005033389199525118,-0.016446631401777267,0.010127697139978409
1761413693551121400,5.977121337890625,-0.009156495332717896,-0.011810334399342537,0.022607270628213882
1761413693561134600,5.987134521484375,-0.0037172548472881317,-0.01332780346274376,0.03340185806155205
1761413693571148500,5.9971484375,-0.004196623805910349,-0.027268653735518456,0.03430520370602608
1761413693581161500,6.007161376953125,0.0000521843321621418,-0.03789879381656647,0.03149329870939255
