time,seconds_elapsed,z,y,x
1761413441401598000,0.077597900390625,0.01609164848923683,0.01906702108681202,-0.08446907252073288
1761413441411612000,0.08761181640625,0.005414768122136593,-0.028808625414967537,-0.08435322344303131
1761413441421624800,0.097624755859375,-0.005646443925797939,-0.09355039149522781,-0.07391173392534256
1761413441431639000,0.10763916015625,-0.013286253437399864,-0.15429390966892242,-0.06210567429661751
1761413441441651700,0.117651611328125,-0.018783364444971085,-0.19646614789962769,-0.05896018072962761
1761413441451666000,0.127666015625,-0.025421559810638428,-0.21043282747268677,-0.055626437067985535
1761413441461679000,0.13767919921875,-0.03459388017654419,-0.20070716738700867,-0.05637245625257492
1761413441471692800,0.14769287109375,-0.049424756318330765,-0.18406161665916443,-0.060985319316387177
1761413441481706800,0.157706787109375,-0.06723844259977341,-0.16115953028202057,-0.05754634365439415
1761413441491720000,0.167719970703125,-0.0893690437078476,-0.14309769868850708,-0.05875967815518379
1761413441501734000,0.17773388671875,-0.1111527755856514,-0.12059871107339859,-0.06583043932914734
1761413441511746000,0.18774609375,-0.12453676015138626,-0.09712720662355423,-0.06554681062698364
1761413441521760300,0.19776025390625,-0.13858453929424286,-0.09226153790950775,-0.06543183326721191
1761413441531773400,0.2077734375,-0.15114480257034302,-0.13940215110778809,-0.06585180759429932
1761413441541787100,0.217787109375,-0.14953166246414185,-0.21976327896118164,-0.0785929411649704
1761413441551800300,0.22780029296875,-0.14785119891166687,-0.3061876595020294,-0.09760711342096329
1761413441561814300,0.237814208984375,-0.13371926546096802,-0.35734012722969055,-0.11610881984233856
1761413441571827200,0.2478271484375,-0.11443346738815308,-0.31812453269958496,-0.12416008859872818
1761413441581841200,0.257841064453125,-0.10349538177251816,-0.2665034532546997,-0.11805636435747147
1761413441591854300,0.267854248046875,-0.11249659955501556,-0.2434607297182083,-0.10393867641687393
1761413441601868000,0.277867919921875,-0.12683458626270294,-0.20993715524673462,-0.07325822860002518
1761413441611881200,0.287881103515625,-0.1366073191165924,-0.13771888613700867,-0.03601844608783722
1761413441621895400,0.2978955078125,-0.14051836729049683,-0.05546233430504799,-0.008419877849519253
1761413441631908000,0.307908203125,-0.14182357490062714,0.02287854067981243,0.0006258150096982718
1761413441641922300,0.31792236328125,-0.14529722929000854,0.07804324477910995,-0.022085053846240044
1761413441651936300,0.327936279296875,-0.15148349106311798,0.11825963854789734,-0.05914613977074623
1761413441661949200,0.33794921875,-0.15402305126190186,0.12560275197029114,-0.09949808567762375
1761413441671963100,0.347963134765625,-0.15237508714199066,0.11976856738328934,-0.11384560167789459
1761413441681976300,0.357976318359375,-0.14674724638462067,0.12361060827970505,-0.10219896584749222
1761413441691990300,0.367990234375,-0.14216767251491547,0.14935247600078583,-0.06547769904136658
1761413441702003200,0.378003173828125,-0.12858067452907562,0.19842684268951416,-0.014875014312565327
1761413441712017400,0.388017333984375,-0.11781138926744461,0.2770923674106598,0.039550408720970154
1761413441722030000,0.398030029296875,-0.09914983063936234,0.35204967856407166,0.07034134864807129
1761413441732044300,0.408044189453125,-0.08438367396593094,0.4064101278781891,0.09056352823972702
1761413441742057200,0.41805712890625,-0.0763537660241127,0.4223850667476654,0.0807223841547966
1761413441752071200,0.4280712890625,-0.06502308696508408,0.42190009355545044,0.05995851382613182
1761413441762084400,0.43808447265625,-0.05294698104262352,0.4191526770591736,0.04318126291036606
1761413441772098300,0.448098388671875,-0.04320034384727478,0.40545549988746643,0.01622767746448517
1761413441782111200,0.458111328125,-0.02466922253370285,0.4116028845310211,-0.012290014885365963
1761413441792125200,0.468125244140625,0.00029604817973449826,0.4249168336391449,-0.03135691583156586
1761413441802138400,0.478138427734375,0.02793649025261402,0.42400670051574707,-0.044863540679216385
1761413441812152000,0.488152099609375,0.05170813202857971,0.3930186927318573,-0.04735013470053673
1761413441822165200,0.498165283203125,0.06785387545824051,0.3076276481151581,-0.042783644050359726
1761413441832179200,0.50817919921875,0.07410910725593567,0.1809368133544922,-0.028473149985074997
1761413441842193400,0.518193359375,0.056829653680324554,0.027946576476097107,-0.0018048856873065233
1761413441852206300,0.528206298828125,0.007145719137042761,-0.09944067150354385,0.0340346023440361
1761413441862220300,0.53822021484375,-0.0388568639755249,-0.19273090362548828,0.07496709376573563
1761413441872233200,0.548233154296875,-0.0594705305993557,-0.24481593072414398,0.11643117666244507
1761413441882247200,0.5582470703125,-0.05135095492005348,-0.2658063769340515,0.15202932059764862
1761413441892260400,0.56826025390625,-0.025416027754545212,-0.2619684934616089,0.1757945716381073
1761413441902274300,0.5782744140625,0.0030290046706795692,-0.2480594366788864,0.17690333724021912
1761413441912287200,0.588287353515625,0.03135065734386444,-0.23451566696166992,0.15819622576236725
1761413441922301200,0.59830126953125,0.06711184978485107,-0.22173036634922028,0.13927073776721954
1761413441932314000,0.608314208984375,0.09405185282230377,-0.21143192052841187,0.13185010850429535
1761413441942328300,0.618328369140625,0.10363888740539551,-0.22225409746170044,0.14009489119052887
1761413441952341200,0.62834130859375,0.09438467025756836,-0.23825544118881226,0.1790364384651184
1761413441962355500,0.63835546875,0.0728350505232811,-0.23219536244869232,0.22486165165901184
1761413441972368100,0.6483681640625,0.05063041299581528,-0.2012329250574112,0.27410775423049927
1761413441982382300,0.65838232421875,0.02910998836159706,-0.14165103435516357,0.2985214591026306
1761413441992396300,0.668396240234375,0.0040871938690543175,-0.08358586579561234,0.29064756631851196
1761413442002409200,0.6784091796875,-0.01657479628920555,-0.04101584106683731,0.2530941367149353
1761413442012423200,0.688423095703125,-0.03757328912615776,-0.009319167584180832,0.19727905094623566
1761413442022436000,0.69843603515625,-0.05785011872649193,0.010011745616793633,0.13627178966999054
1761413442032450300,0.7084501953125,-0.08467800915241241,0.02630895934998989,0.07781993597745895
1761413442042463200,0.718463134765625,-0.10707259923219681,0.03313874453306198,0.02604052610695362
1761413442052477400,0.7284775390625,-0.12942957878112793,0.03439681977033615,-0.008401868864893913
1761413442062490000,0.738489990234375,-0.15092666447162628,0.02765059843659401,-0.040737003087997437
1761413442072504300,0.74850439453125,-0.1782429814338684,0.017620868980884552,-0.058363400399684906
1761413442082517200,0.758517333984375,-0.2010529488325119,0.02776511386036873,-0.07187042385339737
1761413442092531200,0.76853125,-0.21845164895057678,0.04680937901139259,-0.08820891380310059
1761413442102544400,0.77854443359375,-0.23261794447898865,0.061987876892089844,-0.10293519496917725
1761413442112558300,0.788558349609375,-0.2409648299217224,0.068355493247509,-0.1120527908205986
1761413442122571300,0.7985712890625,-0.2359105944633484,0.06781275570392609,-0.11215908825397491
1761413442132585200,0.808585205078125,-0.22349174320697784,0.07124290615320206,-0.1054452583193779
1761413442142598100,0.81859814453125,-0.20535647869110107,0.07522376626729965,-0.08909261971712112
1761413442152612000,0.828612060546875,-0.1864570826292038,0.07795750349760056,-0.07196902483701706
1761413442162625300,0.838625244140625,-0.17094765603542328,0.0771561712026596,-0.05192660912871361
1761413442172639500,0.848639404296875,-0.15583474934101105,0.07036218047142029,-0.03275371342897415
1761413442182652200,0.858652099609375,-0.14185069501399994,0.0655960887670517,-0.02033502608537674
1761413442192666400,0.868666259765625,-0.12790557742118835,0.07113067060709,-0.02346903458237648
1761413442202680300,0.878680419921875,-0.12026263028383255,0.07269083708524704,-0.029042597860097885
1761413442212693200,0.888693359375,-0.117174431681633,0.07408473640680313,-0.039217472076416016
1761413442222707200,0.898707275390625,-0.1151217371225357,0.06899554282426834,-0.04972027987241745
1761413442232720400,0.908720458984375,-0.11385593563318253,0.05747896805405617,-0.06075189262628555
1761413442242734000,0.918734130859375,-0.11357976496219635,0.046392232179641724,-0.08008324354887009
1761413442252747300,0.928747314453125,-0.11167000979185104,0.04409711807966232,-0.10345833748579025
1761413442262761500,0.938761474609375,-0.1080821231007576,0.028473034501075745,-0.12525621056556702
1761413442272774100,0.948774169921875,-0.1080980971455574,-0.01619536429643631,-0.15001189708709717
1761413442282788400,0.958788330078125,-0.11014780402183533,-0.07079635560512543,-0.1694640964269638
1761413442292801000,0.968801025390625,-0.11608026176691055,-0.11856866627931595,-0.17886318266391754
1761413442302815200,0.978815185546875,-0.11581528186798096,-0.14220701158046722,-0.1676844209432602
1761413442312828400,0.988828369140625,-0.11866539716720581,-0.13324548304080963,-0.14552772045135498
1761413442322842400,0.99884228515625,-0.12299482524394989,-0.10346545279026031,-0.11202546209096909
1761413442332855300,1.008855224609375,-0.12779836356639862,-0.0617305263876915,-0.07765097916126251
1761413442342869200,1.018869140625,-0.13620750606060028,-0.005254026502370834,-0.044866569340229034
1761413442352882200,1.028882080078125,-0.13725546002388,0.060983847826719284,-0.028340056538581848
1761413442362896100,1.038896240234375,-0.1392051726579666,0.1043129563331604,-0.0338919498026371
1761413442372909300,1.048909423828125,-0.1342245191335678,0.12523314356803894,-0.04693344980478287
1761413442382923300,1.05892333984375,-0.13019154965877533,0.13080666959285736,-0.06498335301876068
1761413442392937200,1.068937255859375,-0.12161058932542801,0.12075057625770569,-0.07374782115221024
1761413442402950400,1.078950439453125,-0.11436226963996887,0.11825639754533768,-0.07619166374206543
1761413442412964400,1.08896435546875,-0.10696986317634583,0.1160731390118599,-0.06675635278224945
1761413442422977300,1.098977294921875,-0.09970563650131226,0.11201818287372589,-0.049137912690639496
1761413442432991200,1.1089912109375,-0.09232281893491745,0.10692808032035828,-0.02930188924074173
1761413442443004400,1.11900439453125,-0.08445203304290771,0.093649722635746,-0.016636595129966736
1761413442453018000,1.12901806640625,-0.08404909819364548,0.08732284605503082,-0.006451868452131748
1761413442463031300,1.13903125,-0.0825885608792305,0.0853663831949234,-0.010321341454982758
1761413442473045200,1.149045166015625,-0.07645716518163681,0.09488984942436218,-0.025042230263352394
1761413442483058200,1.15905810546875,-0.06962056457996368,0.10303580015897751,-0.03459858521819115
1761413442493072400,1.169072265625,-0.06514645367860794,0.10117051750421524,-0.05172084644436836
1761413442503085300,1.179085205078125,-0.05529068782925606,0.09115366637706757,-0.06313924491405487
1761413442513100000,1.18910009765625,-0.044202614575624466,0.071590356528759,-0.06051976606249809
1761413442523113000,1.199113037109375,-0.03372100740671158,0.05134217068552971,-0.05469073727726936
1761413442533127200,1.209127197265625,-0.027084147557616234,0.04046102613210678,-0.040079835802316666
1761413442543139800,1.219139892578125,-0.020939763635396957,0.02670283243060112,-0.01841205731034279
1761413442553154000,1.229154052734375,-0.013832585886120796,0.01869923435151577,-0.0024509334471076727
1761413442563167000,1.2391669921875,-0.006804376374930143,0.020200133323669434,0.008776752278208733
1761413442573181000,1.249180908203125,0.0005121257854625583,0.03780176490545273,0.015637855976819992
1761413442583194000,1.259194091796875,0.00923590362071991,0.06803879141807556,0.012623121961951256
1761413442593208000,1.2692080078125,0.015624826774001122,0.09084504097700119,-0.0027417191304266453
1761413442603221000,1.279220947265625,0.017222199589014053,0.08512270450592041,-0.0380011722445488
1761413442613235000,1.28923486328125,0.013659422285854816,0.06818446516990662,-0.07604362815618515
1761413442623249200,1.299249267578125,0.01150618214160204,0.04777783155441284,-0.09668642282485962
1761413442633261800,1.30926171875,0.01139060128480196,0.019710246473550797,-0.10302874445915222
1761413442643276000,1.319276123046875,0.009707427583634853,-0.016704127192497253,-0.08812792599201202
1761413442653289000,1.3292890625,0.009312747046351433,-0.05103333666920662,-0.061231859028339386
1761413442663303000,1.339302978515625,0.014705844223499298,-0.07673048228025436,-0.027330050244927406
1761413442673316000,1.349316162109375,0.024867136031389236,-0.10231679677963257,0.0037564944941550493
1761413442683330000,1.359330078125,0.024852095171809196,-0.13421288132667542,0.009508324787020683
1761413442693343000,1.369343017578125,0.026942409574985504,-0.17662452161312103,0.008701653219759464
1761413442703357000,1.37935693359375,0.019265184178948402,-0.21181373298168182,-0.002773840446025133
1761413442713370000,1.3893701171875,0.013835798017680645,-0.24259960651397705,-0.00948420725762844
1761413442723383800,1.3993837890625,0.0022521126084029675,-0.25676682591438293,-0.01676448993384838
1761413442733397000,1.40939697265625,-0.013353211805224419,-0.25176116824150085,-0.006313980557024479
1761413442743411000,1.419410888671875,-0.02525327354669571,-0.21223318576812744,0.007170405238866806
1761413442753424000,1.429423828125,-0.03333516791462898,-0.14411193132400513,0.02964189276099205
1761413442763438000,1.43943798828125,-0.03763292357325554,-0.07565239816904068,0.04132567346096039
1761413442773451000,1.449450927734375,-0.04136774316430092,-0.018740646541118622,0.05487237498164177
1761413442783465000,1.45946484375,-0.04229724779725075,0.028787685558199883,0.05708682909607887
1761413442793478000,1.469477783203125,-0.05030883476138115,0.05693463236093521,0.054641783237457275
1761413442803492000,1.4794921875,-0.05509587749838829,0.06797225028276443,0.047070812433958054
1761413442813505000,1.489505126953125,-0.06266164779663086,0.06255324929952621,0.028312571346759796
1761413442823519000,1.49951904296875,-0.07373739778995514,0.04565512016415596,0.003193735843524337
1761413442833532200,1.5095322265625,-0.07952897250652313,0.027449218556284904,-0.025491438806056976
1761413442843545900,1.5195458984375,-0.08742471039295197,0.013962971046566963,-0.062071286141872406
1761413442853560000,1.52956005859375,-0.09621547162532806,0.0035263393074274063,-0.09525563567876816
1761413442863573000,1.539572998046875,-0.09917324781417847,0.0025826147757470608,-0.11667740345001221
1761413442873587000,1.5495869140625,-0.09737002104520798,-0.0010760356672108173,-0.1321975141763687
1761413442883600000,1.559599853515625,-0.09546098858118057,-0.010966322384774685,-0.14547646045684814
1761413442893614000,1.569614013671875,-0.0857124924659729,-0.02757539413869381,-0.14986802637577057
1761413442903627000,1.579626953125,-0.07425066083669662,-0.033824022859334946,-0.149819478392601
1761413442913641000,1.589640869140625,-0.062450725585222244,-0.025110425427556038,-0.14221827685832977
1761413442923654100,1.599654052734375,-0.043863445520401,-0.004220733884721994,-0.13420097529888153
1761413442933667800,1.609667724609375,-0.02773401141166687,0.018828392028808594,-0.11710294336080551
1761413442943681000,1.619680908203125,-0.01486397534608841,0.0395294614136219,-0.09918630123138428
1761413442953695000,1.629695068359375,-0.005877404939383268,0.06641007959842682,-0.07999689131975174
1761413442963708000,1.6397080078125,0.0014198573771864176,0.0979289561510086,-0.06057136505842209
1761413442973721900,1.649721923828125,0.009593897499144077,0.12654516100883484,-0.0464925616979599
1761413442983735000,1.659735107421875,0.029542582109570503,0.13546647131443024,-0.03644685074687004
1761413442993749000,1.6697490234375,0.04859936237335205,0.1321287304162979,-0.03224358335137367
1761413443003762000,1.679761962890625,0.07328666746616364,0.11719868332147598,-0.0271025188267231
1761413443013776100,1.689776123046875,0.0942569300532341,0.10138722509145737,-0.015398458577692509
1761413443023789000,1.6997890625,0.11734434962272644,0.09003400057554245,0.002633974188938737
1761413443033803000,1.709802978515625,0.14046432077884674,0.08494709432125092,0.03529311716556549
1761413443043816200,1.719816162109375,0.1632658988237381,0.08271969109773636,0.07235333323478699
1761413443053830000,1.729829833984375,0.1870308816432953,0.07187077403068542,0.1017780676484108
1761413443063843000,1.739843017578125,0.20444908738136292,0.056890130043029785,0.11744368076324463
1761413443073857000,1.74985693359375,0.22239559888839722,0.04272690787911415,0.12287545949220657
1761413443083870000,1.759869873046875,0.22936229407787323,0.022849271073937416,0.11816546320915222
1761413443093884000,1.7698837890625,0.2261369377374649,0.003820451907813549,0.10743851959705353
1761413443103897000,1.77989697265625,0.22172121703624725,-0.0009287325665354729,0.0993637815117836
1761413443113911000,1.7899111328125,0.21714484691619873,-0.013016020879149437,0.0894046202301979
1761413443123924000,1.799924072265625,0.2072892040014267,-0.02260555699467659,0.08519552648067474
1761413443133938200,1.809938232421875,0.1944815218448639,-0.044609926640987396,0.08303596824407578
1761413443143950800,1.819950927734375,0.18315817415714264,-0.0628633052110672,0.08053319901227951
1761413443153965000,1.829965087890625,0.16832543909549713,-0.07410290837287903,0.0743730440735817
1761413443163979000,1.83997900390625,0.15354275703430176,-0.07020536810159683,0.06385409086942673
1761413443173992000,1.849991943359375,0.13832013309001923,-0.04972139745950699,0.053117021918296814
1761413443184006000,1.860005859375,0.11655272543430328,-0.03667394444346428,0.04532637819647789
1761413443194019000,1.87001904296875,0.0931914746761322,-0.03500228002667427,0.040837619453668594
1761413443204033000,1.880032958984375,0.06961897015571594,-0.045255884528160095,0.03839859738945961
1761413443214046000,1.8900458984375,0.04762738570570946,-0.05335722118616104,0.03934508562088013
1761413443224060200,1.90006005859375,0.032037779688835144,-0.05934946611523628,0.0441620796918869
1761413443234072800,1.91007275390625,0.021576615050435066,-0.05976145714521408,0.043877385556697845
1761413443244087000,1.920087158203125,0.010533609427511692,-0.05150948092341423,0.046169131994247437
1761413443254100000,1.930099853515625,0.0019281371496617794,-0.03454434499144554,0.050555624067783356
1761413443264114000,1.940114013671875,-0.004972244147211313,-0.027525387704372406,0.05502714216709137
1761413443274127000,1.950127197265625,-0.013586505316197872,-0.030347006395459175,0.05871801823377609
1761413443284141000,1.96014111328125,-0.02553616836667061,-0.04301051050424576,0.06663896143436432
1761413443294154000,1.970154052734375,-0.03932947665452957,-0.05122343450784683,0.07406917959451675
1761413443304168000,1.98016796875,-0.056208863854408264,-0.03699256107211113,0.07816698402166367
1761413443314181000,1.99018115234375,-0.06862025707960129,-0.01996111124753952,0.08794264495372772
1761413443324194800,2.00019482421875,-0.08717357367277145,0.016183247789740562,0.08825509995222092
1761413443334208000,2.0102080078125,-0.09859534353017807,0.035453349351882935,0.09383601695299149
1761413443344222000,2.020221923828125,-0.11221901327371597,0.04271245747804642,0.09120628237724304
1761413443354235000,2.03023486328125,-0.12520910799503326,0.035775456577539444,0.07815572619438171
1761413443364249000,2.0402490234375,-0.12741707265377045,0.03151801973581314,0.05409843102097511
1761413443374262000,2.050261962890625,-0.1278005689382553,0.02585028111934662,0.02393919788300991
1761413443384276000,2.06027587890625,-0.12673063576221466,0.01692783087491989,-0.002068102825433016
1761413443394289000,2.070288818359375,-0.12615086138248444,0.016835952177643776,-0.02307991124689579
1761413443404303000,2.08030322265625,-0.11868708580732346,0.024060841649770737,-0.031535714864730835
1761413443414316000,2.09031591796875,-0.11044859886169434,0.040898412466049194,-0.03018362633883953
1761413443424330000,2.100330078125,-0.10348448902368546,0.04817811772227287,-0.02021830528974533
1761413443434343200,2.11034326171875,-0.09323957562446594,0.04591283202171326,-0.0073070344515144825
1761413443444356900,2.12035693359375,-0.08821819722652435,0.02710013836622238,0.013901175931096077
1761413443454370000,2.1303701171875,-0.07474713027477264,0.016673598438501358,0.029948851093649864
1761413443464384000,2.140384033203125,-0.055430877953767776,0.016852185130119324,0.04247300699353218
1761413443474397000,2.15039697265625,-0.029414456337690353,0.016423683613538742,0.04758308082818985
1761413443484411000,2.160410888671875,-0.0013410241808742285,0.015552841126918793,0.0573267824947834
1761413443494425000,2.170425048828125,0.021998386830091476,0.008673896081745625,0.06517724692821503
1761413443504438000,2.18043798828125,0.04059704765677452,-0.009175848215818405,0.06979160755872726
1761413443514451200,2.190451171875,0.04973222315311432,-0.014425737783312798,0.09189584851264954
1761413443524464400,2.20046435546875,0.05213724821805954,-0.012396836653351784,0.11071523278951645
1761413443534477300,2.210477294921875,0.05369200184941292,-0.01183624193072319,0.11940779536962509
1761413443544491300,2.2204912109375,0.05282576382160187,-0.007424297742545605,0.1206502765417099
1761413443554505500,2.23050537109375,0.057738762348890305,0.0015883720479905605,0.1058175340294838
1761413443564518100,2.24051806640625,0.05835234373807907,0.004851417150348425,0.08913908153772354
1761413443574532400,2.250532470703125,0.061319105327129364,-0.0010179230011999607,0.0669107437133789
1761413443584545300,2.260545166015625,0.06154467537999153,-0.013661013916134834,0.047517064958810806
1761413443594559200,2.270559326171875,0.05797577276825905,-0.030099907889962196,0.03513070195913315
1761413443604572400,2.280572509765625,0.05293174833059311,-0.041475601494312286,0.024472732096910477
1761413443614586400,2.29058642578125,0.05027550831437111,-0.04800407588481903,0.013666955754160881
1761413443624599300,2.300599365234375,0.04435662552714348,-0.040067315101623535,-0.00026697199791669846
1761413443634613200,2.31061328125,0.0435187965631485,-0.026031125336885452,-0.019246255978941917
1761413443644626400,2.32062646484375,0.0412234291434288,-0.01005762629210949,-0.03408658504486084
1761413443654640000,2.33064013671875,0.0353839173913002,0.0023732101544737816,-0.03813325613737106
1761413443664653300,2.3406533203125,0.030003245919942856,0.004883388057351112,-0.034575946629047394
1761413443674667300,2.350667236328125,0.02504657208919525,0.009041114710271358,-0.022832205519080162
1761413443684680200,2.36068017578125,0.02182796224951744,0.011729193851351738,-0.012953364290297031
1761413443694694400,2.3706943359375,0.022571517154574394,0.006452139467000961,-0.0066147749312222
1761413443704707000,2.38070703125,0.022305769845843315,-0.0012239636853337288,-0.008630167692899704
1761413443714721300,2.39072119140625,0.021027185022830963,-0.010754352435469627,-0.01540924422442913
1761413443724734200,2.400734130859375,0.01677507348358631,-0.002852574922144413,-0.020016971975564957
1761413443734748400,2.41074853515625,0.01905527338385582,0.025801707059144974,-0.018259018659591675
1761413443744761300,2.42076123046875,0.02443578839302063,0.051493819802999496,-0.019557910040020943
1761413443754775300,2.430775390625,0.031736843287944794,0.06858918815851212,-0.023286335170269012
1761413443764788200,2.440788330078125,0.03782303258776665,0.07657470554113388,-0.03213578462600708
1761413443774802200,2.45080224609375,0.0432518869638443,0.060584552586078644,-0.04868306964635849
1761413443784815400,2.4608154296875,0.040246229618787766,0.03204959258437157,-0.06164095550775528
1761413443794829300,2.470829345703125,0.037778012454509735,0.010510479100048542,-0.08304797112941742
1761413443804842200,2.48084228515625,0.04018547013401985,0.00410898681730032,-0.09188216179609299
1761413443814856200,2.490856201171875,0.038589172065258026,0.003647460602223873,-0.09341933578252792
1761413443824869000,2.500869140625,0.039843712002038956,0.007937786169350147,-0.09843670576810837
1761413443834883300,2.51088330078125,0.043091967701911926,0.012301641516387463,-0.09672509133815765
1761413443844896300,2.520896240234375,0.04274861514568329,0.01902196742594242,-0.09656380861997604
1761413443854910500,2.530910400390625,0.04928135126829147,0.02971615642309189,-0.10560551285743713
1761413443864923100,2.540923095703125,0.05325764790177345,0.03290153294801712,-0.11235339194536209
1761413443874937300,2.550937255859375,0.05733095109462738,0.0347505658864975,-0.11498672515153885
1761413443884950300,2.5609501953125,0.06625687330961227,0.034958451986312866,-0.10537873953580856
1761413443894964200,2.570964111328125,0.07071500271558762,0.03587884083390236,-0.0863637700676918
1761413443904977400,2.580977294921875,0.07405932992696762,0.04217039793729782,-0.06774411350488663
1761413443914991400,2.590991455078125,0.0704084038734436,0.051098380237817764,-0.058844100683927536
1761413443925004300,2.60100439453125,0.06224522367119789,0.057057563215494156,-0.06169670447707176
1761413443935018200,2.611018310546875,0.05448184162378311,0.05880406126379967,-0.0775531679391861
1761413443945032400,2.621032470703125,0.04951697960495949,0.06906472146511078,-0.09094943106174469
1761413443955045000,2.631045166015625,0.0433855839073658,0.07230578362941742,-0.09563153237104416
1761413443965059300,2.641059326171875,0.04608363285660744,0.07210738211870193,-0.08989667892456055
1761413443975072300,2.651072265625,0.048290327191352844,0.06492536514997482,-0.07601042836904526
1761413443985086200,2.661086181640625,0.04864685237407684,0.05026264116168022,-0.05948615074157715
1761413443995099400,2.671099365234375,0.05311376973986626,0.03514334559440613,-0.04174070805311203
1761413444005113300,2.68111328125,0.058928657323122025,0.025786390528082848,-0.024177491664886475
1761413444015126300,2.691126220703125,0.06500359624624252,0.009875867515802383,-0.010153551585972309
1761413444025140200,2.70114013671875,0.05827964469790459,-0.01337485946714878,-0.003594186156988144
1761413444035153200,2.711153076171875,0.05016526207327843,-0.029116539284586906,-0.007264554500579834
1761413444045167000,2.7211669921875,0.04248210787773132,-0.03803543373942375,-0.008003346621990204
1761413444055180300,2.73118017578125,0.03956541419029236,-0.03989218920469284,-0.017019212245941162
1761413444065194500,2.741194580078125,0.03324905037879944,-0.03202846273779869,-0.016880135983228683
1761413444075207200,2.751207275390625,0.03620968759059906,-0.021225884556770325,-0.01757761836051941
1761413444085221400,2.761221435546875,0.03524003177881241,-0.016106093302369118,-0.015328709967434406
1761413444095234000,2.771234130859375,0.024681663140654564,-0.01911946013569832,-0.012663951143622398
1761413444105248300,2.781248291015625,0.016189973801374435,-0.013456346467137337,-0.003862371202558279
1761413444115261400,2.791261474609375,-0.0017064678249880672,-0.002837258856743574,0.0025723588187247515
1761413444125275400,2.801275390625,-0.013793017715215683,0.006388823967427015,-0.0019913287833333015
1761413444135288300,2.811288330078125,-0.022116726264357567,0.028791336342692375,-0.005807372275739908
1761413444145302300,2.82130224609375,-0.0243480633944273,0.04089653864502907,-0.011699954979121685
1761413444155315200,2.831315185546875,-0.027402177453041077,0.041840363293886185,-0.030514655634760857
1761413444165329200,2.8413291015625,-0.02909480780363083,0.028130702674388885,-0.04160381853580475
1761413444175342300,2.85134228515625,-0.04012881591916084,0.0038962047547101974,-0.04944203421473503
1761413444185356300,2.861356201171875,-0.05812160670757294,-0.021092725917696953,-0.053776372224092484
1761413444195369200,2.871369140625,-0.07289469242095947,-0.032832738012075424,-0.06533608585596085
1761413444205383400,2.881383544921875,-0.08060427010059357,-0.041123565286397934,-0.07272115349769592
1761413444215396000,2.89139599609375,-0.09488627314567566,-0.051292579621076584,-0.08450964093208313
1761413444225410300,2.901410400390625,-0.10162747651338577,-0.06270471960306168,-0.10057733207941055
1761413444235423200,2.91142333984375,-0.09962237626314163,-0.05786309391260147,-0.11017429828643799
1761413444245437200,2.921437255859375,-0.09536237269639969,-0.041705839335918427,-0.10869130492210388
1761413444255450400,2.931450439453125,-0.09024856984615326,-0.02421499602496624,-0.10565796494483948
1761413444265464300,2.94146435546875,-0.08357330411672592,-0.02413652092218399,-0.09169252216815948
1761413444275477200,2.951477294921875,-0.07824219018220901,-0.03525015711784363,-0.0787101462483406
1761413444285491200,2.9614912109375,-0.07861562818288803,-0.05014685541391373,-0.06973259150981903
1761413444295504400,2.97150439453125,-0.07728644460439682,-0.0655689537525177,-0.05963655188679695
1761413444305518000,2.98151806640625,-0.07655227184295654,-0.07017572969198227,-0.05455973371863365
1761413444315531300,2.99153125,-0.07137615233659744,-0.06830139458179474,-0.05282282084226608
1761413444325545200,3.001545166015625,-0.06100088730454445,-0.054875388741493225,-0.05398522689938545
1761413444335558100,3.01155810546875,-0.04463016986846924,-0.03831345587968826,-0.045032478868961334
1761413444345572400,3.021572265625,-0.02976033464074135,-0.03046376444399357,-0.03845662996172905
1761413444355585300,3.031585205078125,-0.013529965654015541,-0.03317965567111969,-0.03191430866718292
1761413444365599200,3.04159912109375,0.004111016634851694,-0.04426136985421181,-0.023901086300611496
1761413444375612200,3.051612060546875,0.013353250920772552,-0.07025675475597382,-0.015477508306503296
1761413444385626400,3.06162646484375,0.018539749085903168,-0.09776054322719574,-0.012275861576199532
1761413444395639300,3.071639404296875,0.02361413836479187,-0.1138998344540596,-0.004548166878521442
1761413444405653200,3.0816533203125,0.030068710446357727,-0.12074741721153259,-0.004322262946516275
1761413444415666400,3.09166650390625,0.034510593861341476,-0.10467071831226349,-0.0009488369105383754
1761413444425680100,3.10168017578125,0.04179687798023224,-0.08135388046503067,0.005584632977843285
1761413444435693300,3.111693359375,0.04980713501572609,-0.04760896414518356,0.01608654297888279
1761413444445707300,3.121707275390625,0.06082170084118843,-0.025281287729740143,0.03227243572473526
1761413444455720200,3.13172021484375,0.07087886333465576,-0.019472934305667877,0.04248885437846184
1761413444465734100,3.141734130859375,0.07807418704032898,-0.020473744720220566,0.05572422593832016
1761413444475747300,3.151747314453125,0.08705862611532211,-0.039238378405570984,0.06288760155439377
1761413444485761300,3.16176123046875,0.08610329031944275,-0.06728336960077286,0.06202317029237747
1761413444495774200,3.171774169921875,0.08575228601694107,-0.1007760763168335,0.06196298450231552
1761413444505788400,3.181788330078125,0.07547934353351593,-0.12745486199855804,0.06139150634407997
1761413444515801300,3.19180126953125,0.061663925647735596,-0.15221267938613892,0.05635413900017738
1761413444525815600,3.201815673828125,0.04711160436272621,-0.15417593717575073,0.05903087183833122
1761413444535828200,3.211828125,0.03174223378300667,-0.1495172679424286,0.06064048781991005
1761413444545842400,3.221842529296875,0.0263939518481493,-0.1331169456243515,0.060397278517484665
1761413444555855400,3.23185546875,0.023290570825338364,-0.10862225294113159,0.05187623202800751
1761413444565869300,3.241869384765625,0.014861935749650002,-0.08404886722564697,0.03256791830062866
1761413444575882500,3.251882568359375,0.0016145727131515741,-0.06385491788387299,0.015509571880102158
1761413444585896400,3.261896484375,-0.012467416003346443,-0.04935494065284729,-0.0030362720135599375
1761413444595909400,3.271909423828125,-0.0302051343023777,-0.04738926142454147,-0.016345154494047165
1761413444605923300,3.28192333984375,-0.04645994305610657,-0.04620877653360367,-0.031830545514822006
1761413444615937500,3.2919375,-0.06116778030991554,-0.05896452069282532,-0.044634222984313965
1761413444625950500,3.301950439453125,-0.07108420878648758,-0.08750966936349869,-0.052506204694509506
1761413444635964400,3.31196435546875,-0.08442584425210953,-0.10951989889144897,-0.05571957305073738
1761413444645977600,3.3219775390625,-0.09602023661136627,-0.12476986646652222,-0.05822143703699112
1761413444655990300,3.331990234375,-0.11300081759691238,-0.1310804933309555,-0.06353737413883209
1761413444666004500,3.34200439453125,-0.12677156925201416,-0.11133917421102524,-0.06601741909980774
1761413444676017400,3.352017333984375,-0.12832339107990265,-0.06923672556877136,-0.06222108006477356
1761413444686031400,3.36203125,-0.1193179115653038,-0.020365197211503983,-0.04874614626169205
1761413444696045300,3.37204541015625,-0.09669116139411926,0.0325547456741333,-0.026412343606352806
1761413444706058500,3.38205859375,-0.06095227226614952,0.0882292315363884,0.008037473075091839
1761413444716072400,3.392072509765625,-0.018677784129977226,0.1532984972000122,0.053410813212394714
1761413444726085400,3.40208544921875,0.0015013853553682566,0.19591154158115387,0.08892612159252167
1761413444736099600,3.412099609375,0.02861369587481022,0.20364350080490112,0.10999652743339539
1761413444746112300,3.4221123046875,0.043696917593479156,0.20081356167793274,0.12841981649398804
1761413444756126500,3.43212646484375,0.04324737563729286,0.2003467082977295,0.1387733817100525
1761413444766139400,3.442139404296875,0.028072619810700417,0.19660626351833344,0.149237260222435
1761413444776153300,3.4521533203125,0.009712254628539085,0.19747871160507202,0.15102583169937134
1761413444786166500,3.46216650390625,-0.007885790430009365,0.1929510235786438,0.13653509318828583
1761413444796180500,3.472180419921875,-0.01798556186258793,0.18705743551254272,0.11945997178554535
1761413444806193400,3.482193359375,-0.01774028316140175,0.1854836344718933,0.10485240072011948
1761413444816207400,3.492207275390625,0.0002645505592226982,0.18907436728477478,0.08884920179843903
1761413444826220300,3.50222021484375,0.01910947635769844,0.18458116054534912,0.0748414397239685
1761413444836234200,3.512234130859375,0.041042208671569824,0.17921756207942963,0.0676780715584755
1761413444846247400,3.522247314453125,0.06328466534614563,0.16649961471557617,0.07054629176855087
1761413444856261400,3.532261474609375,0.08669465035200119,0.15602168440818787,0.07203047722578049
1761413444866274300,3.5422744140625,0.10989145189523697,0.14467935264110565,0.08033361285924911
1761413444876288500,3.55228857421875,0.12865954637527466,0.13063304126262665,0.08686821162700653
1761413444886301200,3.56230126953125,0.13967685401439667,0.09481088817119598,0.08729109168052673
1761413444896315400,3.5723154296875,0.14589107036590576,0.03945016488432884,0.08179911971092224
1761413444906328300,3.582328369140625,0.15262439846992493,-0.001457412727177143,0.0623868964612484
1761413444916342500,3.592342529296875,0.15748172998428345,-0.016466455534100533,0.03808395192027092
1761413444926355500,3.60235546875,0.1728714108467102,-0.003314804984256625,0.007695789448916912
1761413444936369400,3.612369384765625,0.18818138539791107,0.028851918876171112,-0.02621477283537388
1761413444946382300,3.62238232421875,0.21106159687042236,0.07391563057899475,-0.0498347133398056
1761413444956396300,3.632396240234375,0.23704366385936737,0.1145072653889656,-0.0652855709195137
1761413444966409500,3.642409423828125,0.26425158977508545,0.1319562941789627,-0.06388182193040848
1761413444976423400,3.65242333984375,0.2798140347003937,0.13516567647457123,-0.051408108323812485
1761413444986436400,3.662436279296875,0.28775572776794434,0.12020929902791977,-0.024303719401359558
1761413444996450300,3.6724501953125,0.2792152464389801,0.11323580890893936,0.015368591994047165
1761413445006463200,3.682463134765625,0.24975921213626862,0.12412820011377335,0.04564494267106056
1761413445016477400,3.6924775390625,0.22167617082595825,0.12901216745376587,0.062403153628110886
1761413445026490400,3.702490478515625,0.20162136852741241,0.13305585086345673,0.05920396372675896
1761413445036504300,3.71250439453125,0.17584356665611267,0.13471074402332306,0.04369983822107315
1761413445046517200,3.722517333984375,0.15312840044498444,0.12558941543102264,0.01955055445432663
1761413445056531500,3.732531494140625,0.1423463374376297,0.09994370490312576,-0.003866888117045164
1761413445066544400,3.74254443359375,0.13394345343112946,0.06374145299196243,-0.01604415476322174
1761413445076558300,3.752558349609375,0.1263241469860077,0.02835150621831417,-0.023883968591690063
1761413445086571500,3.762571533203125,0.12195923179388046,0.004834463819861412,-0.01754271611571312
1761413445096585200,3.772585205078125,0.12277176231145859,-0.0019227752927690744,0.0032350008841603994
1761413445106598400,3.782598388671875,0.1276162564754486,0.013490630313754082,0.027442777529358864
1761413445116612400,3.7926123046875,0.13004933297634125,0.0255209282040596,0.049644485116004944
1761413445126625300,3.802625244140625,0.1319257915019989,0.0264210756868124,0.06034240126609802
1761413445136639200,3.81263916015625,0.1287750005722046,0.027102312073111534,0.05599505826830864
1761413445146652400,3.82265234375,0.11923488229513168,0.02041012793779373,0.049341075122356415
1761413445156666400,3.832666259765625,0.12067911773920059,0.006139046978205442,0.04197983071208
1761413445166679300,3.84267919921875,0.12932506203651428,-0.02451207861304283,0.04077102988958359
1761413445176693500,3.852693603515625,0.13772067427635193,-0.06395615637302399,0.04270448535680771
1761413445186706400,3.86270654296875,0.13815031945705414,-0.10159923881292343,0.046168290078639984
1761413445196720400,3.872720458984375,0.13616040349006653,-0.11555633693933487,0.056591905653476715
1761413445206733600,3.882733642578125,0.13149486482143402,-0.10825350135564804,0.06267305463552475
1761413445216747300,3.892747314453125,0.13367973268032074,-0.07354691624641418,0.06422567367553711
1761413445226760400,3.902760498046875,0.13302333652973175,-0.034050751477479935,0.05595853924751282
1761413445236774400,3.9127744140625,0.13001184165477753,-0.006161331199109554,0.04237455129623413
1761413445246787300,3.922787353515625,0.13026782870292664,0.013030503876507282,0.027167338877916336
1761413445256801300,3.93280126953125,0.11880159378051758,0.015404180623590946,0.016010822728276253
1761413445266814500,3.942814453125,0.10589110851287842,0.008541755378246307,0.0017032434698194265
1761413445276828400,3.952828369140625,0.09791254252195358,-0.008293150924146175,-0.003096838016062975
1761413445286841300,3.96284130859375,0.0891815721988678,-0.02005184255540371,-0.007775974925607443
1761413445296855600,3.97285546875,0.08059847354888916,-0.03769554942846298,-0.009696113876998425
1761413445306868200,3.9828681640625,0.08522472530603409,-0.04206404089927673,-0.02079365774989128
1761413445316882400,3.99288232421875,0.08457544445991516,-0.03807702288031578,-0.02830350771546364
1761413445326895400,4.002895263671875,0.08384040743112564,-0.036733318120241165,-0.03279959782958031
1761413445336909300,4.012909423828125,0.08234131336212158,-0.020857682451605797,-0.03445874899625778
1761413445346922500,4.022922607421875,0.07693950086832047,-0.015074171125888824,-0.02076096273958683
1761413445356936400,4.0329365234375,0.08619584888219833,-0.0003828429616987705,-0.01109981257468462
1761413445366949400,4.042949462890625,0.09162317961454391,0.01920766942203045,-0.0004328167997300625
1761413445376963300,4.05296337890625,0.09141118824481964,0.02679048664867878,0.00519177969545126
1761413445386976500,4.0629765625,0.08860574662685394,0.035929225385189056,0.0061741117388010025
1761413445396990200,4.072990234375,0.0817054957151413,0.04466918855905533,0.008352044969797134
1761413445407003400,4.08300341796875,0.07362812757492065,0.04155062511563301,0.0042965831235051155
1761413445417017300,4.093017333984375,0.06482443958520889,0.03136906772851944,-0.006115555763244629
1761413445427030300,4.1030302734375,0.05693982169032097,0.03230726346373558,-0.01620170846581459
1761413445437044500,4.11304443359375,0.052649736404418945,0.042739398777484894,-0.033126894384622574
1761413445447057400,4.123057373046875,0.05068804323673248,0.048508476465940475,-0.03974073380231857
1761413445457071400,4.1330712890625,0.05631823092699051,0.04563093185424805,-0.04205714911222458
1761413445467084300,4.143084228515625,0.05475509911775589,0.030366817489266396,-0.04068221524357796
1761413445477098500,4.153098388671875,0.05631411075592041,0.015549253672361374,-0.03394788131117821
1761413445487111400,4.163111328125,0.0632367953658104,0.008381925523281097,-0.014525217935442924
1761413445497125400,4.17312548828125,0.0774516835808754,0.003480111248791218,0.001491566188633442
1761413445507138600,4.183138671875,0.09037314355373383,-0.01003087218850851,0.018661733716726303
1761413445517152300,4.19315234375,0.09356654435396194,-0.014427751302719116,0.025534287095069885
1761413445527165400,4.20316552734375,0.09487555176019669,-0.03171003237366676,0.027865048497915268
1761413445537179400,4.213179443359375,0.09559300541877747,-0.02668651193380356,0.01584566943347454
1761413445547192300,4.2231923828125,0.09987790137529373,-0.004112163558602333,-0.013219865038990974
1761413445557206300,4.233206298828125,0.10164011269807816,0.012714752927422523,-0.0432821623980999
1761413445567219500,4.243219482421875,0.10491275042295456,0.018003586679697037,-0.06952259689569473
1761413445577233400,4.2532333984375,0.1026431992650032,0.009010890498757362,-0.08406639099121094
1761413445587246300,4.263246337890625,0.09859266877174377,-0.011315882205963135,-0.09308978915214539
1761413445597260500,4.273260498046875,0.08705957978963852,-0.034848637878894806,-0.08405421674251556
1761413445607273200,4.283273193359375,0.0768001452088356,-0.0551794096827507,-0.06073538586497307
1761413445617287400,4.293287353515625,0.06020066514611244,-0.05915950611233711,-0.03366408497095108
1761413445627300600,4.303300537109375,0.0537925660610199,-0.06577093154191971,-0.00215716240927577
1761413445637314300,4.313314208984375,0.04136279225349426,-0.07173614948987961,0.01437733881175518
1761413445647327500,4.323327392578125,0.02951611764729023,-0.07471336424350739,0.015267962589859962
1761413445657341400,4.333341552734375,0.014846093021333218,-0.0715564489364624,0.00439081247895956
1761413445667354400,4.343354248046875,-0.00008092724601738155,-0.06061151996254921,-0.012123851105570793
1761413445677368300,4.353368408203125,-0.015059877187013626,-0.04073714837431908,-0.02209765650331974
1761413445687381500,4.363381591796875,-0.029278086498379707,-0.02104274369776249,-0.037668682634830475
1761413445697395200,4.373395263671875,-0.045937489718198776,-0.0076398542150855064,-0.03611952066421509
1761413445707408400,4.383408447265625,-0.06730083376169205,-0.007196838967502117,-0.03414811193943024
1761413445717422600,4.393422607421875,-0.08776562660932541,-0.01349974237382412,-0.01858086884021759
1761413445727435300,4.403435302734375,-0.10543603450059891,-0.006506714504212141,-0.001506376313045621
1761413445737449500,4.413449462890625,-0.11720108240842819,0.004083611536771059,0.010593430139124393
1761413445747462400,4.42346240234375,-0.12206447869539261,0.012168603017926216,0.018694598227739334
1761413445757475300,4.433475341796875,-0.1253974288702011,0.012534787878394127,0.01986319199204445
1761413445767489500,4.443489501953125,-0.12318845838308334,0.0031322957947850227,0.009149769321084023
1761413445777503500,4.45350341796875,-0.12269231677055359,-0.006176250986754894,0.0016178174410015345
1761413445787516400,4.463516357421875,-0.12233246117830276,-0.01626639999449253,-0.0029593969229608774
1761413445797530400,4.4735302734375,-0.12565502524375916,-0.017181197181344032,-0.008051627315580845
1761413445807543600,4.48354345703125,-0.1249924972653389,-0.010631979443132877,-0.007671039551496506
1761413445817557200,4.49355712890625,-0.11868932843208313,-0.0039178840816020966,-0.008908877149224281
1761413445827570400,4.5035703125,-0.10535887628793716,0.0038917046040296555,-0.010473886504769325
1761413445837584400,4.51358447265625,-0.08644483983516693,0.013206908479332924,-0.0060064345598220825
1761413445847597300,4.523597412109375,-0.06559820473194122,0.016370438039302826,-0.000829193857498467
1761413445857611500,4.533611572265625,-0.05281130224466324,0.0037289438769221306,0.008168029598891735
1761413445867624400,4.54362451171875,-0.04581817239522934,-0.016018295660614967,0.01797715201973915
1761413445877637400,4.553637451171875,-0.04809623956680298,-0.03425242751836777,0.017716694623231888
1761413445887651300,4.5636513671875,-0.05496960133314133,-0.04284084960818291,0.023624368011951447
1761413445897664300,4.573664306640625,-0.06710482388734818,-0.037476710975170135,0.031237812712788582
1761413445907678500,4.583678466796875,-0.08224749565124512,-0.027772387489676476,0.03084576316177845
1761413445917691400,4.59369140625,-0.0979609414935112,-0.018332544714212418,0.031018605455756187
1761413445927705600,4.60370556640625,-0.10649610310792923,-0.00293481582775712,0.03064855933189392
1761413445937718300,4.61371826171875,-0.10693685710430145,-0.004325518384575844,0.02685728669166565
1761413445947732500,4.623732421875,-0.10484687238931656,-0.013282960280776024,0.02805347740650177
1761413445957745400,4.633745361328125,-0.0926370844244957,-0.017752811312675476,0.03414332866668701
1761413445967759400,4.64375927734375,-0.07592335343360901,-0.017709266394376755,0.04082852229475975
1761413445977772500,4.6537724609375,-0.06377135217189789,-0.02820158749818802,0.039000265300273895
1761413445987786500,4.663786376953125,-0.05026673153042793,-0.032388340681791306,0.03730835020542145
1761413445997799400,4.67379931640625,-0.039507824927568436,-0.03742970526218414,0.030635535717010498
1761413446007813400,4.6838134765625,-0.033853136003017426,-0.0380140021443367,0.03028053417801857
1761413446017826300,4.693826416015625,-0.03172420337796211,-0.03877779468894005,0.028499413281679153
1761413446027840300,4.70384033203125,-0.03117365576326847,-0.035564396530389786,0.029710061848163605
1761413446037853400,4.713853515625,-0.032704442739486694,-0.03180401399731636,0.035305097699165344
1761413446047867600,4.72386767578125,-0.030851813033223152,-0.02917221188545227,0.03697643056511879
1761413446057880300,4.73388037109375,-0.038083095103502274,-0.019137952476739883,0.03788509964942932
1761413446067894500,4.74389453125,-0.04018406197428703,0.0008473386988043785,0.03955264389514923
1761413446077907200,4.7539072265625,-0.04431808367371559,0.031597528606653214,0.03918885439634323
1761413446087921400,4.76392138671875,-0.03414560854434967,0.049781590700149536,0.033138953149318695
1761413446097934600,4.7739345703125,-0.029243262484669685,0.05984115228056908,0.029712263494729996
1761413446107948500,4.783948486328125,-0.024790391325950623,0.057829298079013824,0.028068125247955322
1761413446117961500,4.79396142578125,-0.02839178405702114,0.040451373904943466,0.025853173807263374
1761413446127975400,4.803975341796875,-0.032369740307331085,0.0035997461527585983,0.013877087272703648
1761413446137988400,4.81398828125,-0.03256335109472275,-0.015387527644634247,0.009271416813135147
1761413446148002300,4.824002197265625,-0.031158868223428726,-0.018608788028359413,0.0026717386208474636
1761413446158015500,4.834015380859375,-0.02782139554619789,-0.006154781207442284,-0.009677072986960411
1761413446168029200,4.844029296875,-0.029904721304774284,0.0219996590167284,-0.01711212657392025
1761413446178042400,4.85404248046875,-0.028267676010727882,0.0598897859454155,-0.021226176992058754
1761413446188056600,4.864056640625,-0.021069221198558807,0.08100342005491257,-0.009486005641520023
1761413446198069200,4.8740693359375,-0.015714403241872787,0.09114713966846466,-0.0041319867596030235
1761413446208083500,4.88408349609375,-0.007928588427603245,0.09257330000400543,-0.000027029309421777725
1761413446218096400,4.894096435546875,-0.0005361858056858182,0.07447152584791183,-0.004696615971624851
1761413446228110300,4.9041103515625,0.007425609510391951,0.059879131615161896,-0.006564666051417589
1761413446238123500,4.91412353515625,0.01928306743502617,0.05591341480612755,-0.010090159252285957
1761413446248137500,4.924137451171875,0.03290247172117233,0.055864546447992325,-0.005712592974305153
1761413446258150400,4.934150390625,0.047065429389476776,0.06270141899585724,0.004193034954369068
1761413446268164400,4.944164306640625,0.05264668166637421,0.05677351728081703,0.019787145778536797
1761413446278177500,4.954177490234375,0.05710987374186516,0.05520305037498474,0.025379518046975136
1761413446288191200,4.964191162109375,0.06385679543018341,0.054499875754117966,0.027664875611662865
1761413446298204400,4.974204345703125,0.06413589417934418,0.04810322821140289,0.026708533987402916
1761413446308218400,4.98421826171875,0.06668007373809814,0.05091889202594757,0.017756681889295578
1761413446318231300,4.994231201171875,0.07357180118560791,0.043490536510944366,0.020134083926677704
1761413446328245500,5.00424560546875,0.0717763602733612,0.028445973992347717,0.02142074704170227
1761413446338258400,5.014258544921875,0.07380196452140808,0.0038567432202398777,0.01749604567885399
1761413446348272400,5.0242724609375,0.07173255831003189,-0.00988203939050436,0.017050568014383316
1761413446358285300,5.034285400390625,0.07316214591264725,-0.010467935353517532,0.009050699882209301
1761413446368299500,5.044299560546875,0.07074925303459167,-0.013134194537997246,0.0020587481558322906
1761413446378312400,5.0543125,0.0646950900554657,-0.021055767312645912,-0.006147515960037708
1761413446388326400,5.064326416015625,0.05091036483645439,-0.026295768097043037,-0.015059557743370533
1761413446398339600,5.074339599609375,0.039445724338293076,-0.0289530698210001,-0.018461212515830994
1761413446408353300,5.084353271484375,0.02614842727780342,-0.024154651910066605,-0.016151128336787224
1761413446418366500,5.094366455078125,0.012124219909310341,-0.013078564777970314,-0.008148595690727234
1761413446428380400,5.10438037109375,0.003901645541191101,-0.006637477781623602,0.006963284220546484
1761413446438393300,5.114393310546875,-0.00227182824164629,-0.005102698225528002,0.014782058075070381
1761413446448407300,5.1244072265625,-0.007134891115128994,-0.0073687173426151276,0.012865589931607246
1761413446458420500,5.13442041015625,-0.014648733660578728,-0.006693339440971613,0.0103563591837883
1761413446468434400,5.144434326171875,-0.019960014149546623,-0.008458945900201797,0.0025044819340109825
1761413446478447400,5.154447265625,-0.02943713776767254,-0.004960883408784866,-0.0021837467793375254
1761413446488461600,5.164461669921875,-0.04007812589406967,-0.002441969932988286,-0.00660866592079401
1761413446498474200,5.17447412109375,-0.048518747091293335,0.010310044512152672,-0.007126118056476116
1761413446508488400,5.184488525390625,-0.060727350413799286,0.023618463426828384,-0.02113496884703636
1761413446518501400,5.19450146484375,-0.07248733937740326,0.03422343730926514,-0.03099558874964714
1761413446528514300,5.204514404296875,-0.08569381386041641,0.04457667097449303,-0.03839403763413429
1761413446538528500,5.214528564453125,-0.09522633254528046,0.053402386605739594,-0.04291795194149017
1761413446548541200,5.224541259765625,-0.10203976184129715,0.05907851457595825,-0.04176625609397888
1761413446558555400,5.234555419921875,-0.10750856250524521,0.05378495156764984,-0.03313228860497475
1761413446568568600,5.244568603515625,-0.10333659499883652,0.04635000601410866,-0.024843016639351845
1761413446578582300,5.254582275390625,-0.10002788156270981,0.040078263729810715,-0.01722371205687523
1761413446588595500,5.264595458984375,-0.09243594855070114,0.041662611067295074,-0.008018269203603268
1761413446598609400,5.274609375,-0.0880928635597229,0.056881245225667953,0.0030793899204581976
1761413446608622300,5.284622314453125,-0.08222970366477966,0.07432357966899872,0.010638034902513027
1761413446618636300,5.29463623046875,-0.07022363692522049,0.08182091265916824,0.010891834273934364
1761413446628649500,5.3046494140625,-0.05958591774106026,0.0883411318063736,0.007633966859430075
1761413446638663200,5.3146630859375,-0.04486582800745964,0.0878167524933815,-0.003629873041063547
1761413446648676400,5.32467626953125,-0.028869150206446648,0.08647618442773819,-0.00674103619530797
1761413446658690600,5.334690673828125,-0.01076844148337841,0.07563046365976334,-0.006469127722084522
1761413446668703200,5.344703125,0.0022842432372272015,0.05418482422828674,-0.002361467806622386
1761413446678717400,5.354717529296875,0.017364924773573875,0.028872011229395866,0.006297800224274397
1761413446688730400,5.36473046875,0.031999263912439346,-0.0019155952613800764,0.01248685922473669
1761413446698744300,5.374744384765625,0.04242527112364769,-0.02397216111421585,0.02267265133559704
1761413446708757500,5.384757568359375,0.05579899996519089,-0.033209532499313354,0.03107937052845955
1761413446718771500,5.394771484375,0.0673733651638031,-0.024552129209041595,0.03907764330506325
1761413446728784400,5.404784423828125,0.06658539921045303,-0.005859903991222382,0.05440518260002136
1761413446738798300,5.41479833984375,0.06149769946932793,0.0071283322758972645,0.06147534027695656
1761413446748811500,5.4248115234375,0.04837570711970329,0.0054049682803452015,0.06985873728990555
1761413446758825200,5.4348251953125,0.03603408485651016,-0.0008119149133563042,0.07242070138454437
1761413446768838400,5.44483837890625,0.01927880384027958,-0.009829510003328323,0.0677696168422699
1761413446778852400,5.454852294921875,0.0069406465627253056,-0.0036528403870761395,0.0514814518392086
1761413446788865300,5.464865234375,0.001002731267362833,0.007694687694311142,0.04072915017604828
1761413446798879500,5.47487939453125,-0.005704173818230629,0.006683219224214554,0.034749288111925125
1761413446808892400,5.484892333984375,-0.018654126673936844,-0.006651661824434996,0.031057780608534813
1761413446818906400,5.49490625,-0.0320623442530632,-0.012490375898778439,0.03133874759078026
1761413446828919300,5.504919189453125,-0.045614439994096756,-0.007486729416996241,0.02965419553220272
1761413446838933500,5.51493359375,-0.05694805458188057,0.0004758560098707676,0.029737288132309914
1761413446848946400,5.524946533203125,-0.063178651034832,0.007603341713547707,0.0170776154845953
1761413446858960400,5.53496044921875,-0.06811428815126419,0.02008291333913803,0.012490587309002876
1761413446868973600,5.5449736328125,-0.06842681020498276,0.024470539763569832,0.00754183204844594
1761413446878987300,5.5549873046875,-0.06913281232118607,0.02974892407655716,-0.0018082603346556425
1761413446889000400,5.56500048828125,-0.06653843075037003,0.026659222319722176,-0.010268954560160637
1761413446899014400,5.575014404296875,-0.061293866485357285,0.02199496328830719,-0.024318993091583252
1761413446909027300,5.58502734375,-0.05095520615577698,0.01621457189321518,-0.03135107085108757
1761413446919041300,5.595041259765625,-0.04406507685780525,0.006214136723428965,-0.03291674330830574
1761413446929054500,5.605054443359375,-0.042115114629268646,-0.009673215448856354,-0.03421051800251007
1761413446939068400,5.615068359375,-0.04274921491742134,-0.019308265298604965,-0.02945198118686676
1761413446949081300,5.625081298828125,-0.038806065917015076,-0.022268204018473625,-0.02473408170044422
1761413446959094300,5.63509423828125,-0.030807530507445335,-0.025749754160642624,-0.025248870253562927
1761413446969108200,5.645108154296875,-0.017131797969341278,-0.01986982859671116,-0.020064692944288254
1761413446979121400,5.655121337890625,-0.005233060568571091,-0.012266237288713455,-0.015238245949149132
1761413446989135600,5.665135498046875,0.005777582060545683,-0.0070983413606882095,-0.013563666492700577
1761413446999148300,5.675148193359375,0.023214096203446388,-0.004714013542979956,-0.010681061074137688
1761413447009162500,5.68516259765625,0.04332408681511879,0.001819755882024765,0.005548248067498207
1761413447019175200,5.695175048828125,0.06265544146299362,0.008755160495638847,0.02278769016265869
1761413447029189400,5.705189453125,0.07321241497993469,0.00582191813737154,0.038306791335344315
1761413447039202600,5.71520263671875,0.08190283924341202,-0.0038946254644542933,0.04814876988530159
1761413447049216300,5.72521630859375,0.08862312883138657,-0.009959008544683456,0.05528559535741806
1761413447059229400,5.7352294921875,0.09535107016563416,-0.01124211959540844,0.05672849714756012
1761413447069243400,5.745243408203125,0.0966939702630043,-0.015329739078879356,0.05251716822385788
1761413447079256300,5.75525634765625,0.09607904404401779,-0.028603199869394302,0.04812055826187134
1761413447089270300,5.765270263671875,0.097875215113163,-0.034679800271987915,0.041709598153829575
1761413447099283500,5.775283447265625,0.09788373857736588,-0.040940359234809875,0.03576568886637688
1761413447109297200,5.785297119140625,0.09595447033643723,-0.043896500021219254,0.038874149322509766
1761413447119310300,5.795310302734375,0.08675458282232285,-0.049328550696372986,0.04063689336180687
1761413447129324500,5.805324462890625,0.07761281728744507,-0.0534052848815918,0.04090851917862892
1761413447139337200,5.815337158203125,0.06658067554235458,-0.05518987029790878,0.036832019686698914
1761413447149351400,5.825351318359375,0.05188588425517082,-0.04960055649280548,0.031371600925922394
1761413447159364400,5.8353642578125,0.04832710325717926,-0.05564300715923309,0.020349308848381042
1761413447169378300,5.84537841796875,0.03686013072729111,-0.05569636821746826,0.007332421373575926
1761413447179391500,5.8553916015625,0.017884045839309692,-0.047541771084070206,0.0006068740040063858
1761413447189405400,5.865405517578125,-0.004836845677345991,-0.02934831939637661,-0.007441522087901831
1761413447199418400,5.87541845703125,-0.020680256187915802,-0.011562664993107319,-0.01918552815914154
1761413447209432300,5.885432373046875,-0.03212912380695343,0.010204451158642769,-0.03211469575762749
1761413447219445500,5.895445556640625,-0.04072314500808716,0.02397805266082287,-0.035888928920030594
1761413447229459200,5.905459228515625,-0.050660066306591034,0.03849940747022629,-0.03967776149511337
1761413447239472400,5.915472412109375,-0.05547612905502319,0.03756570443511009,-0.036849748343229294
1761413447249486300,5.925486328125,-0.05428415909409523,0.03479718044400215,-0.040291961282491684
1761413447259499300,5.935499267578125,-0.059792641550302505,0.021396417170763016,-0.04539883881807327
1761413447269513500,5.945513427734375,-0.06275647133588791,0.0007159062661230564,-0.04885242506861687
1761413447279526400,5.9555263671875,-0.06821808964014053,-0.012529591098427773,-0.05793486908078194
1761413447289540400,5.965540283203125,-0.06867847591638565,-0.01297217421233654,-0.0605943463742733
1761413447299553300,5.97555322265625,-0.06809630990028381,-0.006745703984051943,-0.06186813488602638
1761413447309566500,5.98556640625,-0.06407786905765533,0.0007211328484117985,-0.054256945848464966
1761413447319580400,5.995580322265625,-0.058253269642591476,0.012467803433537483,-0.04699237644672394
1761413447329593300,6.00559326171875,-0.05639944225549698,0.02294241450726986,-0.041927438229322433
1761413447339607600,6.015607666015625,-0.05021824315190315,0.028317205607891083,-0.03120342083275318
1761413447349620200,6.0256201171875,-0.04299275204539299,0.022149624302983284,-0.025054465979337692
1761413447359634400,6.035634521484375,-0.04216211289167404,0.018544236198067665,-0.024273358285427094
1761413447369647600,6.045647705078125,-0.04107927531003952,0.013291552662849426,-0.02358267456293106
1761413447379661300,6.055661376953125,-0.049392059445381165,0.013336293399333954,-0.027753185480833054
1761413447389674500,6.065674560546875,-0.05255443975329399,0.020069630816578865,-0.02958739921450615
1761413447399688400,6.0756884765625,-0.056789129972457886,0.025472385808825493,-0.030448932200670242
1761413447409701400,6.085701416015625,-0.06833372265100479,0.025344517081975937,-0.03331975266337395
1761413447419715300,6.09571533203125,-0.07035719603300095,0.037980154156684875,-0.0369562990963459
1761413447429728300,6.105728271484375,-0.0618598535656929,0.04301312938332558,-0.03378621116280556
1761413447439742200,6.1157421875,-0.05046791583299637,0.04521050304174423,-0.020552432164549828
1761413447449755400,6.12575537109375,-0.04341726377606392,0.04080014303326607,-0.01479718554764986
1761413447459769600,6.13576953125,-0.035935644060373306,0.04171706736087799,-0.004986099898815155
1761413447469782300,6.1457822265625,-0.02883392572402954,0.061794307082891464,-0.0075658345595002174
1761413447479796500,6.15579638671875,-0.015905342996120453,0.06543883681297302,-0.009578385390341282
1761413447489809200,6.16580908203125,-0.009867826476693153,0.0545513741672039,-0.004127774853259325
1761413447499823400,6.1758232421875,-0.014636216685175896,0.040358323603868484,0.002542378380894661
1761413447509836500,6.18583642578125,-0.010763909667730331,0.018098589032888412,0.018033182248473167
1761413447519850500,6.1958505859375,-0.0107553880661726,-0.0025438375305384398,0.0288860984146595
1761413447529863400,6.205863525390625,-0.007199070416390896,-0.01842230185866356,0.043607406318187714
1761413447539877400,6.21587744140625,-0.01029632706195116,-0.01710403710603714,0.050769977271556854
1761413447549890300,6.225890380859375,-0.0160412285476923,-0.01062013953924179,0.0426168218255043
1761413447559904300,6.235904296875,-0.022465040907263756,-0.0032064318656921387,0.04306556656956673
1761413447569917400,6.24591748046875,-0.03202319145202637,0.021191950887441635,0.04092959687113762
1761413447579931400,6.255931396484375,-0.04274214804172516,0.037612468004226685,0.0307209063321352
1761413447589944300,6.2659443359375,-0.056554168462753296,0.04267284274101257,0.024014966562390327
1761413447599958500,6.27595849609375,-0.06059711426496506,0.044956501573324203,0.019322743639349937
1761413447609971200,6.28597119140625,-0.06590306758880615,0.034989289939403534,0.01966341957449913
1761413447619985400,6.2959853515625,-0.06816995143890381,0.01710536517202854,0.022743364796042442
1761413447629998300,6.305998291015625,-0.06889040023088455,-0.005169880110770464,0.022549526765942574
1761413447640011300,6.31601123046875,-0.07145475596189499,-0.016901638358831406,0.031347278505563736
1761413447650025500,6.326025390625,-0.07795985788106918,-0.016734957695007324,0.03524698689579964
1761413447660038400,6.336038330078125,-0.08277512341737747,-0.007585933431982994,0.03591064736247063
1761413447670052400,6.34605224609375,-0.08671100437641144,0.0034795012325048447,0.03249727562069893
1761413447680065300,6.356065185546875,-0.08708624541759491,0.023507006466388702,0.0259991604834795
1761413447690079500,6.36607958984375,-0.08919639885425568,0.039487503468990326,0.01489837747067213
1761413447700092400,6.376092529296875,-0.08983289450407028,0.05028555542230606,0.0026473028119653463
1761413447710106400,6.3861064453125,-0.08673577010631561,0.05799960345029831,-0.000006466871127486229
1761413447720119600,6.39611962890625,-0.07980941981077194,0.0491214245557785,-0.004045683424919844
1761413447730133200,6.40613330078125,-0.07332782447338104,0.03830179572105408,0.0009370776824653149
1761413447740146400,6.416146484375,-0.06442753970623016,0.01767401583492756,0.01404036208987236
1761413447750160400,6.426160400390625,-0.055994369089603424,0.0034254388883709908,0.027839405462145805
1761413447760173300,6.43617333984375,-0.05392909049987793,-0.0009914138354361057,0.036860864609479904
1761413447770187300,6.446187255859375,-0.04900963231921196,0.017529837787151337,0.03638998791575432
1761413447780200400,6.456200439453125,-0.04228248819708824,0.0327327623963356,0.029158171266317368
1761413447790214400,6.46621435546875,-0.03623931109905243,0.0407380573451519,0.016110200434923172
1761413447800227300,6.476227294921875,-0.03202192857861519,0.03386417031288147,0.003595473011955619
1761413447810241500,6.486241455078125,-0.021983075886964798,0.027934541925787926,0.0013249448966234922
1761413447820254200,6.496254150390625,-0.01296987198293209,0.025401877239346504,0.0036323079839348793
1761413447830268400,6.506268310546875,-0.008329846896231174,0.02038395032286644,0.012806113809347153
1761413447840281600,6.516281494140625,-0.0027609101962298155,0.007410893216729164,0.029180293902754784
1761413447850295300,6.52629541015625,0.000006911781383678317,-0.009410564787685871,0.038360320031642914
1761413447860308500,6.53630859375,-0.004852558020502329,-0.020848842337727547,0.0362500324845314
1761413447870322400,6.546322509765625,-0.006732617970556021,-0.017025940120220184,0.03005051612854004
1761413447880335400,6.55633544921875,-0.016753559932112694,-0.003541290294378996,0.00906347669661045
1761413447890348500,6.5663486328125,-0.022240670397877693,0.00849942583590746,-0.014670910313725471
1761413447900362500,6.576362548828125,-0.018395865336060524,0.03565914183855057,-0.020479530096054077
1761413447910375400,6.58637548828125,-0.021392187103629112,0.05070480331778526,-0.019923590123653412
1761413447920389400,6.596389404296875,-0.02427106350660324,0.042590152472257614,-0.01966579630970955
1761413447930402300,6.60640234375,-0.026093265041708946,0.026285845786333084,-0.016874633729457855
1761413447940416300,6.616416259765625,-0.02111262083053589,0.011769488453865051,-0.006131975911557674
1761413447950429400,6.626429443359375,-0.01442988496273756,-0.004367636516690254,0.002193557098507881
1761413447960443400,6.636443359375,-0.00831606611609459,-0.016589149832725525,0.01325339823961258
1761413447970456300,6.646456298828125,-0.0012360524851828814,-0.03010282665491104,0.017843889072537422
1761413447980470500,6.656470458984375,-0.00022358453134074807,-0.03276282548904419,0.01100839488208294
1761413447990483200,6.666483154296875,0.0017709903186187148,-0.03184623271226883,0.011935245245695114
1761413448000497400,6.676497314453125,-0.0019076341995969415,-0.01951206848025322,0.007162061519920826
1761413448010510300,6.68651025390625,0.00013986998237669468,-0.025729717686772346,-0.005122609436511993
1761413448020524500,6.696524658203125,0.0061945668421685696,-0.04405386000871658,-0.029515834525227547
1761413448030537500,6.706537353515625,0.006670940201729536,-0.07978259772062302,-0.03679394721984863
1761413448040551400,6.716551513671875,0.0030466443859040737,-0.09590084850788116,-0.02864973247051239
1761413448050564400,6.726564453125,-0.0002068729663733393,-0.08193852752447128,-0.013893856666982174
1761413448060578300,6.736578369140625,-0.0036585961934179068,-0.06189717352390289,0.003584203077480197
1761413448070591500,6.746591552734375,0.007884209975600243,-0.04230716452002525,0.01720620132982731
1761413448080605200,6.756605224609375,0.01701885089278221,-0.0236210934817791,0.020087743178009987
1761413448090618400,6.766618408203125,0.019219355657696724,0.0003225570544600487,0.02368146739900112
1761413448100632300,6.77663232421875,0.014720745384693146,0.022409750148653984,0.017210252583026886
1761413448110645200,6.786645263671875,0.008429626002907753,0.04080410301685333,0.009642979130148888
1761413448120659500,6.796659423828125,0.00495233666151762,0.05157073214650154,-0.0010024748044088483
1761413448130672400,6.80667236328125,0.0018858384573832154,0.059484515339136124,-0.01718832738697529
1761413448140685300,6.816685302734375,0.0003095133579336107,0.06085258349776268,-0.02923833206295967
1761413448150699300,6.82669921875,-0.007214581593871117,0.055916473269462585,-0.03823374956846237
1761413448160712400,6.83671240234375,-0.014802993275225163,0.038164108991622925,-0.044385120272636414
1761413448170726400,6.846726318359375,-0.02281677909195423,0.018580390140414238,-0.03578987717628479
1761413448180739300,6.8567392578125,-0.0351855643093586,-0.002095061121508479,-0.03054904192686081
1761413448190753500,6.86675341796875,-0.04174186661839485,-0.030451003462076187,-0.027870476245880127
1761413448200766200,6.87676611328125,-0.046222101897001266,-0.041999801993370056,-0.026793494820594788
1761413448210780400,6.886780517578125,-0.04335068166255951,-0.04230313375592232,-0.029308849945664406
1761413448220793600,6.896793701171875,-0.04071095585823059,-0.04079791530966759,-0.03481946140527725
1761413448230807300,6.906807373046875,-0.04277031123638153,-0.03824417665600777,-0.04248301684856415
1761413448240820500,6.916820556640625,-0.04186563566327095,-0.0429459884762764,-0.050834957510232925
1761413448250834400,6.92683447265625,-0.04389423504471779,-0.028546839952468872,-0.04782101511955261
1761413448260847400,6.936847412109375,-0.046986695379018784,-0.016459552571177483,-0.04631206765770912
1761413448270861300,6.946861328125,-0.045246321707963943,-0.009475147351622581,-0.047508906573057175
1761413448280874500,6.95687451171875,-0.04535897076129913,-0.005402108654379845,-0.049386169761419296
1761413448290888200,6.96688818359375,-0.04044530913233757,-0.0033748415298759937,-0.04517766833305359
1761413448300901400,6.9769013671875,-0.036984264850616455,-0.01765790767967701,-0.041907310485839844
1761413448310915600,6.98691552734375,-0.03294391185045242,-0.0376112125813961,-0.043945036828517914
1761413448320928300,6.99692822265625,-0.02505483292043209,-0.052725981920957565,-0.033718496561050415
1761413448330942500,7.0069423828125,-0.020284378901124,-0.06063453480601311,-0.023363299667835236
1761413448340955400,7.016955322265625,-0.009345177561044693,-0.04948148503899574,-0.00464980024844408
1761413448350969300,7.02696923828125,0.004355254583060741,-0.044243015348911285,0.008889416232705116
1761413448360982500,7.036982421875,0.008368372917175293,-0.03427400439977646,0.025961611419916153
1761413448370995200,7.0469951171875,0.016047464683651924,-0.03326020389795303,0.0322859026491642
1761413448381009400,7.057009521484375,0.01746985875070095,-0.02819167822599411,0.0320906899869442
1761413448391022300,7.067022216796875,0.01160464622080326,-0.03594620153307915,0.021583668887615204
1761413448401036500,7.07703662109375,0.0069459788501262665,-0.03578401356935501,0.00024455785751342773
1761413448411049500,7.087049560546875,0.006221998482942581,-0.03324688971042633,-0.006562426686286926
1761413448421063400,7.0970634765625,0.00040751887718215585,-0.02474527806043625,-0.03414798155426979
1761413448431076400,7.107076416015625,0.004096729215234518,-0.02194127067923546,-0.05082147195935249
1761413448441090300,7.11709033203125,0.005211262032389641,-0.02262090891599655,-0.056064970791339874
1761413448451103500,7.127103515625,0.008168568834662437,-0.03087184764444828,-0.05794977396726608
1761413448461117200,7.1371171875,0.009616262279450893,-0.03170408681035042,-0.057468004524707794
1761413448471130400,7.14713037109375,0.012765517458319664,-0.027014758437871933,-0.050030890852212906
1761413448481144300,7.157144287109375,0.013557009398937225,-0.03843572735786438,-0.03374273329973221
1761413448491157200,7.1671572265625,0.01441115140914917,-0.059020861983299255,-0.024257099255919456
1761413448501171500,7.17717138671875,0.017519595101475716,-0.07900948077440262,-0.014259060844779015
1761413448511184400,7.187184326171875,0.019039325416088104,-0.09975478053092957,-0.01652906835079193
1761413448521198800,7.19719873046875,0.026020802557468414,-0.11290546506643295,-0.02012779749929905
1761413448531211800,7.207211669921875,0.03538527712225914,-0.11899079382419586,-0.019436175003647804
1761413448541225700,7.217225830078125,0.043066367506980896,-0.11817266792058945,-0.01681429147720337
1761413448551238700,7.22723876953125,0.05149580538272858,-0.10724731534719467,-0.014548474922776222
1761413448561252900,7.2372529296875,0.05935319513082504,-0.10391596704721451,-0.006694813258945942
1761413448571265800,7.247265869140625,0.06619685143232346,-0.09945043921470642,-0.00585426390171051
1761413448581278700,7.25727880859375,0.06271316856145859,-0.08585340529680252,0.002371441340073943
1761413448591293000,7.26729296875,0.05379923805594444,-0.0643693208694458,0.00951419398188591
1761413448601305600,7.2773056640625,0.044663529843091965,-0.0416131429374218,0.013759538531303406
1761413448611319800,7.28731982421875,0.03841003030538559,-0.02447749860584736,0.00856551993638277
1761413448621332700,7.297332763671875,0.030187251046299934,-0.017111727967858315,0.00010252627544105053
1761413448631346700,7.3073466796875,0.0240978691726923,-0.0017462533432990313,-0.01331564225256443
1761413448641360000,7.31735986328125,0.019484208896756172,0.014067064970731735,-0.031212350353598595
1761413448651373800,7.327373779296875,0.018324466422200203,0.024837452918291092,-0.033444907516241074
1761413448661386800,7.33738671875,0.017753219231963158,0.024384714663028717,-0.030077340081334114
1761413448671400700,7.347400634765625,0.0127752386033535,0.025394584983587265,-0.020207678899168968
1761413448681413600,7.35741357421875,0.010003420524299145,0.023042749613523483,-0.015922119840979576
1761413448691427600,7.367427490234375,0.004370101261883974,0.010026317089796066,-0.007735072169452906
1761413448701440800,7.377440673828125,0.0007806929061189294,-0.008350826799869537,-0.00786583311855793
1761413448711455000,7.387455078125,-0.00642355578020215,-0.010199125856161118,-0.011078039184212685
1761413448721467600,7.397467529296875,-0.014317164197564125,-0.00651411060243845,-0.012399500235915184
1761413448731481900,7.40748193359375,-0.019995957612991333,-0.002576827071607113,-0.015331725589931011
1761413448741494500,7.41749462890625,-0.03063155710697174,0.00003999471664428711,-0.019423939287662506
1761413448751508700,7.4275087890625,-0.03903263062238693,0.00040904292836785316,-0.02853933535516262
1761413448761522000,7.43752197265625,-0.04715500399470329,-0.006186275742948055,-0.032243795692920685
1761413448771534600,7.44753466796875,-0.05865500122308731,-0.0017466195859014988,-0.03724057227373123
1761413448781548800,7.457548828125,-0.06503966450691223,0.011423509567975998,-0.035398729145526886
1761413448791561700,7.467561767578125,-0.07083702832460403,0.024380620568990707,-0.033653587102890015
1761413448801575700,7.47757568359375,-0.06713177263736725,0.025705277919769287,-0.030267640948295593
1761413448811588900,7.4875888671875,-0.06405529379844666,0.02410897985100746,-0.02861865609884262
1761413448821602800,7.497602783203125,-0.059854958206415176,0.0245252326130867,-0.037789251655340195
1761413448831615700,7.50761572265625,-0.06406048685312271,0.04197832569479942,-0.04652712494134903
1761413448841629700,7.517629638671875,-0.062086284160614014,0.05234334617853165,-0.05954226106405258
1761413448851643000,7.527642822265625,-0.05647580698132515,0.056870587170124054,-0.06329158693552017
1761413448861656600,7.537656494140625,-0.052718084305524826,0.053913414478302,-0.06777554750442505
1761413448871669800,7.547669677734375,-0.052605632692575455,0.04722478985786438,-0.07333821058273315
1761413448881683700,7.55768359375,-0.0527033694088459,0.04203961417078972,-0.07757343351840973
1761413448891696600,7.567696533203125,-0.04689421504735947,0.03452856466174126,-0.08072812110185623
1761413448901710800,7.5777109375,-0.03921286016702652,0.01708405837416649,-0.06887971609830856
1761413448911723800,7.587723876953125,-0.039612267166376114,-0.008536315523087978,-0.05006797984242439
1761413448921737700,7.59773779296875,-0.040520139038562775,-0.028600571677088737,-0.032266344875097275
1761413448931750700,7.607750732421875,-0.03492756560444832,-0.039625827223062515,-0.03588343784213066
1761413448941764900,7.617764892578125,-0.02537987008690834,-0.02508523315191269,-0.04093572124838829
1761413448951777800,7.62777783203125,-0.01907876506447792,-0.00015002116560935974,-0.03735245019197464
1761413448961790700,7.637790771484375,-0.024996042251586914,0.005154729355126619,-0.03638438880443573
1761413448971805000,7.647804931640625,-0.029667425900697708,0.0015108934603631496,-0.024717502295970917
1761413448981817600,7.657817626953125,-0.03021417371928692,-0.002013001125305891,-0.008677016012370586
1761413448991831800,7.667831787109375,-0.029476411640644073,-0.005852449219673872,0.006604928523302078
1761413449001844700,7.6778447265625,-0.02994406223297119,-0.015190291218459606,0.009947728365659714
1761413449011858700,7.687858642578125,-0.024342035874724388,-0.019739069044589996,0.00929643027484417
1761413449021871900,7.697871826171875,-0.01593230664730072,-0.0075223506428301334,0.0070260860957205296
1761413449031885800,7.7078857421875,-0.0053084236569702625,0.0017574341036379337,0.01796422153711319
1761413449041898800,7.717898681640625,-0.004986713640391827,0.008926397189497948,0.02854815684258938
1761413449051912700,7.72791259765625,-0.010297790169715881,0.005228499416261911,0.04130560904741287
1761413449061925600,7.737925537109375,-0.012531382963061333,0.007623746525496244,0.042523473501205444
1761413449071939600,7.747939697265625,-0.012533912435173988,0.005274238996207714,0.04017062857747078
1761413449081952800,7.757952880859375,-0.007493347395211458,-0.0004907059483230114,0.03133825212717056
1761413449091967000,7.767967041015625,-0.0032190405763685703,-0.011678546667098999,0.022703655064105988
1761413449101979600,7.777979736328125,0.001899821450933814,-0.01800488494336605,0.011962591670453548
1761413449111993900,7.787993896484375,0.005269718822091818,-0.020753566175699234,0.007067744620144367
1761413449122006500,7.798006591796875,0.00419966084882617,-0.02494298666715622,0.011381266638636589
1761413449132019700,7.808019775390625,0.005347216501832008,-0.029955854639410973,0.011739461682736874
1761413449142034000,7.818033935546875,0.004835889674723148,-0.03234896808862686,0.00840971153229475
1761413449152046600,7.828046630859375,0.0007306930492632091,-0.027129940688610077,0.013024646788835526
1761413449162060800,7.838060791015625,-0.008394628763198853,-0.026296105235815048,0.02027403749525547
1761413449172073700,7.84807373046875,-0.014083805494010448,-0.021332837641239166,0.026179414242506027
1761413449182087700,7.858087646484375,-0.015263053588569164,-0.014766547828912735,0.020037366077303886
1761413449192100900,7.868100830078125,-0.01540200412273407,-0.002700929995626211,0.00938055943697691
1761413449202114800,7.87811474609375,-0.00902533158659935,0.0013417485170066357,-0.006064709275960922
1761413449212127700,7.888127685546875,-0.0021509802900254726,-0.011198976077139378,-0.012147185392677784
1761413449222141700,7.8981416015625,0.0015417591203004122,-0.02471371926367283,-0.015599707141518593
1761413449232155000,7.90815478515625,0.006835124921053648,-0.03311609476804733,-0.010939892381429672
1761413449242168600,7.91816845703125,0.01679135113954544,-0.03315817192196846,-0.006186415441334248
1761413449252181800,7.928181640625,0.02794853039085865,-0.0195179246366024,-0.0014577456749975681
1761413449262195700,7.93819580078125,0.030450038611888885,-0.01655888743698597,0.006933608092367649
1761413449272208600,7.948208740234375,0.030057555064558983,-0.021366525441408157,0.018793560564517975
1761413449282222800,7.958222900390625,0.0331854373216629,-0.024137277156114578,0.025279425084590912
1761413449292235800,7.96823583984375,0.025958819314837456,-0.018919680267572403,0.028151949867606163
1761413449302248700,7.978248779296875,0.019566433504223824,-0.017500482499599457,0.023821383714675903
1761413449312262700,7.9882626953125,0.012985162436962128,-0.004746236838400364,0.010999243706464767
1761413449322275800,7.99827587890625,0.013205671682953835,0.0014906199648976326,-0.005727005191147327
1761413449332289800,8.008289794921875,0.014491579495370388,0.00294996565207839,-0.02377970516681671
1761413449342302700,8.018302734375,0.01688709296286106,0.00502723129466176,-0.04342850670218468
1761413449352317000,8.02831689453125,0.019924959167838097,0.004310442600399256,-0.046746399253606796
1761413449362329600,8.03832958984375,0.02211647480726242,0.00484653702005744,-0.050409842282533646
1761413449372343800,8.04834375,0.023655714467167854,0.004695502575486898,-0.04730428755283356
1761413449382356700,8.058356689453126,0.021548621356487274,0.012997375801205635,-0.04348345100879669
1761413449392370700,8.06837060546875,0.01728084124624729,0.020713582634925842,-0.040106549859046936
1761413449402384000,8.0783837890625,0.007346717640757561,0.02827616222202778,-0.04125836491584778
1761413449412397800,8.088397705078124,-0.00019022749620489776,0.03375178575515747,-0.047888223081827164
1761413449422410800,8.09841064453125,-0.005732798483222723,0.03709991276264191,-0.06139630824327469
1761413449432424700,8.1084248046875,-0.00939863920211792,0.037539467215538025,-0.0659986287355423
1761413449442437600,8.118437744140625,-0.013238651677966118,0.035984449088573456,-0.0669323280453682
1761413449452451600,8.12845166015625,-0.00852285884320736,0.031264327466487885,-0.05347812920808792
1761413449462464800,8.13846484375,-0.007349470164626837,0.02474331110715866,-0.043942682445049286
1761413449472477700,8.148477783203125,-0.007390349637717009,0.02006380259990692,-0.030162349343299866
1761413449482491600,8.15849169921875,-0.005380994640290737,0.024161342531442642,-0.011445121839642525
1761413449492504800,8.1685048828125,0.00033061893191188574,0.027001840993762016,0.00009574717842042446
1761413449502518500,8.1785185546875,0.0015817719977349043,0.02402469329535961,0.012605413794517517
1761413449512531700,8.18853173828125,-0.0011287257075309753,0.021560367196798325,0.026096802204847336
1761413449522545400,8.19854541015625,-0.006804454140365124,0.023000873625278473,0.04033299535512924
1761413449532558000,8.20855810546875,-0.01195700652897358,0.021405039355158806,0.05288669466972351
1761413449542572300,8.218572265625,-0.021177135407924652,0.012511946260929108,0.06320883333683014
1761413449552585500,8.22858544921875,-0.02687929756939411,0.01099950447678566,0.06614446640014648
1761413449562599400,8.238599365234375,-0.03203917294740677,-0.00353203434497118,0.06465177237987518
1761413449572612400,8.2486123046875,-0.037465695291757584,-0.011835271492600441,0.05849429592490196
1761413449582626300,8.258626220703125,-0.038012973964214325,-0.011842994950711727,0.05296557396650314
1761413449592639200,8.26863916015625,-0.03752315044403076,-0.013152305036783218,0.04843936488032341
1761413449602653200,8.278653076171874,-0.03825658559799194,-0.01707008108496666,0.04321903735399246
1761413449612666400,8.288666259765625,-0.04127627983689308,-0.016716243699193,0.03978555649518967
1761413449622679300,8.29867919921875,-0.045758914202451706,-0.01821480318903923,0.03389464318752289
1761413449632693200,8.308693359375,-0.0497334785759449,-0.012165205553174019,0.029326513409614563
1761413449642706400,8.31870654296875,-0.05167758837342262,-0.008156082592904568,0.0229335967451334
1761413449652720000,8.32872021484375,-0.051058605313301086,-0.006691042333841324,0.016858117654919624
1761413449662733300,8.3387333984375,-0.043881118297576904,-0.006144295446574688,0.007102426141500473
1761413449672747300,8.348747314453124,-0.04240472614765167,-0.007256731390953064,0.001984656322747469
1761413449682760200,8.35876025390625,-0.04006087779998779,-0.008867943659424782,-0.008342815563082695
1761413449692774400,8.3687744140625,-0.03909055516123772,-0.005218015518039465,-0.017828000709414482
1761413449702787300,8.378787353515625,-0.03140493854880333,0.0000017802231013774872,-0.030054040253162384
1761413449712801300,8.38880126953125,-0.029918896034359932,0.007329602260142565,-0.035478491336107254
1761413449722814200,8.398814208984374,-0.020313672721385956,0.012632489204406738,-0.043122030794620514
1761413449732828400,8.408828369140625,-0.013272007927298546,0.012938085943460464,-0.04777471348643303
1761413449742841300,8.41884130859375,-0.0008009575540199876,0.004941145423799753,-0.043348006904125214
1761413449752855300,8.428855224609375,0.002921673469245434,-0.0005550505593419075,-0.03794180229306221
1761413449762868500,8.438868408203126,0.008813118562102318,-0.005823049694299698,-0.02831101045012474
1761413449772881200,8.448881103515625,0.018824873492121696,-0.0025247903540730476,-0.030625760555267334
1761413449782895400,8.458895263671875,0.02985541895031929,0.004629525821655989,-0.028986051678657532
1761413449792908300,8.468908203125,0.028000328689813614,0.005000535398721695,-0.03992822393774986
1761413449802922200,8.478922119140625,0.03049837425351143,0.008775565773248672,-0.04321882501244545
1761413449812935400,8.488935302734374,0.03176497668027878,0.011602509766817093,-0.0450923778116703
1761413449822949400,8.498949462890625,0.033549558371305466,0.010135907679796219,-0.0439850352704525
1761413449832962300,8.50896240234375,0.03135192021727562,0.012419434264302254,-0.03741995245218277
1761413449842976300,8.518976318359375,0.03573388606309891,0.019108494743704796,-0.034800201654434204
1761413449852989200,8.5289892578125,0.04557592794299126,0.03384127467870712,-0.029114753007888794
1761413449863003100,8.539003173828124,0.06129896268248558,0.031270258128643036,-0.03861744701862335
1761413449873016300,8.549016357421875,0.07376421988010406,0.04489195719361305,-0.015151453204452991
1761413449883030500,8.559030517578124,0.07921278476715088,0.024004783481359482,0.01587863452732563
1761413449893043200,8.569043212890625,0.08670738339424133,-0.008620169945061207,0.010843297466635704
1761413449903057400,8.579057373046876,0.09674590080976486,-0.044391751289367676,-0.01355179026722908
1761413449913070000,8.589070068359375,0.09676720201969147,-0.0931563600897789,-0.06052354350686073
1761413449923083300,8.599083251953125,0.08015067875385284,-0.09073421359062195,-0.09461306780576706
1761413449933097500,8.609097412109374,0.054012421518564224,-0.03865070268511772,-0.10302020609378815
1761413449943110100,8.619110107421875,0.007769026793539524,0.035099949687719345,-0.09009242057800293
1761413449953124400,8.629124267578124,-0.038070302456617355,0.10001560300588608,-0.07169879227876663
1761413449963137300,8.63913720703125,-0.08129260689020157,0.12568899989128113,-0.06510161608457565
1761413449973151200,8.649151123046876,-0.09102605283260345,0.1075151264667511,-0.03669058531522751
1761413449983164400,8.659164306640625,-0.04816381260752678,0.10283408313989639,0.006467805244028568
1761413449993178400,8.669178466796875,0.007565227337181568,0.07750516384840012,0.05502486228942871
1761413450003191300,8.67919140625,0.039350587874650955,0.014954967424273491,0.09405588358640671
1761413450013205200,8.689205322265625,0.05561165139079094,-0.04473522678017616,0.11976306885480881
