time,seconds_elapsed,z,y,x
1761411690952580600,0.20258056640625,0.089752197265625,-0.07647758722305298,0.1354207694530487
1761411690969431000,0.21943115234375,-0.0309906005859375,-0.01762944459915161,0.14059963822364807
1761411690986258200,0.236258056640625,-0.09350872039794922,0.0152168869972229,0.11857059597969055
1761411691003081000,0.2530810546875,-0.10945510864257812,0.0367656946182251,0.10983702540397644
1761411691019904000,0.269904052734375,-0.06403923034667969,0.05851900577545166,0.11019903421401978
1761411691036727300,0.286727294921875,-0.011932373046875,0.05923646688461304,0.10048854351043701
1761411691053550000,0.303550048828125,0.03103923797607422,0.07633060216903687,0.09948480129241943
1761411691070372600,0.32037255859375,0.008149147033691406,0.07055246829986572,0.11069649457931519
1761411691087179300,0.33717919921875,0.01849651336669922,0.06166374683380127,0.1402500569820404
1761411691103984400,0.353984375,0.022215843200683594,0.06846010684967041,0.15787360072135925
1761411691120844500,0.370844482421875,-0.001705169677734375,0.07474309206008911,0.15616971254348755
1761411691137647600,0.387647705078125,-0.08657264709472656,0.08794856071472168,0.14686429500579834
1761411691154487600,0.404487548828125,-0.1053628921508789,0.07105910778045654,0.13665446639060974
1761411691171306000,0.421305908203125,-0.10460758209228516,0.04311048984527588,0.14953801035881042
1761411691188136700,0.43813671875,-0.07425594329833984,0.03804439306259155,0.16330558061599731
1761411691204955600,0.45495556640625,-0.060502052307128906,0.04773527383804321,0.15047678351402283
1761411691221778700,0.47177880859375,-0.045073509216308594,0.04011589288711548,0.1110031008720398
1761411691238602000,0.48860205078125,-0.05657482147216797,0.030507564544677734,0.09625273942947388
1761411691255415000,0.5054150390625,-0.04420757293701172,0.001959860324859619,0.08650225400924683
1761411691272224800,0.522224853515625,-0.015809059143066406,-0.0029065608978271484,0.08836942911148071
1761411691289056300,0.53905615234375,0.030115127563476562,0.00982356071472168,0.11172455549240112
1761411691305866200,0.5558662109375,0.03922462463378906,0.0055204033851623535,0.13342761993408203
1761411691322698500,0.572698486328125,-0.014958381652832031,0.006601989269256592,0.13179248571395874
1761411691339515400,0.589515380859375,-0.06242084503173828,0.025166869163513184,0.13671863079071045
1761411691356332000,0.60633203125,-0.06862354278564453,0.04047548770904541,0.1352342963218689
1761411691373186800,0.623186767578125,-0.028328895568847656,0.03316664695739746,0.1612938940525055
1761411691389977000,0.63997705078125,-0.0345916748046875,0.02877223491668701,0.1748906672000885
1761411691406813700,0.656813720703125,-0.07845401763916016,0.04286438226699829,0.16411659121513367
1761411691423642000,0.67364208984375,-0.1345062255859375,0.05250948667526245,0.16647323966026306
1761411691440462300,0.69046240234375,-0.09895515441894531,0.05791592597961426,0.18385049700737
1761411691457284900,0.707284912109375,-0.034308433532714844,0.04181402921676636,0.17968544363975525
1761411691474119400,0.724119384765625,-0.026233673095703125,0.027207553386688232,0.1718411147594452
1761411691490948600,0.740948486328125,-0.04589653015136719,0.009196877479553223,0.14297625422477722
1761411691507762700,0.7577626953125,-0.06063365936279297,-0.012330710887908936,0.13273417949676514
1761411691524590300,0.77459033203125,-0.03368186950683594,-0.01988840103149414,0.12123644351959229
1761411691541413400,0.791413330078125,-0.009530067443847656,-0.029246747493743896,0.11945661902427673
1761411691558236000,0.80823583984375,0.0010805130004882812,-0.025324523448944092,0.12903618812561035
1761411691575059500,0.8250595703125,-0.014011383056640625,-0.03336048126220703,0.14574047923088074
1761411691591886300,0.84188623046875,-0.06921958923339844,-0.03054744005203247,0.1350695788860321
1761411691608715500,0.858715576171875,-0.08748054504394531,-0.023633897304534912,0.12841826677322388
1761411691625521400,0.875521484375,-0.11792659759521484,-0.022424161434173584,0.1348685920238495
1761411691642340000,0.892340087890625,-0.12431812286376953,-0.024760305881500244,0.1377454698085785
1761411691659159600,0.90915966796875,-0.11965465545654297,-0.0263516902923584,0.13251087069511414
1761411691675982600,0.925982666015625,-0.09969902038574219,-0.0319293737411499,0.13609260320663452
1761411691692800500,0.942800537109375,-0.09803962707519531,-0.03435397148132324,0.15610003471374512
1761411691709631700,0.9596318359375,-0.10623645782470703,-0.04357731342315674,0.17662984132766724
1761411691726438000,0.97643798828125,-0.102325439453125,-0.054537832736968994,0.18478673696517944
1761411691743286300,0.993286376953125,-0.10444259643554688,-0.08558613061904907,0.18062078952789307
1761411691760098000,1.01009814453125,-0.10637855529785156,-0.078249990940094,0.160694420337677
1761411691776921900,1.026921875,-0.0667104721069336,-0.06424182653427124,0.13240528106689453
1761411691793739500,1.043739501953125,-0.0096435546875,-0.032753825187683105,0.11987441778182983
1761411691810568200,1.060568115234375,-0.026899337768554688,-0.060945212841033936,0.1265050768852234
1761411691827388400,1.077388427734375,-0.014654159545898438,-0.07010668516159058,0.10090190172195435
1761411691844212500,1.09421240234375,-0.028290748596191406,-0.05591708421707153,0.10279744863510132
1761411691861050000,1.111050048828125,-0.06749248504638672,-0.0720016360282898,0.13513225317001343
1761411691877854000,1.12785400390625,-0.09339141845703125,-0.04594433307647705,0.1491471529006958
1761411691894680000,1.14468017578125,-0.1432209014892578,-0.009409189224243164,0.1766532063484192
1761411691911500800,1.161500732421875,-0.15865802764892578,0.004551351070404053,0.22607779502868652
1761411691928327000,1.178326904296875,-0.10685348510742188,0.028683066368103027,0.26004862785339355
1761411691945147100,1.195147216796875,-0.09595203399658203,0.03248107433319092,0.2526770830154419
1761411691961971200,1.21197119140625,-0.12958812713623047,0.03178572654724121,0.21906238794326782
1761411691978812400,1.2288125,-0.09770584106445312,0.04779541492462158,0.17941904067993164
1761411691995614200,1.2456142578125,-0.044852256774902344,0.03450953960418701,0.15899145603179932
1761411692012433200,1.26243310546875,0.012918472290039062,0.02006584405899048,0.16786348819732666
1761411692029281300,1.27928125,0.06462669372558594,0.026883602142333984,0.17045778036117554
1761411692046104000,1.29610400390625,0.04311370849609375,0.030735492706298828,0.19068270921707153
1761411692062903300,1.3129033203125,0.019250869750976562,0.03254216909408569,0.2037949562072754
1761411692079742700,1.32974267578125,-0.041599273681640625,0.03264528512954712,0.21089571714401245
1761411692096552000,1.346552001953125,-0.052313804626464844,0.050095975399017334,0.1871064305305481
1761411692113391000,1.36339111328125,-0.031533241271972656,0.06452369689941406,0.15718871355056763
1761411692130197200,1.380197265625,-0.009131431579589844,0.0431826114654541,0.1648097038269043
1761411692147017700,1.397017822265625,-0.024829864501953125,0.014335215091705322,0.16030114889144897
1761411692163843600,1.413843505859375,-0.0498199462890625,0.024722158908843994,0.13334310054779053
1761411692180666400,1.430666259765625,-0.0816650390625,0.02169644832611084,0.13596224784851074
1761411692197476600,1.4474765625,-0.07948684692382812,0.013401925563812256,0.16088050603866577
1761411692214304000,1.464303955078125,-0.052448272705078125,0.013892531394958496,0.16237545013427734
1761411692231127000,1.481126953125,-0.05859375,0.007141590118408203,0.15673720836639404
1761411692247948000,1.497947998046875,-0.0764169692993164,-0.0036845803260803223,0.15226686000823975
1761411692264770600,1.5147705078125,-0.060866355895996094,-0.008122563362121582,0.13755303621292114
1761411692281593900,1.53159375,-0.038886070251464844,-0.009808003902435303,0.13444292545318604
1761411692298417200,1.548417236328125,-0.04925251007080078,-0.018566548824310303,0.1256575584411621
1761411692315234800,1.56523486328125,-0.0958852767944336,-0.03211367130279541,0.10976099967956543
1761411692332061400,1.5820615234375,-0.10790443420410156,-0.02569979429244995,0.10069084167480469
1761411692348886300,1.59888623046875,-0.09646892547607422,-0.020319640636444092,0.09086930751800537
1761411692365708500,1.61570849609375,-0.06748104095458984,-0.009797453880310059,0.1026046872138977
1761411692382532000,1.632531982421875,-0.05732440948486328,-0.007416784763336182,0.09745937585830688
1761411692399354600,1.649354736328125,-0.0489959716796875,-0.01767265796661377,0.079537034034729
1761411692416195800,1.66619580078125,-0.06134319305419922,-0.028666436672210693,0.07427066564559937
1761411692433014800,1.683014892578125,-0.08003711700439453,-0.024090051651000977,0.10462784767150879
1761411692449832400,1.69983251953125,-0.10534286499023438,0.006891429424285889,0.13456153869628906
1761411692466657500,1.716657470703125,-0.14404010772705078,0.027769148349761963,0.15788280963897705
1761411692483480800,1.733480712890625,-0.15903282165527344,0.017131328582763672,0.16492515802383423
1761411692500303600,1.7503037109375,-0.12167549133300781,0.030272364616394043,0.11677950620651245
1761411692517140000,1.767139892578125,-0.020410537719726562,0.011267304420471191,0.08642458915710449
1761411692533966600,1.783966552734375,0.028318405151367188,-0.014324188232421875,0.05969053506851196
1761411692550786300,1.800786376953125,0.023075103759765625,-0.012059986591339111,0.020796239376068115
1761411692567609000,1.817609130859375,-0.00606536865234375,0.0059621334075927734,0.030463814735412598
1761411692584431900,1.834431884765625,-0.026140213012695312,0.003907978534698486,0.0694848895072937
1761411692601254400,1.85125439453125,-0.06264781951904297,0.009728074073791504,0.08778500556945801
1761411692618073300,1.8680732421875,-0.1080007553100586,0.026409804821014404,0.09809744358062744
1761411692634887700,1.8848876953125,-0.1177053451538086,0.017220377922058105,0.12935751676559448
1761411692651723300,1.90172314453125,-0.035465240478515625,0.018651902675628662,0.13695043325424194
1761411692668542700,1.918542724609375,0.024252891540527344,0.006973326206207275,0.13872867822647095
1761411692685367600,1.935367431640625,0.025371551513671875,0.007462143898010254,0.10885041952133179
1761411692702195700,1.95219580078125,-0.07451343536376953,0.008288443088531494,0.0828898549079895
1761411692719015200,1.96901513671875,-0.17823028564453125,0.013268828392028809,0.09106135368347168
1761411692735833900,1.985833740234375,-0.21187305450439453,0.029939770698547363,0.12115824222564697
1761411692752646700,2.002646728515625,-0.216705322265625,0.03683269023895264,0.16386288404464722
1761411692769469400,2.019469482421875,-0.21216487884521484,0.03347736597061157,0.17668414115905762
1761411692786292700,2.036292724609375,-0.22885417938232422,0.019389808177947998,0.1704719066619873
1761411692803115000,2.053114990234375,-0.1433572769165039,0.012152612209320068,0.15165424346923828
1761411692819935000,2.06993505859375,0.021920204162597656,-0.009010374546051025,0.13299506902694702
1761411692836760300,2.08676025390625,0.11504268646240234,-0.03253293037414551,0.13231360912322998
1761411692853585000,2.1035849609375,0.09218788146972656,-0.049713194370269775,0.1312488317489624
1761411692870403000,2.120403076171875,0.0627279281616211,-0.053841590881347656,0.10374283790588379
1761411692887232800,2.137232666015625,0.024779319763183594,-0.060834527015686035,0.07541346549987793
1761411692904052500,2.154052490234375,-0.027129173278808594,-0.048568785190582275,0.08157068490982056
1761411692920872700,2.170872802734375,-0.058640480041503906,-0.01760423183441162,0.09440356492996216
1761411692937701400,2.187701416015625,-0.08317756652832031,0.02279895544052124,0.08206486701965332
1761411692954538500,2.20453857421875,-0.07614326477050781,0.05455666780471802,0.05127596855163574
1761411692971361300,2.221361328125,-0.07920646667480469,0.036457061767578125,0.06530153751373291
1761411692988177700,2.238177734375,-0.05765819549560547,0.02042865753173828,0.06935954093933105
1761411693004989200,2.2549892578125,-0.024155616760253906,0.04138791561126709,0.07213705778121948
1761411693021826600,2.27182666015625,-0.020173072814941406,0.0424579381942749,0.1040683388710022
1761411693038636300,2.28863623046875,-0.0198516845703125,0.05636066198348999,0.1141250729560852
1761411693055455700,2.305455810546875,-0.07118797302246094,0.0640764832496643,0.1247398853302002
1761411693072295000,2.322294921875,-0.10092926025390625,0.07056242227554321,0.11956357955932617
1761411693089118500,2.339118408203125,-0.10545158386230469,0.06877654790878296,0.1383686065673828
1761411693105940500,2.3559404296875,-0.05225086212158203,0.049214303493499756,0.18388372659683228
1761411693122756400,2.37275634765625,0.0034704208374023438,0.03914666175842285,0.1638106107711792
1761411693139594800,2.3895947265625,0.024078369140625,0.037564992904663086,0.14055263996124268
1761411693156393000,2.40639306640625,0.004284858703613281,0.023673951625823975,0.11952543258666992
1761411693173232600,2.423232666015625,-0.0274505615234375,0.0073544979095458984,0.11227971315383911
1761411693190035200,2.44003515625,-0.03651142120361328,-0.007745325565338135,0.12879455089569092
1761411693206881800,2.4568818359375,-0.04378986358642578,-0.019419372081756592,0.15506517887115479
1761411693223696400,2.4736962890625,-0.043102264404296875,-0.02126079797744751,0.15964937210083008
1761411693240514300,2.490514404296875,-0.06541824340820312,-0.029421508312225342,0.14693599939346313
1761411693257327900,2.507327880859375,-0.097015380859375,-0.04378610849380493,0.136427104473114
1761411693274160600,2.52416064453125,-0.14166259765625,-0.04024404287338257,0.14538675546646118
1761411693290975200,2.540975341796875,-0.18120384216308594,-0.04255920648574829,0.15883851051330566
1761411693307805000,2.557804931640625,-0.1589365005493164,-0.050225675106048584,0.17337429523468018
1761411693324614100,2.5746142578125,-0.08428287506103516,-0.06870532035827637,0.17047357559204102
1761411693341444400,2.5914443359375,-0.039031028747558594,-0.08213788270950317,0.1657351851463318
1761411693358273000,2.60827294921875,-0.044142723083496094,-0.0964398980140686,0.15280264616012573
1761411693375093200,2.62509326171875,-0.07251167297363281,-0.10066103935241699,0.1614365577697754
1761411693391916000,2.641916015625,-0.10107612609863281,-0.09389656782150269,0.18186378479003906
1761411693408738300,2.65873828125,-0.13718223571777344,-0.0761757493019104,0.19502949714660645
1761411693425558500,2.67555859375,-0.11123943328857422,-0.053879499435424805,0.19804495573043823
1761411693442405000,2.692405029296875,-0.06615638732910156,-0.06486570835113525,0.2048683762550354
1761411693459221800,2.7092216796875,-0.07417106628417969,-0.0733036994934082,0.19162869453430176
1761411693476039700,2.726039794921875,-0.1168661117553711,-0.08522170782089233,0.1725097894668579
1761411693492855800,2.742855712890625,-0.1470785140991211,-0.05898672342300415,0.16930490732192993
1761411693509690000,2.759690185546875,-0.1157979965209961,-0.015705466270446777,0.17441225051879883
1761411693526513400,2.776513427734375,-0.110809326171875,-0.007646918296813965,0.1913507580757141
1761411693543335200,2.793335205078125,-0.12198638916015625,-0.003945469856262207,0.1863921880722046
1761411693560161300,2.810161376953125,-0.11392974853515625,-0.014644026756286621,0.18065541982650757
1761411693576979000,2.82697900390625,-0.04540443420410156,-0.014903128147125244,0.16055601835250854
1761411693593804300,2.84380419921875,-0.016022682189941406,0.009429991245269775,0.15417319536209106
1761411693610626800,2.860626708984375,-0.016435623168945312,0.016270220279693604,0.15399956703186035
1761411693627446000,2.877446044921875,-0.05883026123046875,0.04045546054840088,0.15021532773971558
1761411693644270800,2.894270751953125,-0.096343994140625,0.05642896890640259,0.14513099193572998
1761411693661101800,2.911101806640625,-0.08102035522460938,0.07759445905685425,0.14470142126083374
1761411693677901600,2.927901611328125,-0.08386421203613281,0.06436800956726074,0.15685772895812988
1761411693694736400,2.944736328125,-0.056827545166015625,0.053269267082214355,0.13104581832885742
1761411693711568600,2.961568603515625,-0.009114265441894531,0.05389350652694702,0.07637429237365723
1761411693728354000,2.97835400390625,0.03039264678955078,0.05252271890640259,0.07127070426940918
1761411693745199400,2.995199462890625,0.07223224639892578,0.040556907653808594,0.08036500215530396
1761411693762019000,3.01201904296875,0.07741641998291016,0.0221097469329834,0.08961659669876099
1761411693778842000,3.028842041015625,0.023705482482910156,0.030415236949920654,0.07717514038085938
1761411693795665200,3.0456650390625,-0.038333892822265625,0.03791612386703491,0.059987008571624756
1761411693812487400,3.0624873046875,-0.10734748840332031,0.026611030101776123,0.06475698947906494
1761411693829298000,3.0792978515625,-0.09186267852783203,0.033827245235443115,0.0802275538444519
1761411693846133500,3.096133544921875,-0.06405448913574219,0.027520298957824707,0.10021251440048218
1761411693862956500,3.11295654296875,-0.06311702728271484,0.0198175311088562,0.09298789501190186
1761411693879793400,3.12979345703125,-0.10548019409179688,0.022166311740875244,0.09835147857666016
1761411693896599000,3.14659912109375,-0.117218017578125,0.022149205207824707,0.11512154340744019
1761411693913428500,3.163428466796875,-0.10104084014892578,0.005999743938446045,0.12394416332244873
1761411693930265000,3.18026513671875,-0.06832313537597656,-0.004223644733428955,0.1338600516319275
1761411693947084300,3.197084228515625,-0.06345653533935547,-0.02145063877105713,0.1479925513267517
1761411693963891000,3.213890869140625,-0.06907939910888672,-0.037273943424224854,0.15987277030944824
1761411693980726300,3.230726318359375,-0.096435546875,-0.036912381649017334,0.14701664447784424
1761411693997553700,3.2475537109375,-0.11720657348632812,-0.029539525508880615,0.1240544319152832
1761411694014380800,3.264380859375,-0.1341381072998047,-0.039256155490875244,0.12066173553466797
1761411694031194600,3.281194580078125,-0.13286685943603516,-0.04216146469116211,0.11386406421661377
1761411694048009500,3.298009521484375,-0.11271381378173828,-0.05443382263183594,0.11358606815338135
1761411694064844800,3.3148447265625,-0.06144905090332031,-0.053653717041015625,0.13283956050872803
1761411694081667600,3.33166748046875,-0.019695281982421875,-0.043571650981903076,0.15224069356918335
1761411694098470100,3.34847021484375,-0.010830879211425781,-0.028099536895751953,0.16856223344802856
1761411694115282400,3.365282470703125,-0.012510299682617188,-0.0037105679512023926,0.16201674938201904
1761411694132120000,3.3821201171875,-0.02918720245361328,0.011412382125854492,0.1526063084602356
1761411694148942000,3.398942138671875,-0.018202781677246094,0.004848480224609375,0.1458427906036377
1761411694165786000,3.4157861328125,-0.021231651306152344,0.014349937438964844,0.1136675477027893
1761411694182603500,3.432603515625,-0.03247642517089844,0.01805812120437622,0.10356485843658447
1761411694199428000,3.449427978515625,-0.09650039672851562,0.0199393630027771,0.10405588150024414
1761411694216220200,3.46622021484375,-0.11665630340576172,0.02960038185119629,0.08305370807647705
1761411694233059800,3.483059814453125,-0.10410499572753906,0.04399073123931885,0.09070146083831787
1761411694249882600,3.499882568359375,-0.09505176544189453,0.05420231819152832,0.1185457706451416
1761411694266705700,3.51670556640625,-0.11043262481689453,0.04839777946472168,0.1196865439414978
1761411694283510300,3.53351025390625,-0.1006155014038086,0.04057192802429199,0.10365617275238037
1761411694300351200,3.550351318359375,-0.058373451232910156,0.04465240240097046,0.08931577205657959
1761411694317174300,3.56717431640625,-0.01864337921142578,0.04569423198699951,0.07385414838790894
1761411694333997300,3.583997314453125,-0.0024156570434570312,0.042282700538635254,0.06771659851074219
1761411694350819600,3.600819580078125,0.0033617019653320312,0.034458696842193604,0.0649765133857727
1761411694367643100,3.61764306640625,0.02359771728515625,0.026580810546875,0.0739559531211853
1761411694384465400,3.63446533203125,0.0334014892578125,0.034404873847961426,0.06752139329910278
1761411694401276000,3.65127587890625,0.011380195617675781,0.03382062911987305,0.07368159294128418
1761411694418107600,3.668107666015625,-0.05005931854248047,0.02520519495010376,0.07988202571868896
1761411694434927600,3.684927734375,-0.054160118103027344,0.046600401401519775,0.09176027774810791
1761411694451759400,3.70175927734375,-0.06242847442626953,0.043749332427978516,0.11664250493049622
1761411694468564000,3.71856396484375,-0.10441875457763672,0.04268616437911987,0.11588242650032043
1761411694485392100,3.73539208984375,-0.10417747497558594,0.02788466215133667,0.11186394095420837
1761411694502215000,3.75221484375,-0.08134841918945312,-0.0015555024147033691,0.11477541923522949
1761411694519036200,3.7690361328125,-0.051337242126464844,-0.008361101150512695,0.14088371396064758
1761411694535858700,3.785858642578125,-0.018911361694335938,-0.005641162395477295,0.1409328281879425
1761411694552673300,3.80267333984375,-0.02944183349609375,-0.0008352994918823242,0.142257422208786
1761411694569504300,3.819504150390625,-0.061110496520996094,-0.014441430568695068,0.130605548620224
1761411694586343400,3.836343505859375,-0.1161651611328125,-0.017388224601745605,0.13364741206169128
1761411694603163100,3.8531630859375,-0.16089344024658203,-0.01588118076324463,0.1493988335132599
1761411694619985700,3.869985595703125,-0.14960575103759766,-0.017634153366088867,0.15598994493484497
1761411694636808700,3.88680859375,-0.10595226287841797,-0.02851945161819458,0.15517491102218628
1761411694653631700,3.9036318359375,-0.07999706268310547,-0.04809969663619995,0.15347576141357422
1761411694670454800,3.920454833984375,-0.06733131408691406,-0.04835689067840576,0.12447607517242432
1761411694687294200,3.937294189453125,-0.06734848022460938,-0.027188479900360107,0.09780383110046387
1761411694704110600,3.954110595703125,-0.09758567810058594,-0.005441427230834961,0.08781710267066956
1761411694720923100,3.970923095703125,-0.07126426696777344,-0.01485741138458252,0.08843585848808289
1761411694737746400,3.987746337890625,-0.04703998565673828,-0.046421587467193604,0.08379676938056946
1761411694754568400,4.004568359375,-0.022638320922851562,-0.03813910484313965,0.10431599617004395
1761411694771391700,4.021391845703125,-0.014960289001464844,-0.0303802490234375,0.1195915937423706
1761411694788214500,4.038214599609375,-0.00870513916015625,-0.015249669551849365,0.1471247375011444
1761411694805037600,4.05503759765625,-0.0211181640625,-0.006870746612548828,0.16392281651496887
1761411694821847300,4.071847412109375,-0.0729837417602539,0.010774850845336914,0.18376463651657104
1761411694838683100,4.08868310546875,-0.14265155792236328,0.03682976961135864,0.1719171106815338
1761411694855506200,4.105506103515625,-0.17438220977783203,0.04739326238632202,0.1668546497821808
1761411694872329200,4.1223291015625,-0.1472921371459961,0.03002023696899414,0.17377862334251404
1761411694889151500,4.1391513671875,-0.10837078094482422,0.03849375247955322,0.16422009468078613
1761411694905991700,4.15599169921875,-0.08613109588623047,0.05268138647079468,0.1387273371219635
1761411694922794800,4.172794677734375,-0.0676736831665039,0.05376875400543213,0.1174878478050232
1761411694939634200,4.18963427734375,-0.0031137466430664062,0.04045271873474121,0.07684582471847534
1761411694956462800,4.206462890625,0.029000282287597656,0.029035091400146484,0.06738021969795227
1761411694973274600,4.223274658203125,0.049201011657714844,0.01708698272705078,0.06985551118850708
1761411694990099000,4.240098876953125,0.04672718048095703,0.03530377149581909,0.061796635389328
1761411695006929700,4.2569296875,0.034249305725097656,0.03505873680114746,0.04466313123703003
1761411695023748000,4.273748046875,-0.010191917419433594,0.0313572883605957,0.05536246299743652
1761411695040571600,4.290571533203125,-0.03366565704345703,0.044425010681152344,0.047784507274627686
1761411695057394200,4.307394287109375,-0.04688453674316406,0.054241061210632324,0.05181187391281128
1761411695074214000,4.3242138671875,-0.060423851013183594,0.046515464782714844,0.06765097379684448
1761411695091039700,4.341039794921875,-0.07642269134521484,0.04432445764541626,0.0864567756652832
1761411695107863000,4.357863037109375,-0.09150218963623047,0.04590165615081787,0.07849842309951782
1761411695124690200,4.374690185546875,-0.07942676544189453,0.03831946849822998,0.08020788431167603
1761411695141492200,4.3914921875,-0.046443939208984375,0.02693498134613037,0.07116436958312988
1761411695158331600,4.40833154296875,0.005621910095214844,0.015104115009307861,0.080373615026474
1761411695175140000,4.42514013671875,0.004481315612792969,-0.005205750465393066,0.10314181447029114
1761411695191977500,4.4419775390625,-0.051856040954589844,0.0029148459434509277,0.09605726599693298
1761411695208783400,4.458783447265625,-0.07408809661865234,-0.0024206042289733887,0.09796899557113647
1761411695225598700,4.4755986328125,-0.0627593994140625,-0.017398953437805176,0.1112811267375946
1761411695242432300,4.492432373046875,-0.05294036865234375,-0.019703805446624756,0.10804674029350281
1761411695259255000,4.509255126953125,-0.04327106475830078,-0.021593809127807617,0.09127035737037659
1761411695276065300,4.526065185546875,-0.08428573608398438,-0.04764646291732788,0.09268921613693237
1761411695292887800,4.5428876953125,-0.12528514862060547,-0.029996752738952637,0.08679419755935669
1761411695309723600,4.5597236328125,-0.18436813354492188,-0.013554632663726807,0.11860001087188721
1761411695326543400,4.57654345703125,-0.18180274963378906,-0.012535572052001953,0.13917067646980286
1761411695343372800,4.593372802734375,-0.12368965148925781,0.009880602359771729,0.12237876653671265
1761411695360192500,4.610192626953125,-0.0943899154663086,-0.01672220230102539,0.12860479950904846
1761411695377002200,4.627002197265625,-0.057219505310058594,-0.023616015911102295,0.12023070454597473
1761411695393855700,4.643855712890625,-0.02524280548095703,-0.008558690547943115,0.11317616701126099
1761411695410671000,4.660671142578125,0.0019044876098632812,-0.007380783557891846,0.11650416254997253
1761411695427501800,4.677501708984375,-0.041550636291503906,0.006036520004272461,0.13639715313911438
1761411695444320300,4.6943203125,-0.08105945587158203,0.033815741539001465,0.14177682995796204
1761411695461162000,4.711161865234375,-0.08972644805908203,0.05423194169998169,0.132532000541687
1761411695477966300,4.72796630859375,-0.0508575439453125,0.04184365272521973,0.1328524351119995
1761411695494788600,4.74478857421875,-0.03443622589111328,0.03308701515197754,0.14344239234924316
1761411695511595300,4.76159521484375,-0.008107185363769531,0.05097770690917969,0.10451561212539673
1761411695528427300,4.77842724609375,0.0028924942016601562,0.03238105773925781,0.11228001117706299
1761411695545261800,4.79526171875,0.03700542449951172,0.05069899559020996,0.11085128784179688
1761411695562080800,4.812080810546875,0.02851104736328125,0.03339409828186035,0.12237435579299927
1761411695578925800,4.82892578125,-0.02216815948486328,0.049664974212646484,0.10901427268981934
1761411695595706000,4.8457060546875,-0.051604270935058594,0.06067174673080444,0.09555494785308838
1761411695612562700,4.862562744140625,-0.05946826934814453,0.0335460901260376,0.08675259351730347
1761411695629356500,4.8793564453125,-0.031241416931152344,0.021405518054962158,0.06086015701293945
1761411695646177800,4.896177734375,-0.03347492218017578,0.010886728763580322,0.04181879758834839
1761411695662993000,4.912992919921875,-0.07922840118408203,0.001676023006439209,0.049815237522125244
1761411695679814100,4.929814208984375,-0.12200355529785156,0.006604433059692383,0.04951661825180054
1761411695696637200,4.94663720703125,-0.1219778060913086,0.016352951526641846,0.06392568349838257
1761411695713460500,4.96346044921875,-0.08699893951416016,0.015463411808013916,0.07555729150772095
1761411695730284300,4.9802841796875,-0.08114242553710938,0.011014461517333984,0.06648415327072144
1761411695747104500,4.9971044921875,-0.11827468872070312,0.00764542818069458,0.06126666069030762
1761411695763929300,5.013929443359375,-0.14092636108398438,0.018530309200286865,0.04034239053726196
1761411695780746000,5.03074609375,-0.14201068878173828,-0.0029129981994628906,0.019502639770507812
1761411695797576000,5.047575927734375,-0.08491134643554688,-0.011823534965515137,0.010822594165802002
1761411695814397400,5.0643974609375,-0.021790504455566406,-0.03200256824493408,0.02858942747116089
1761411695831220000,5.081219970703125,0.03134727478027344,-0.05745089054107666,0.08464705944061279
1761411695848044000,5.0980439453125,0.06294918060302734,-0.06725496053695679,0.10384202003479004
1761411695864881700,5.114881591796875,0.06652069091796875,-0.05576050281524658,0.10540860891342163
1761411695881714700,5.131714599609375,0.009626388549804688,-0.06990277767181396,0.12870943546295166
1761411695898524000,5.14852392578125,0.0029535293579101562,-0.07572412490844727,0.11342895030975342
1761411695915334100,5.165334228515625,-0.03637504577636719,-0.06913256645202637,0.10691690444946289
1761411695932170200,5.182170166015625,-0.10683155059814453,-0.06889742612838745,0.13919812440872192
1761411695948993300,5.1989931640625,-0.1574554443359375,-0.03819972276687622,0.17101752758026123
1761411695965833000,5.2158330078125,-0.1686248779296875,-0.006369948387145996,0.17866528034210205
1761411695982652200,5.232652099609375,-0.12369441986083984,-0.007019639015197754,0.1787937879562378
1761411695999476000,5.24947607421875,-0.11638641357421875,-0.03818666934967041,0.17951464653015137
1761411696016298500,5.266298583984375,-0.0780630111694336,-0.04391658306121826,0.1729527711868286
1761411696033104100,5.283104248046875,-0.042316436767578125,-0.04803454875946045,0.19669419527053833
1761411696049944600,5.299944580078125,-0.035869598388671875,-0.04568964242935181,0.22514313459396362
1761411696066766600,5.3167666015625,-0.08884429931640625,-0.02321183681488037,0.22767823934555054
1761411696083592700,5.3335927734375,-0.15891361236572266,0.015350937843322754,0.2334163784980774
1761411696100410000,5.35041015625,-0.2045879364013672,0.03347921371459961,0.22826164960861206
1761411696117218800,5.36721875,-0.21337604522705078,0.042820870876312256,0.23634260892868042
1761411696134041600,5.38404150390625,-0.16220760345458984,0.05629003047943115,0.22815454006195068
1761411696150881500,5.400881591796875,-0.13039302825927734,0.06115007400512695,0.20157486200332642
1761411696167703800,5.417703857421875,-0.09851264953613281,0.06728965044021606,0.16642773151397705
1761411696184523800,5.434523681640625,-0.034621238708496094,0.06129169464111328,0.14259397983551025
1761411696201335800,5.451335693359375,0.01947021484375,0.05960738658905029,0.13283902406692505
1761411696218159600,5.46815966796875,0.060901641845703125,0.058643996715545654,0.105449378490448
1761411696234981400,5.4849814453125,0.09106826782226562,0.05854588747024536,0.06618833541870117
1761411696251804700,5.5018046875,0.06766319274902344,0.04781067371368408,0.033960700035095215
1761411696268624400,5.518624267578125,0.022640228271484375,0.04495054483413696,-0.006238102912902832
1761411696285444600,5.535444580078125,-0.020269393920898438,0.054965078830718994,-0.03246498107910156
1761411696302264800,5.552264892578125,-0.040653228759765625,0.05346667766571045,-0.020128071308135986
1761411696319101000,5.569100830078125,-0.06358051300048828,0.05490589141845703,-0.000028908252716064453
1761411696335919000,5.585919189453125,-0.058391571044921875,0.04395264387130737,0.0021709203720092773
1761411696352727800,5.602727783203125,0.010776519775390625,0.020269453525543213,0.014688432216644287
1761411696369582000,5.61958203125,0.04934883117675781,-0.015618860721588135,0.041569650173187256
1761411696386401300,5.6364013671875,0.040389060974121094,-0.017241597175598145,0.005744457244873047
1761411696403224300,5.653224365234375,0.01748371124267578,-0.018813729286193848,-0.004041075706481934
1761411696420048000,5.6700478515625,-0.01513671875,-0.03123307228088379,0.01701444387435913
1761411696436875800,5.686875732421875,-0.03809642791748047,-0.022860825061798096,0.03807246685028076
1761411696453687300,5.703687255859375,-0.09796524047851562,-0.02155780792236328,0.07099854946136475
1761411696470515700,5.720515625,-0.15787220001220703,-0.012920379638671875,0.09830492734909058
1761411696487339000,5.737339111328125,-0.1750192642211914,0.003004789352416992,0.13128763437271118
1761411696504161000,5.7541611328125,-0.19069290161132812,0.008333086967468262,0.16031789779663086
1761411696520981000,5.77098095703125,-0.1814422607421875,0.005255341529846191,0.17589294910430908
1761411696537810700,5.787810791015625,-0.1797351837158203,0.004326939582824707,0.168826162815094
1761411696554614300,5.8046142578125,-0.18326663970947266,0.003461003303527832,0.15941321849822998
1761411696571452700,5.82145263671875,-0.13180160522460938,0.003048121929168701,0.13214600086212158
1761411696588262100,5.83826220703125,-0.07916736602783203,0.00032252073287963867,0.15004724264144897
1761411696605098800,5.8550986328125,-0.05144691467285156,0.0011749267578125,0.14759290218353271
1761411696621905400,5.871905517578125,-0.07476139068603516,0.04273653030395508,0.11827319860458374
1761411696638744000,5.888744140625,-0.09162044525146484,0.06503051519393921,0.09248769283294678
1761411696655586000,5.9055859375,0.000080108642578125,0.053776681423187256,0.07201820611953735
1761411696672390100,5.92239013671875,0.09061813354492188,0.02760934829711914,0.07208055257797241
1761411696689188600,5.939188720703125,0.12725067138671875,0.033574700355529785,0.05668586492538452
1761411696706022000,5.95602197265625,0.06150627136230469,0.06378096342086792,0.057527363300323486
1761411696722842000,5.972842041015625,-0.024222373962402344,0.08583754301071167,0.05700802803039551
1761411696739671300,5.98967138671875,-0.04131889343261719,0.10257464647293091,0.07136482000350952
1761411696756489700,6.00648974609375,-0.06112194061279297,0.09123075008392334,0.0896497368812561
1761411696773315600,6.023315673828125,-0.06562995910644531,0.08372670412063599,0.08972328901290894
1761411696790137000,6.04013720703125,-0.08994007110595703,0.0816536545753479,0.08589482307434082
1761411696806959600,6.056959716796875,-0.05849456787109375,0.07612794637680054,0.07579988241195679
1761411696823777500,6.073777587890625,-0.0017490386962890625,0.06298708915710449,0.058454692363739014
1761411696840610600,6.090610595703125,0.013261795043945312,0.052095890045166016,0.052924156188964844
1761411696857445400,6.1074453125,-0.021778106689453125,0.043080151081085205,0.04875445365905762
1761411696874265000,6.12426513671875,-0.04085350036621094,0.021990478038787842,0.0650741457939148
1761411696891074000,6.141073974609375,-0.029519081115722656,0.016236186027526855,0.05352175235748291
1761411696907910100,6.15791015625,-0.029259681701660156,0.005386948585510254,0.03388619422912598
1761411696924716800,6.174716796875,-0.051772117614746094,-0.020062804222106934,0.009032964706420898
1761411696941539800,6.191539794921875,-0.09175682067871094,-0.03327155113220215,0.004999816417694092
1761411696958380000,6.208380126953125,-0.07006263732910156,-0.04053694009780884,0.03113269805908203
1761411696975197700,6.22519775390625,-0.040617942810058594,-0.05059993267059326,0.06930506229400635
1761411696992024600,6.242024658203125,-0.05869865417480469,-0.05126917362213135,0.06745851039886475
1761411697008827000,6.258826904296875,-0.0904855728149414,-0.048266589641571045,0.03912493586540222
1761411697025672400,6.27567236328125,-0.10909175872802734,-0.06000185012817383,0.0354955792427063
1761411697042496300,6.292496337890625,-0.10675239562988281,-0.06740236282348633,0.047593265771865845
1761411697059316200,6.309316162109375,-0.06488513946533203,-0.07492375373840332,0.06230658292770386
1761411697076123000,6.326122802734375,-0.04414844512939453,-0.056038618087768555,0.07112261652946472
1761411697092945700,6.342945556640625,-0.040375709533691406,-0.05161780118942261,0.09018850326538086
1761411697109774000,6.359774169921875,-0.08854103088378906,-0.060473740100860596,0.11515209078788757
1761411697126599200,6.37659912109375,-0.11093616485595703,-0.04435169696807861,0.13547897338867188
1761411697143439400,6.393439453125,-0.11673164367675781,-0.026573896408081055,0.1499454379081726
1761411697160254000,6.41025390625,-0.12005996704101562,-0.0205916166305542,0.1459999680519104
1761411697177041200,6.427041259765625,-0.1515369415283203,-0.01663130521774292,0.14849084615707397
1761411697193885700,6.4438857421875,-0.17961788177490234,0.005753278732299805,0.16290247440338135
1761411697210705400,6.460705322265625,-0.18619060516357422,0.008898138999938965,0.1674504578113556
1761411697227534800,6.477534912109375,-0.18258094787597656,0.0021587610244750977,0.15414497256278992
1761411697244354300,6.494354248046875,-0.1350879669189453,-0.008772730827331543,0.16430261731147766
1761411697261177000,6.511177001953125,-0.07666301727294922,-0.023464560508728027,0.194489985704422
1761411697278000000,6.528000244140625,-0.03221321105957031,-0.0049163103103637695,0.19862139225006104
1761411697294823200,6.5448232421875,0.00014019012451171875,0.01781684160232544,0.1625312864780426
1761411697311629300,6.56162939453125,-0.002140045166015625,0.0074852705001831055,0.13335594534873962
1761411697328471300,6.57847119140625,0.0066356658935546875,-0.0004036426544189453,0.13149362802505493
1761411697345309700,6.595309814453125,0.017897605895996094,0.01525050401687622,0.11262863874435425
1761411697362128400,6.61212841796875,0.022764205932617188,0.019199490547180176,0.08759403228759766
1761411697378951000,6.628950927734375,0.02685832977294922,0.02655315399169922,0.08177056908607483
1761411697395774000,6.64577392578125,-0.011721611022949219,0.025198757648468018,0.0803423821926117
1761411697412580600,6.66258056640625,-0.05680274963378906,0.026515841484069824,0.08412936329841614
1761411697429419800,6.679419677734375,-0.09401988983154297,0.03953522443771362,0.058681607246398926
1761411697446238200,6.69623828125,-0.1073160171508789,0.03549325466156006,0.03776538372039795
1761411697463069200,6.713069091796875,-0.08582115173339844,0.028138399124145508,0.05547776818275452
1761411697479872800,6.729872802734375,-0.054579734802246094,0.038048744201660156,0.04874563217163086
1761411697496711400,6.74671142578125,-0.03237724304199219,0.04341459274291992,0.04237887263298035
1761411697513530000,6.763530029296875,-0.030637741088867188,0.042021095752716064,0.04844999313354492
1761411697530360800,6.78036083984375,-0.015154838562011719,0.023885488510131836,0.043830156326293945
1761411697547204600,6.79720458984375,-0.032034873962402344,0.003370523452758789,0.028270691633224487
1761411697564028000,6.81402783203125,-0.04398155212402344,0.016848981380462646,0.012111693620681763
1761411697580808400,6.830808349609375,-0.030129432678222656,0.009127974510192871,0.01498258113861084
1761411697597649200,6.847649169921875,-0.018172264099121094,-0.01321554183959961,0.02913239598274231
1761411697614468900,6.86446875,-0.020639419555664062,-0.01237267255783081,0.01970115303993225
1761411697631265800,6.881265869140625,-0.07695484161376953,-0.021896064281463623,0.028017699718475342
1761411697648120600,6.89812060546875,-0.14474868774414062,-0.022355198860168457,0.026562422513961792
1761411697664922600,6.914922607421875,-0.1505880355834961,-0.025632798671722412,0.031404346227645874
1761411697681747200,6.931747314453125,-0.10232257843017578,-0.02591228485107422,0.059048235416412354
1761411697698574300,6.94857421875,-0.032561302185058594,-0.041822969913482666,0.0771016776561737
1761411697715381500,6.965381591796875,-0.00615692138671875,-0.04974168539047241,0.06091025471687317
1761411697732217600,6.982217529296875,-0.038173675537109375,-0.0595930814743042,0.05440142750740051
1761411697749042200,6.999042236328125,-0.06132984161376953,-0.05435150861740112,0.06286737322807312
1761411697765862100,7.015862060546875,-0.05909252166748047,-0.04713726043701172,0.08943769335746765
1761411697782686000,7.03268603515625,-0.08222770690917969,-0.04087626934051514,0.11723318696022034
1761411697799507200,7.049507080078125,-0.11111068725585938,-0.020657777786254883,0.12582442164421082
1761411697816333800,7.066333740234375,-0.12352275848388672,-0.009380459785461426,0.1197003424167633
1761411697833171500,7.08317138671875,-0.1342315673828125,0.005203723907470703,0.12214392423629761
1761411697849992200,7.0999921875,-0.13358306884765625,0.006660878658294678,0.12641751766204834
1761411697866814500,7.116814453125,-0.11056041717529297,0.022997379302978516,0.12142118811607361
1761411697883637800,7.1336376953125,-0.0876150131225586,0.004384100437164307,0.12582868337631226
1761411697900460300,7.150460205078125,-0.09436702728271484,0.0050958991050720215,0.15076613426208496
1761411697917282800,7.16728271484375,-0.046973228454589844,0.04780608415603638,0.1468435525894165
1761411697934078700,7.18407861328125,-0.0125579833984375,0.06008023023605347,0.13085341453552246
1761411697950911000,7.200910888671875,0.03228473663330078,0.03693997859954834,0.09685611724853516
1761411697967736600,7.217736572265625,0.09065628051757812,0.02001088857650757,0.06522977352142334
1761411697984546000,7.234546142578125,0.13451480865478516,0.01858210563659668,0.07246339321136475
1761411698001371600,7.25137158203125,0.1214742660522461,0.023917436599731445,0.07026523351669312
1761411698018194700,7.268194580078125,0.07194137573242188,0.05330115556716919,0.04665982723236084
1761411698035019000,7.28501904296875,-0.024535179138183594,0.06275463104248047,0.07486844062805176
1761411698051840000,7.301840087890625,-0.10791397094726562,0.06582248210906982,0.0905117392539978
1761411698068663800,7.318663818359375,-0.1283121109008789,0.07201600074768066,0.10251778364181519
1761411698085488000,7.335488037109375,-0.12011909484863281,0.06497901678085327,0.09077084064483643
1761411698102308000,7.35230810546875,-0.12813949584960938,0.04277771711349487,0.09400933980941772
1761411698119135200,7.36913525390625,-0.10171794891357422,0.03133118152618408,0.09043288230895996
1761411698135966500,7.385966552734375,-0.09438419342041016,0.025225579738616943,0.0663033127784729
1761411698152780500,7.402780517578125,-0.06286144256591797,0.02593475580215454,0.04891335964202881
1761411698169612500,7.419612548828125,-0.078125,0.00492328405380249,0.036998093128204346
1761411698186435000,7.43643505859375,-0.07261848449707031,-0.013252794742584229,0.014811456203460693
1761411698203258000,7.453258056640625,-0.06601238250732422,-0.026689231395721436,0.012883186340332031
1761411698220078800,7.470078857421875,-0.04443645477294922,-0.03867077827453613,0.018370747566223145
1761411698236903200,7.486903076171875,-0.02404022216796875,-0.03706759214401245,0.0022956132888793945
1761411698253729800,7.503729736328125,-0.037413597106933594,-0.05002760887145996,-0.024162709712982178
1761411698270545700,7.520545654296875,-0.014707565307617188,-0.051321208477020264,-0.054739296436309814
1761411698287372300,7.537372314453125,-0.02163410186767578,-0.06381833553314209,-0.032940804958343506
1761411698304195800,7.55419580078125,-0.03395652770996094,-0.06390225887298584,0.003253638744354248
1761411698321034500,7.571034423828125,-0.07958793640136719,-0.04782384634017944,0.018864572048187256
1761411698337838000,7.587838134765625,-0.12755203247070312,-0.015153348445892334,0.031068623065948486
1761411698354673700,7.604673583984375,-0.10544395446777344,-0.025226354598999023,0.05406922101974487
1761411698371499300,7.621499267578125,-0.050551414489746094,-0.019927799701690674,0.05864518880844116
1761411698388325600,7.63832568359375,-0.03658771514892578,-0.015642881393432617,0.06057959794998169
1761411698405149200,7.655149169921875,-0.07214641571044922,-0.0036626458168029785,0.07393264770507812
1761411698421969700,7.6719697265625,-0.07535266876220703,0.002176940441131592,0.10154616832733154
1761411698438792400,7.68879248046875,-0.02636241912841797,0.009181201457977295,0.1261081099510193
1761411698455615000,7.705614990234375,-0.032286643981933594,0.009395718574523926,0.1645568609237671
1761411698472437800,7.722437744140625,-0.05905437469482422,0.020128965377807617,0.15845441818237305
1761411698489260800,7.7392607421875,-0.09111309051513672,0.03042691946029663,0.13449108600616455
1761411698506083800,7.756083740234375,-0.10740184783935547,0.03939300775527954,0.10522037744522095
1761411698522905900,7.77290576171875,-0.13392066955566406,0.03241729736328125,0.09427130222320557
1761411698539729200,7.789729248046875,-0.1384725570678711,0.05324751138687134,0.06722068786621094
1761411698556551400,7.806551513671875,-0.1841583251953125,0.05993098020553589,0.047059476375579834
1761411698573377800,7.823377685546875,-0.19732284545898438,0.08974647521972656,0.040876150131225586
1761411698590193000,7.84019287109375,-0.17859172821044922,0.09829360246658325,0.038284480571746826
1761411698607020500,7.8570205078125,-0.11530780792236328,0.08545070886611938,0.0034342408180236816
1761411698623848000,7.873847900390625,-0.07126045227050781,0.06978869438171387,-0.029684245586395264
1761411698640666600,7.89066650390625,-0.006008148193359375,0.0659821629524231,-0.02495551109313965
1761411698657472000,7.907471923828125,0.0670003890991211,0.06337708234786987,0.021295011043548584
1761411698674298600,7.924298583984375,0.09681129455566406,0.06133162975311279,0.05420637130737305
1761411698691118000,7.9411181640625,0.060227394104003906,0.04628962278366089,0.0714370608329773
1761411698707934700,7.957934814453125,0.020003318786621094,0.03619450330734253,0.06875121593475342
1761411698724767000,7.97476708984375,-0.015862464904785156,0.029304921627044678,0.06719177961349487
1761411698741590300,7.99159033203125,-0.047168731689453125,0.022867441177368164,0.04236102104187012
1761411698758412800,8.008412841796876,-0.07871723175048828,0.008828461170196533,0.010435760021209717
1761411698775221500,8.025221435546875,-0.11730766296386719,0.011918783187866211,0.0005496740341186523
1761411698792072000,8.042072021484374,-0.1269674301147461,0.013725817203521729,0.013486802577972412
1761411698808895000,8.05889501953125,-0.13939571380615234,-0.01501929759979248,0.039305150508880615
1761411698825722400,8.075722412109375,-0.15953922271728516,-0.022169291973114014,0.041958749294281006
1761411698842541800,8.092541748046875,-0.16755008697509766,-0.023656070232391357,0.04636049270629883
1761411698859363800,8.10936376953125,-0.10591506958007812,-0.004738926887512207,0.049021244049072266
1761411698876187000,8.126186767578124,-0.03667926788330078,-0.0021505355834960938,0.02952563762664795
1761411698892989700,8.14298974609375,-0.028931617736816406,0.001818835735321045,0.00958859920501709
1761411698909837000,8.159837158203125,-0.08748435974121094,0.03938668966293335,-0.008896172046661377
1761411698926655500,8.176655517578125,-0.13873577117919922,0.06775283813476562,0.012596607208251953
1761411698943461400,8.19346142578125,-0.13446521759033203,0.09254556894302368,0.05428284406661987
1761411698960301300,8.21030126953125,-0.08105754852294922,0.11335974931716919,0.08493548631668091
1761411698977124900,8.227124755859375,-0.027921676635742188,0.1355447769165039,0.1126021146774292
1761411698993942800,8.24394287109375,0.03448772430419922,0.13666093349456787,0.10866987705230713
1761411699010774000,8.26077392578125,0.07561111450195312,0.13294124603271484,0.09628164768218994
1761411699027592400,8.277592529296875,0.0770711898803711,0.14238464832305908,0.09243172407150269
1761411699044399000,8.294399169921874,0.05007171630859375,0.1609470248222351,0.09879601001739502
1761411699061238500,8.311238525390625,-0.0020904541015625,0.17513519525527954,0.11002177000045776
1761411699078061000,8.32806103515625,-0.05740547180175781,0.18643730878829956,0.10510039329528809
1761411699094884900,8.344884765625,-0.08360767364501953,0.1708301305770874,0.11015796661376953
1761411699111707000,8.361706787109375,-0.05721473693847656,0.1497597098350525,0.09712928533554077
1761411699128529400,8.378529296875,-0.005405426025390625,0.12447583675384521,0.06811666488647461
1761411699145332500,8.39533251953125,0.04073810577392578,0.07860511541366577,0.06071382761001587
1761411699162149400,8.4121494140625,0.03080463409423828,0.04213160276412964,0.06683063507080078
1761411699178972400,8.428972412109376,-0.012799263000488281,0.05558139085769653,0.06347012519836426
1761411699195794200,8.445794189453125,-0.06485843658447266,0.08059173822402954,0.06662887334823608
1761411699212617700,8.46261767578125,-0.05910015106201172,0.047239482402801514,0.07488274574279785
1761411699229441300,8.479441162109374,-0.0019741058349609375,-0.000633537769317627,0.06815814971923828
1761411699246264000,8.49626416015625,0.04052734375,-0.04338693618774414,0.05989706516265869
1761411699263088600,8.513088623046874,0.07878398895263672,-0.06320351362228394,0.04286319017410278
1761411699279910700,8.52991064453125,0.03546142578125,-0.06811583042144775,0.054885685443878174
1761411699296732700,8.546732666015625,-0.05719947814941406,-0.07879966497421265,0.0702054500579834
1761411699313555000,8.563554931640626,-0.16118335723876953,-0.07273250818252563,0.0911107063293457
1761411699330378200,8.580378173828125,-0.2430706024169922,-0.04994934797286987,0.11639225482940674
1761411699347201000,8.597200927734375,-0.2681283950805664,-0.05880016088485718,0.13754433393478394
1761411699364024600,8.614024658203125,-0.2443065643310547,-0.0694425106048584,0.14522379636764526
1761411699380862700,8.63086279296875,-0.18451213836669922,-0.06452023983001709,0.11983877420425415
1761411699397682000,8.647681884765625,-0.11742591857910156,-0.07374298572540283,0.087799072265625
1761411699414505000,8.6645048828125,-0.09077072143554688,-0.08600246906280518,0.07515567541122437
1761411699431324400,8.681324462890625,-0.08818626403808594,-0.055218636989593506,0.06326377391815186
1761411699448141300,8.698141357421875,-0.0766439437866211,-0.036734044551849365,0.07113081216812134
1761411699464973600,8.7149736328125,-0.0853719711303711,-0.028800368309020996,0.07861244678497314
1761411699481816000,8.731816162109375,-0.10698699951171875,-0.018959879875183105,0.06778490543365479
1761411699498637000,8.748636962890625,-0.12243843078613281,-0.004381954669952393,0.04827398061752319
1761411699515432700,8.7654326171875,-0.05852699279785156,0.01379162073135376,0.03159308433532715
1761411699532278500,8.782278564453126,-0.015033721923828125,0.02022695541381836,0.043910980224609375
1761411699549105000,8.79910498046875,-0.026798248291015625,0.039128243923187256,0.06157791614532471
1761411699565908000,8.815907958984376,-0.07124519348144531,0.055613160133361816,0.06672161817550659
1761411699582747400,8.832747314453124,-0.06369781494140625,0.06995582580566406,0.0442432165145874
1761411699599570200,8.849570068359375,-0.0197296142578125,0.053940415382385254,0.05256468057632446
1761411699616393000,8.86639306640625,0.030539512634277344,0.050463080406188965,0.07420492172241211
1761411699633187000,8.88318701171875,0.0909872055053711,0.044239699840545654,0.10263329744338989
1761411699650025500,8.900025390625,0.11942291259765625,0.042446255683898926,0.10974860191345215
1761411699666847700,8.91684765625,0.13668346405029297,0.017007887363433838,0.10696756839752197
1761411699683670800,8.9336708984375,0.14275360107421875,-0.01854342222213745,0.10020637512207031
1761411699700488200,8.95048828125,0.08796024322509766,-0.04620671272277832,0.1332324743270874
1761411699717316900,8.96731689453125,0.04183006286621094,-0.06840914487838745,0.16128331422805786
1761411699734138600,8.984138671875,-0.0024671554565429688,-0.056851208209991455,0.12703627347946167
1761411699750959900,9.0009599609375,-0.07112884521484375,-0.06991034746170044,0.10800814628601074
1761411699767788300,9.017788330078124,-0.10684871673583984,-0.10891681909561157,0.10051041841506958
1761411699784626000,9.0346259765625,-0.15795421600341797,-0.1009681224822998,0.10114818811416626
1761411699801446000,9.05144580078125,-0.20233821868896484,-0.07825416326522827,0.11665594577789307
1761411699818265600,9.068265625,-0.23009490966796875,-0.037266433238983154,0.1334460973739624
1761411699835090700,9.085090576171876,-0.2182474136352539,-0.02955460548400879,0.13425350189208984
1761411699851914200,9.101914306640625,-0.21051692962646484,-0.03693598508834839,0.11959797143936157
1761411699868730600,9.118730712890626,-0.1388254165649414,-0.0352250337600708,0.10555362701416016
1761411699885564200,9.135564208984375,-0.07297325134277344,-0.027592897415161133,0.0922505259513855
1761411699902365200,9.152365234375,-0.07196617126464844,-0.02649921178817749,0.09411364793777466
1761411699919189000,9.16918896484375,-0.08522701263427734,-0.0038454532623291016,0.08662426471710205
1761411699936028000,9.18602783203125,-0.08598804473876953,0.013539254665374756,0.08446997404098511
1761411699952824800,9.202824951171875,-0.05626678466796875,-0.014683783054351807,0.08430546522140503
1761411699969673500,9.219673583984376,-0.02922344207763672,-0.03418058156967163,0.06892979145050049
1761411699986496300,9.236496337890625,-0.0010023117065429688,-0.047000229358673096,0.03044813871383667
1761411700003318800,9.25331884765625,0.023084640502929688,-0.057063162326812744,-0.002274930477142334
1761411700020142300,9.270142333984374,0.026012420654296875,-0.05966353416442871,-0.011319994926452637
1761411700036956700,9.286956787109375,-0.005356788635253906,-0.0358654260635376,-0.01358485221862793
1761411700053784000,9.3037841796875,-0.07616901397705078,-0.03994143009185791,0.0012589097023010254
1761411700070598000,9.320597900390625,-0.1365489959716797,-0.018582403659820557,-0.013322710990905762
1761411700087433700,9.337433837890625,-0.15729904174804688,-0.017177045345306396,-0.022566258907318115
1761411700104256300,9.35425634765625,-0.118682861328125,-0.0184820294380188,-0.01774442195892334
1761411700121076000,9.371075927734376,-0.07584857940673828,-0.02057170867919922,-0.00456082820892334
1761411700137884000,9.3878837890625,-0.05948448181152344,-0.017331063747406006,0.00902557373046875
1761411700154715400,9.40471533203125,-0.038695335388183594,-0.016651570796966553,0.027405142784118652
1761411700171521000,9.42152099609375,-0.0938272476196289,0.000737309455871582,0.06799745559692383
1761411700188354600,9.4383544921875,-0.15972232818603516,0.03209418058395386,0.07601284980773926
1761411700205186000,9.45518603515625,-0.18325519561767578,0.060145556926727295,0.058115601539611816
1761411700221999600,9.47199951171875,-0.11164569854736328,0.0567927360534668,0.06232881546020508
1761411700238825500,9.488825439453125,-0.009980201721191406,0.031732022762298584,0.07495725154876709
1761411700255648800,9.505648681640626,0.06381893157958984,0.012927889823913574,0.06952738761901855
1761411700272484600,9.522484619140625,0.04477214813232422,0.010042011737823486,0.057012081146240234
1761411700289308000,9.539307861328124,0.06592464447021484,0.004561007022857666,0.052561402320861816
1761411700306135000,9.556135009765624,0.06522750854492188,0.007597088813781738,0.0640905499458313
1761411700322933500,9.57293359375,0.06908130645751953,0.018027186393737793,0.06221592426300049
1761411700339780400,9.5897802734375,0.0030078887939453125,-0.026967346668243408,0.08516877889633179
1761411700356599600,9.606599609375,-0.12782764434814453,-0.006852924823760986,-0.020615994930267334
1761411700373422600,9.623422607421874,-0.2793769836425781,-0.07581287622451782,-0.06411492824554443
1761411700390240500,9.640240478515626,-0.01825428009033203,-0.05519908666610718,-0.05081033706665039
1761411700407067600,9.657067626953125,-0.13069438934326172,-0.00821542739868164,-0.005056500434875488
1761411700423897600,9.673897705078126,-0.23451519012451172,-0.0050008296966552734,0.054810523986816406
1761411700440707800,9.690707763671876,-0.2469329833984375,0.010509908199310303,0.08355110883712769
1761411700457520400,9.707520263671874,-0.1939697265625,-0.057866454124450684,0.1151578426361084
