time,seconds_elapsed,z,y,x
1761306375346705700,0.23470556640625,-0.004286766052246094,0.10232794284820557,0.025230705738067627
1761306375363506400,0.25150634765625,0.03333854675292969,0.08811783790588379,0.07488015294075012
1761306375380344800,0.2683447265625,0.024522781372070312,0.1194983720779419,0.05325162410736084
1761306375397173800,0.285173828125,0.02076244354248047,0.11451065540313721,0.03302696347236633
1761306375413982500,0.301982421875,-0.03522777557373047,0.11116862297058105,0.0015402436256408691
1761306375430779400,0.318779296875,-0.0846700668334961,0.10805392265319824,-0.014104664325714111
1761306375447625200,0.335625244140625,-0.14771270751953125,0.10570287704467773,-0.011114776134490967
1761306375464460500,0.35246044921875,-0.15312480926513672,0.10588932037353516,0.005601420998573303
1761306375481273600,0.369273681640625,-0.15684890747070312,0.10886204242706299,0.031511902809143066
1761306375498103300,0.386103271484375,-0.17683696746826172,0.09315931797027588,0.018847495317459106
1761306375514902500,0.402902587890625,-0.17369461059570312,0.0831899642944336,-0.02114841341972351
1761306375531739100,0.4197392578125,-0.13229084014892578,0.05238974094390869,-0.03754851222038269
1761306375548569600,0.436569580078125,-0.037665367126464844,0.005707740783691406,-0.021949857473373413
1761306375565371100,0.45337109375,0.033707618713378906,-0.033278822898864746,-0.006822317838668823
1761306375582209000,0.470208984375,0.08542633056640625,-0.04531264305114746,0.009074434638023376
1761306375599031600,0.487031494140625,0.06163978576660156,-0.07154643535614014,0.026577651500701904
1761306375615839700,0.50383984375,0.03900146484375,-0.06437945365905762,0.0296429842710495
1761306375632672000,0.520672119140625,-0.037375450134277344,-0.04306662082672119,0.023929715156555176
1761306375649501700,0.537501708984375,-0.13791656494140625,-0.009494900703430176,0.01711788773536682
1761306375666320000,0.55431982421875,-0.20116710662841797,0.02711176872253418,0.00039868056774139404
1761306375683143400,0.571143310546875,-0.19298648834228516,0.03482925891876221,-0.01057310402393341
1761306375699947800,0.58794775390625,-0.12393474578857422,0.023639202117919922,-0.006723940372467041
1761306375716785700,0.60478564453125,-0.06307315826416016,-0.0076711177825927734,0.012701064348220825
1761306375733598200,0.62159814453125,-0.026517868041992188,-0.05674171447753906,0.042223796248435974
1761306375750434600,0.6384345703125,-0.02926349639892578,-0.0753328800201416,0.05882777273654938
1761306375767227400,0.655227294921875,-0.04236602783203125,-0.08598291873931885,0.05796600133180618
1761306375784060200,0.67206005859375,-0.1392202377319336,-0.07259297370910645,0.0271444171667099
1761306375800882400,0.68888232421875,-0.19510459899902344,-0.04374563694000244,-0.0099797323346138
1761306375817704400,0.705704345703125,-0.16474628448486328,-0.03810393810272217,-0.0067210569977760315
1761306375834527200,0.72252734375,-0.09490489959716797,-0.037623047828674316,0.01936332881450653
1761306375851348700,0.7393486328125,-0.04086589813232422,-0.02765798568725586,0.04588723182678223
1761306375868173800,0.756173828125,-0.033966064453125,-0.03193795680999756,0.06069331243634224
1761306375885002500,0.77300244140625,-0.07264328002929688,-0.038401126861572266,0.06792870163917542
1761306375901833000,0.7898330078125,-0.1659564971923828,-0.020899653434753418,0.03169705718755722
1761306375918650400,0.806650390625,-0.24658775329589844,-0.0052345991134643555,-0.01638093590736389
1761306375935473200,0.82347314453125,-0.18081092834472656,0.03387653827667236,-0.025956131517887115
1761306375952269600,0.84026953125,-0.03601360321044922,0.06104445457458496,0.04383222386240959
1761306375969117400,0.857117431640625,0.04018211364746094,0.049785733222961426,0.09829843044281006
1761306375985938400,0.8739384765625,0.008248329162597656,0.039821505546569824,0.07275746017694473
1761306376002760700,0.8907607421875,-0.0412445068359375,0.05086314678192139,0.018167410045862198
1761306376019583200,0.907583251953125,-0.104949951171875,0.049135684967041016,0.0008744299411773682
1761306376036405500,0.924405517578125,-0.08156490325927734,0.054584622383117676,-0.004526875913143158
1761306376053226800,0.941226806640625,-0.06945133209228516,0.07083606719970703,-0.0018242858350276947
1761306376070049300,0.95804931640625,-0.014158248901367188,0.0761251449584961,-0.0013971701264381409
1761306376086871600,0.97487158203125,0.03587627410888672,0.0763711929321289,-0.015120640397071838
1761306376103691300,0.991691162109375,0.03306770324707031,0.0640115737915039,-0.043547123670578
1761306376120517000,1.00851708984375,0.0072841644287109375,0.0670616626739502,-0.09198397397994995
1761306376137322000,1.025322021484375,-0.049452781677246094,0.07094442844390869,-0.15797190368175507
1761306376154155500,1.042155517578125,-0.07696247100830078,0.05592668056488037,-0.158726304769516
1761306376170986200,1.058986328125,-0.025198936462402344,0.051425814628601074,-0.13182944059371948
1761306376187803400,1.075803466796875,0.050228118896484375,0.032799720764160156,-0.11399393528699875
1761306376204598800,1.092598876953125,0.06906795501708984,0.01568901538848877,-0.09506645053625107
1761306376221424400,1.10942431640625,0.026086807250976562,-0.008031725883483887,-0.08074282854795456
1761306376238263000,1.126262939453125,-0.031973838806152344,0.01678764820098877,-0.10330642014741898
1761306376255081500,1.14308154296875,-0.024942398071289062,0.04118525981903076,-0.14511597156524658
1761306376271900000,1.15989990234375,0.014455795288085938,0.04319620132446289,-0.15870359539985657
1761306376288725000,1.17672509765625,0.07019615173339844,0.022278428077697754,-0.15486662089824677
1761306376305541600,1.193541748046875,0.0957937240600586,0.02046191692352295,-0.1616441160440445
1761306376322366000,1.210365966796875,0.014242172241210938,-0.006725311279296875,-0.13999274373054504
1761306376339188200,1.227188232421875,-0.04059314727783203,0.013501763343811035,-0.08017672598361969
1761306376356010200,1.24401025390625,-0.06493949890136719,0.03211164474487305,-0.0450168214738369
1761306376372841500,1.260841552734375,-0.07436370849609375,0.048409104347229004,0.01259775459766388
1761306376389669000,1.277669189453125,-0.07001495361328125,0.04828083515167236,0.060301318764686584
1761306376406479600,1.294479736328125,-0.02077960968017578,0.03402388095855713,0.04720381274819374
1761306376423299600,1.311299560546875,-0.05444622039794922,0.0244368314743042,0.03512038290500641
1761306376440135000,1.328135009765625,-0.1313304901123047,-0.015102148056030273,-0.0030309632420539856
1761306376456955000,1.344954833984375,-0.10784721374511719,-0.024802684783935547,-0.017012447118759155
1761306376473754000,1.361754150390625,-0.08231735229492188,-0.017513155937194824,0.008785998448729515
1761306376490596400,1.378596435546875,-0.07170391082763672,-0.022093534469604492,0.05608753859996796
1761306376507426800,1.3954267578125,-0.07543563842773438,-0.016249895095825195,0.07385548949241638
1761306376524240400,1.412240478515625,-0.09647274017333984,-0.02118682861328125,0.08567957580089569
1761306376541066200,1.429066162109375,-0.1200399398803711,-0.026310205459594727,0.06443104147911072
1761306376557876500,1.44587646484375,-0.16149520874023438,-0.03358960151672363,0.06634986400604248
1761306376574706700,1.462706787109375,-0.16200828552246094,-0.041597604751586914,0.04939815774559975
1761306376591532500,1.479532470703125,-0.08817768096923828,-0.0469437837600708,0.035569366067647934
1761306376608359000,1.49635888671875,0.007376670837402344,-0.0625615119934082,0.05617795139551163
1761306376625176800,1.5131767578125,0.049056053161621094,-0.07329797744750977,0.0639062151312828
1761306376641999400,1.529999267578125,0.03743743896484375,-0.06696689128875732,0.051128022372722626
1761306376658806300,1.54680615234375,-0.011590003967285156,-0.05930328369140625,0.040835458785295486
1761306376675638800,1.563638671875,-0.057761192321777344,-0.05475199222564697,0.022297915071249008
1761306376692469200,1.58046923828125,-0.06782913208007812,-0.0503917932510376,-0.028435569256544113
1761306376709287400,1.597287353515625,-0.017992019653320312,-0.034850478172302246,-0.05985495448112488
1761306376726100200,1.614100341796875,0.05521392822265625,-0.03334605693817139,-0.048394013196229935
1761306376742922800,1.6309228515625,0.07810688018798828,-0.012980341911315918,-0.022376755252480507
1761306376759739600,1.64773974609375,0.09206390380859375,0.021158218383789062,-0.04933873191475868
1761306376776562000,1.66456201171875,0.035941123962402344,0.008233904838562012,-0.049454059451818466
1761306376793383700,1.6813837890625,0.029755592346191406,0.01582169532775879,-0.017378656193614006
1761306376810206000,1.6982060546875,-0.04071521759033203,0.019974708557128906,-0.01813049055635929
1761306376827027700,1.71502783203125,-0.10308837890625,0.057942986488342285,-0.030598506331443787
1761306376843841500,1.731841552734375,-0.07432746887207031,0.08770644664764404,-0.025864720344543457
1761306376860689200,1.748689208984375,-0.029295921325683594,0.07004344463348389,0.019996069371700287
1761306376877504800,1.7655048828125,0.024662017822265625,0.05479729175567627,0.04334072023630142
1761306376894330000,1.782330078125,0.02239227294921875,0.022227764129638672,0.02698923647403717
1761306376911145500,1.7991455078125,0.04349994659423828,0.011635065078735352,0.013131383806467056
1761306376927981000,1.81598095703125,0.06646442413330078,0.009267210960388184,0.028566844761371613
1761306376944796200,1.832796142578125,0.07142162322998047,0.005888581275939941,0.03941339999437332
1761306376961614600,1.849614501953125,0.04048633575439453,0.012069106101989746,0.05578376352787018
1761306376978444500,1.866444580078125,0.0022096633911132812,0.008885622024536133,0.06802819669246674
1761306376995262000,1.883261962890625,-0.03780078887939453,0.00009381771087646484,0.05182822421193123
1761306377012084500,1.90008447265625,-0.06410503387451172,-0.01214301586151123,0.023821812123060226
1761306377028906500,1.916906494140625,-0.08847618103027344,-0.028116822242736816,0.016627319157123566
1761306377045728800,1.933728759765625,-0.1288585662841797,-0.0447847843170166,0.010224015451967716
1761306377062547500,1.95054736328125,-0.11450576782226562,-0.05098998546600342,0.004470210988074541
1761306377079375600,1.967375732421875,-0.07506465911865234,-0.05645585060119629,0.008088710717856884
1761306377096194800,1.98419482421875,-0.06229686737060547,-0.08012187480926514,0.03546401858329773
1761306377113016800,2.001016845703125,-0.10011577606201172,-0.09630143642425537,0.03750711679458618
1761306377129838600,2.017838623046875,-0.145355224609375,-0.08133125305175781,0.0006091119721531868
1761306377146648300,2.0346484375,-0.20285511016845703,-0.08114778995513916,-0.018461430445313454
1761306377163488500,2.051488525390625,-0.22292327880859375,-0.077522873878479,-0.009868454188108444
1761306377180305400,2.068305419921875,-0.23070716857910156,-0.08552896976470947,0.009525490924715996
1761306377197124000,2.0851240234375,-0.20039939880371094,-0.08864688873291016,0.008419211953878403
1761306377213949000,2.101948974609375,-0.06808757781982422,-0.1056751012802124,0.044951070100069046
1761306377230754600,2.118754638671875,0.07026100158691406,-0.09312903881072998,0.036453887820243835
1761306377247566600,2.135566650390625,0.09982490539550781,-0.09997284412384033,0.022255081683397293
1761306377264401200,2.152401123046875,0.07828235626220703,-0.07033014297485352,0.0027959682047367096
1761306377281223400,2.169223388671875,0.03345775604248047,-0.07418620586395264,-0.017804959788918495
1761306377298045700,2.186045654296875,0.035114288330078125,-0.06123685836791992,-0.007712200284004211
1761306377314874000,2.2028740234375,0.007616996765136719,-0.062105655670166016,0.022734608501195908
1761306377331689200,2.219689208984375,-0.039989471435546875,-0.06321442127227783,0.05209733173251152
1761306377348522000,2.23652197265625,-0.09280967712402344,-0.04708695411682129,0.0733734741806984
1761306377365330700,2.25333056640625,-0.1250438690185547,-0.04263007640838623,0.09980042278766632
1761306377382157600,2.270157470703125,-0.13159751892089844,-0.038317203521728516,0.10711488127708435
1761306377398955800,2.286955810546875,-0.09562110900878906,-0.02227640151977539,0.08341144025325775
1761306377415799800,2.3037998046875,-0.09298229217529297,-0.018735527992248535,0.06329342722892761
1761306377432622000,2.3206220703125,-0.10862922668457031,-0.024691104888916016,0.03527742996811867
1761306377449444400,2.3374443359375,-0.06740283966064453,-0.026265382766723633,0.02297062799334526
1761306377466263000,2.354262939453125,-0.046500205993652344,-0.008241534233093262,0.024540800601243973
1761306377483089400,2.37108935546875,-0.058037757873535156,0.016495585441589355,0.04904980957508087
1761306377499923500,2.38792333984375,0.027858734130859375,0.035809874534606934,0.042752962559461594
1761306377516729600,2.4047294921875,0.021793365478515625,0.04789590835571289,0.011504940688610077
1761306377533568000,2.421568115234375,-0.037944793701171875,0.057025909423828125,-0.022250793874263763
1761306377550390000,2.43839013671875,-0.046566009521484375,0.05337703227996826,-0.02586445026099682
1761306377567193300,2.455193359375,-0.045703887939453125,0.04062986373901367,0.0055155400186777115
1761306377584038700,2.47203857421875,0.0056629180908203125,0.024532198905944824,0.02598455175757408
1761306377600839700,2.488839599609375,0.057525634765625,0.013332605361938477,0.021374009549617767
1761306377617678300,2.50567822265625,0.019639015197753906,0.015257000923156738,-0.00975650642067194
1761306377634496500,2.52249658203125,-0.020796775817871094,0.013902068138122559,-0.03783809021115303
1761306377651322600,2.539322509765625,-0.09197425842285156,0.0007283687591552734,-0.05219188332557678
1761306377668143900,2.556143798828125,-0.09208202362060547,-0.01024782657623291,-0.03199560567736626
1761306377684967000,2.572966796875,-0.056313514709472656,0.0004967451095581055,-0.007065121084451675
1761306377701785000,2.58978515625,-0.06233501434326172,-0.002652764320373535,0.0011705830693244934
1761306377718595600,2.606595703125,-0.06332206726074219,0.002580881118774414,0.006831280887126923
1761306377735421200,2.623421142578125,-0.09638595581054688,-0.0018777847290039062,0.01878650113940239
1761306377752237800,2.64023779296875,-0.09444236755371094,0.011162519454956055,0.0073795318603515625
1761306377769066500,2.65706640625,-0.13364028930664062,0.014711618423461914,-0.020223001018166542
1761306377785885400,2.673885498046875,-0.2095966339111328,-0.005000948905944824,-0.022090356796979904
1761306377802707000,2.69070703125,-0.14333629608154297,0.009710192680358887,-0.04367927089333534
1761306377819529500,2.707529541015625,-0.071380615234375,0.011608362197875977,-0.07420013844966888
1761306377836352300,2.724352294921875,0.03941631317138672,-0.00010848045349121094,-0.10049143433570862
1761306377853173500,2.741173583984375,0.06144905090332031,-0.021811246871948242,-0.11431773006916046
1761306377870009000,2.758009033203125,0.057288169860839844,-0.03142964839935303,-0.1469845324754715
1761306377886827000,2.774826904296875,0.037296295166015625,-0.04198145866394043,-0.11913571506738663
1761306377903657500,2.791657470703125,0.0030269622802734375,-0.039453983306884766,-0.0893690437078476
1761306377920481000,2.80848095703125,-0.009057998657226562,-0.022902846336364746,-0.06804361939430237
1761306377937280000,2.825280029296875,-0.060115814208984375,-0.016282081604003906,-0.04102858901023865
1761306377954119700,2.84211962890625,-0.1148681640625,-0.018053531646728516,-0.024410657584667206
1761306377970932700,2.8589326171875,-0.15143394470214844,-0.006038188934326172,-0.02048153057694435
1761306377987773000,2.87577294921875,-0.11451530456542969,0.027829527854919434,-0.02517951838672161
1761306378004585500,2.89258544921875,-0.09056949615478516,0.05139267444610596,-0.03710690513253212
1761306378021408500,2.909408447265625,-0.05251312255859375,0.04151344299316406,-0.03951991721987724
1761306378038229800,2.926229736328125,-0.0754098892211914,0.00429081916809082,-0.05692298710346222
1761306378055052000,2.943052001953125,0.044564247131347656,0.010816335678100586,-0.03312031179666519
1761306378071874000,2.9598740234375,0.15879154205322266,-0.003047943115234375,-0.014032764360308647
1761306378088696000,2.976696044921875,0.2056283950805664,0.009115099906921387,-0.020175248384475708
1761306378105518300,2.993518310546875,0.21206951141357422,0.0059354305267333984,-0.0010997839272022247
1761306378122340400,3.01034033203125,0.11129951477050781,0.032657504081726074,0.0002612285315990448
1761306378139162000,3.027162109375,0.029526710510253906,0.05127513408660889,0.023440226912498474
1761306378155976200,3.04397607421875,-0.07715892791748047,0.048980712890625,0.06673476845026016
1761306378172814000,3.06081396484375,-0.1593008041381836,0.05363118648529053,0.09280876815319061
1761306378189629000,3.07762890625,-0.2049875259399414,0.058920979499816895,0.09820495545864105
1761306378206433000,3.09443310546875,-0.1712055206298828,0.047550201416015625,0.11309541761875153
1761306378223259000,3.1112587890625,-0.09200572967529297,0.041086435317993164,0.11052536219358444
1761306378240081000,3.128080810546875,-0.028837203979492188,0.022872447967529297,0.09155366569757462
1761306378256903400,3.1449033203125,-0.025420188903808594,0.010053515434265137,0.07276470959186554
1761306378273724700,3.161724609375,-0.09886646270751953,0.01057446002960205,0.04732683300971985
1761306378290547200,3.178547119140625,-0.22286033630371094,0.02925431728363037,0.03689904510974884
1761306378307369000,3.195368896484375,-0.26833057403564453,0.035135626792907715,0.021977759897708893
1761306378324192300,3.212192138671875,-0.19961261749267578,0.033419013023376465,0.030453726649284363
1761306378341030100,3.229030029296875,-0.04584312438964844,0.005697131156921387,0.028514370322227478
1761306378357850400,3.245850341796875,0.015074729919433594,-0.02242124080657959,0.019861936569213867
1761306378374670300,3.26267041015625,0.004960060119628906,-0.025948166847229004,-0.009841546416282654
1761306378391494100,3.279494140625,-0.044254302978515625,-0.04022777080535889,-0.02454213798046112
1761306378408298500,3.296298583984375,-0.046072959899902344,-0.048220276832580566,-0.023544728755950928
1761306378425104000,3.313103759765625,-0.04363059997558594,-0.04761385917663574,-0.009926177561283112
1761306378441959400,3.32995947265625,-0.07297325134277344,-0.018643856048583984,-0.008384741842746735
1761306378458777600,3.346777587890625,-0.05318450927734375,-0.009391427040100098,0.003348901867866516
1761306378475587000,3.363587158203125,0.010248184204101562,-0.03689265251159668,0.03406764566898346
1761306378492409600,3.38040966796875,0.041957855224609375,-0.05812203884124756,0.044866010546684265
1761306378509231000,3.397231201171875,0.03415489196777344,-0.05800366401672363,0.010439224541187286
1761306378526058200,3.414058349609375,-0.04609966278076172,-0.07188558578491211,-0.005235947668552399
1761306378542891800,3.430891845703125,-0.06927776336669922,-0.07659292221069336,-0.0274478942155838
1761306378559710000,3.4477099609375,-0.06750774383544922,-0.05584073066711426,-0.014221087098121643
1761306378576540200,3.4645400390625,-0.07903003692626953,-0.03519749641418457,0.015239156782627106
1761306378593358800,3.48135888671875,-0.09744644165039062,-0.01271522045135498,-0.010162606835365295
1761306378610163200,3.4981630859375,-0.12981414794921875,-0.015212655067443848,-0.019846796989440918
1761306378627002600,3.515002685546875,-0.09878253936767578,-0.010142922401428223,-0.01800534874200821
1761306378643824000,3.53182421875,-0.0704355239868164,-0.0007129907608032227,-0.01683712750673294
1761306378660646700,3.548646728515625,-0.02923107147216797,0.0030274391174316406,0.008790001273155212
1761306378677468200,3.56546826171875,0.036902427673339844,0.0023431777954101562,0.014936700463294983
1761306378694273800,3.582273681640625,0.043091773986816406,0.008672475814819336,0.03896545618772507
1761306378711082800,3.599082763671875,0.03726959228515625,0.027045726776123047,0.037912122905254364
1761306378727924500,3.615924560546875,0.02253246307373047,0.03736531734466553,0.05493777245283127
1761306378744739800,3.63273974609375,0.0012674331665039062,0.037544846534729004,0.05357694253325462
1761306378761567500,3.6495673828125,-0.02300739288330078,0.023750662803649902,0.057155489921569824
1761306378778387000,3.666386962890625,-0.02332305908203125,0.010181665420532227,0.06524942815303802
1761306378795209200,3.683209228515625,0.010686874389648438,0.02624952793121338,0.05557782202959061
1761306378812031000,3.700031005859375,-0.019617080688476562,0.006066322326660156,0.08928830921649933
1761306378828870100,3.7168701171875,-0.009016036987304688,0.028305888175964355,0.025156140327453613
1761306378845681000,3.733680908203125,-0.017670631408691406,0.006651043891906738,0.004717200994491577
1761306378862488300,3.75048828125,0.03258228302001953,-0.011669754981994629,0.009170278906822205
1761306378879341000,3.767341064453125,0.037883758544921875,-0.029144883155822754,-0.0005952119827270508
1761306378896139500,3.784139404296875,0.008999824523925781,-0.04205954074859619,-0.00033968687057495117
1761306378912976000,3.800975830078125,-0.07252883911132812,-0.046112775802612305,-0.0017327964305877686
1761306378929801200,3.81780126953125,-0.10381603240966797,-0.029699206352233887,-0.00677432119846344
1761306378946621200,3.83462109375,-0.15733051300048828,-0.019748926162719727,0.005356341600418091
1761306378963430100,3.85143017578125,-0.15163803100585938,-0.01633274555206299,0.006353974342346191
1761306378980260000,3.868260009765625,-0.11792373657226562,-0.044483184814453125,0.0025188028812408447
1761306378997093400,3.88509326171875,-0.06960010528564453,-0.03842973709106445,-0.02551029622554779
1761306379013909800,3.90190966796875,-0.021895408630371094,-0.036112308502197266,-0.037821099162101746
1761306379030731500,3.9187314453125,0.027808189392089844,-0.03246450424194336,-0.021321862936019897
1761306379047553300,3.93555322265625,0.02740478515625,-0.03397321701049805,-0.020269036293029785
1761306379064377000,3.952377197265625,-0.044587135314941406,-0.03653836250305176,0.000033229589462280273
1761306379081198000,3.969197998046875,-0.07880115509033203,-0.016857624053955078,0.02809859812259674
1761306379098020000,3.98602001953125,-0.051815032958984375,-0.015304088592529297,0.05860760807991028
1761306379114821400,4.0028212890625,0.021816253662109375,-0.029046058654785156,0.05378614366054535
1761306379131652600,4.019652587890625,0.03879261016845703,-0.024046659469604492,0.04583367705345154
1761306379148472800,4.036472900390625,-0.036385536193847656,-0.03766155242919922,0.037581831216812134
1761306379165304600,4.0533046875,-0.14110946655273438,-0.024378418922424316,0.0208083838224411
1761306379182113300,4.07011328125,-0.17278289794921875,0.007249593734741211,0.027868464589118958
1761306379198939000,4.08693896484375,-0.11199283599853516,0.023034214973449707,0.019076675176620483
1761306379215760600,4.1037607421875,-0.06337928771972656,0.02173757553100586,0.014888495206832886
1761306379232583000,4.1205830078125,-0.06437206268310547,0.016245245933532715,0.0018314123153686523
1761306379249405000,4.137405029296875,-0.07716560363769531,0.01838672161102295,-0.0024909675121307373
1761306379266227200,4.154227294921875,-0.0926971435546875,0.02350175380706787,-0.008590444922447205
1761306379283048700,4.171048583984375,-0.091461181640625,0.03625953197479248,-0.019337773323059082
1761306379299871200,4.187871337890625,-0.07774639129638672,0.06037545204162598,-0.014101728796958923
1761306379316710100,4.204710205078125,-0.09504413604736328,0.0723257064819336,-0.023441314697265625
1761306379333529000,4.221529052734375,-0.06832027435302734,0.05726921558380127,-0.025717198848724365
1761306379350334500,4.23833447265625,-0.010890960693359375,0.04089963436126709,-0.03680633008480072
1761306379367174100,4.255174072265625,0.024657249450683594,0.0038595199584960938,-0.040637239813804626
1761306379383994600,4.27199462890625,0.046530723571777344,-0.010062694549560547,-0.08062669634819031
1761306379400817200,4.288817138671875,0.0038700103759765625,-0.013367414474487305,-0.12618838250637054
1761306379417639000,4.305638916015625,-0.031703948974609375,-0.006937384605407715,-0.133810892701149
1761306379434461400,4.32246142578125,-0.019936561584472656,0.00024127960205078125,-0.10079167783260345
1761306379451286800,4.339286865234375,0.002933502197265625,0.004660964012145996,-0.07477475702762604
1761306379468102400,4.356102294921875,-0.02924633026123047,-0.007024168968200684,-0.08538854122161865
1761306379484911000,4.3729111328125,-0.06323719024658203,-0.023114562034606934,-0.10091747343540192
1761306379501750000,4.38975,-0.10303020477294922,-0.03654205799102783,-0.09166902303695679
1761306379518575900,4.406575927734375,-0.10552501678466797,-0.03230476379394531,-0.0806492418050766
1761306379535389700,4.4233896484375,-0.11724185943603516,-0.03703188896179199,-0.051695436239242554
1761306379552215800,4.4402158203125,-0.17050743103027344,-0.04574167728424072,0.0014960318803787231
1761306379569038000,4.4570380859375,-0.17910480499267578,-0.024648189544677734,0.0308244526386261
1761306379585843700,4.47384375,-0.17915916442871094,-0.00266420841217041,0.056048959493637085
1761306379602682400,4.490682373046875,-0.1244344711303711,0.003878951072692871,0.06275398284196854
1761306379619504000,4.507504150390625,-0.07160186767578125,-0.01420283317565918,0.03920118510723114
1761306379636326400,4.524326416015625,-0.06312084197998047,-0.02225184440612793,-0.008587628602981567
1761306379653148400,4.5411484375,-0.06102752685546875,-0.022791266441345215,-0.024086803197860718
1761306379669953500,4.55795361328125,-0.030517578125,-0.031297922134399414,-0.021482929587364197
1761306379686778400,4.5747783203125,0.02802276611328125,-0.031534671783447266,-0.0034769773483276367
1761306379703600600,4.5916005859375,0.11754798889160156,-0.018569469451904297,-0.00351850688457489
1761306379720419000,4.608419189453125,0.06499862670898438,-0.03630542755126953,-0.0004283636808395386
1761306379737247000,4.6252470703125,0.015349388122558594,-0.0229644775390625,-0.05185754597187042
1761306379754068500,4.642068359375,-0.05588817596435547,-0.009190678596496582,-0.0755218118429184
1761306379770889000,4.658888916015625,-0.12444686889648438,-0.0018492937088012695,-0.06792783737182617
1761306379787711000,4.6757109375,-0.1571493148803711,-0.0003496408462524414,-0.0029812008142471313
1761306379804521500,4.692521484375,-0.09078502655029297,0.0535353422164917,0.048904746770858765
1761306379821352200,4.709352294921875,-0.029115676879882812,0.0842975378036499,0.027823835611343384
1761306379838191600,4.726191650390625,-0.046418190002441406,0.08600664138793945,-0.009667173027992249
1761306379855013000,4.74301318359375,-0.011358261108398438,0.05333828926086426,-0.017671585083007812
1761306379871835400,4.75983544921875,0.0007181167602539062,0.020693540573120117,-0.005517423152923584
1761306379888640500,4.776640625,0.05538749694824219,0.013865470886230469,0.0021081268787384033
1761306379905479700,4.793479736328125,0.066619873046875,0.006477952003479004,0.02783052623271942
1761306379922297900,4.8102978515625,0.032886505126953125,0.011409282684326172,0.05291256308555603
1761306379939127300,4.827127197265625,-0.025839805603027344,0.002076387405395508,0.04107712209224701
1761306379955945500,4.843945556640625,-0.04547595977783203,0.003768444061279297,0.009422093629837036
1761306379972768000,4.86076806640625,-0.0022144317626953125,-0.009630203247070312,0.0018491297960281372
1761306379989586000,4.8775859375,0.06985187530517578,-0.03604245185852051,0.012219160795211792
1761306380006416100,4.894416015625,0.06975078582763672,-0.04480934143066406,0.032641634345054626
1761306380023233800,4.91123388671875,0.0005731582641601562,-0.03235268592834473,0.03617675602436066
1761306380040056000,4.92805615234375,-0.11261558532714844,-0.019019484519958496,0.0347197949886322
1761306380056878000,4.944878173828125,-0.17751121520996094,-0.01660752296447754,0.03632858395576477
1761306380073700400,4.961700439453125,-0.15627002716064453,-0.009924054145812988,0.04841403663158417
1761306380090522000,4.978522216796875,-0.10037422180175781,0.003990292549133301,0.06112305819988251
1761306380107327700,4.99532763671875,-0.05381011962890625,-0.005231738090515137,0.06456232070922852
1761306380124162300,5.012162353515625,-0.046398162841796875,-0.010897517204284668,0.054713428020477295
1761306380140992800,5.02899267578125,-0.07052898406982422,-0.006294608116149902,0.03570590913295746
1761306380157793500,5.04579345703125,-0.079498291015625,0.013324499130249023,0.010482028126716614
1761306380174618600,5.06261865234375,-0.054907798767089844,0.03257429599761963,0.028276965022087097
1761306380191441000,5.07944091796875,-0.06882858276367188,0.031382083892822266,0.04531247913837433
1761306380208263200,5.09626318359375,-0.05692005157470703,0.03522968292236328,0.013849511742591858
1761306380225084700,5.113084716796875,-0.0069904327392578125,0.041985392570495605,-0.012602180242538452
1761306380241907000,5.129906982421875,0.027309417724609375,0.01166999340057373,0.005645096302032471
1761306380258729200,5.146729248046875,0.048248291015625,0.013702869415283203,-0.016839131712913513
1761306380275551700,5.1635517578125,0.030030250549316406,0.003858804702758789,-0.014857307076454163
1761306380292373000,5.180373046875,0.0035810470581054688,-0.013245940208435059,0.022697120904922485
1761306380309213000,5.197212890625,-0.008395195007324219,-0.02446913719177246,0.043123602867126465
1761306380326027300,5.21402734375,-0.05036354064941406,-0.008806586265563965,0.029069319367408752
1761306380342852600,5.2308525390625,-0.057120323181152344,-0.016152381896972656,0.0033670663833618164
1761306380359670800,5.2476708984375,-0.07781982421875,-0.031972646713256836,-0.018354877829551697
1761306380376500200,5.264500244140625,-0.10972404479980469,-0.028943300247192383,-0.03590129315853119
1761306380393316600,5.281316650390625,-0.13016319274902344,-0.022733211517333984,-0.013062164187431335
1761306380410143500,5.2981435546875,-0.13654136657714844,-0.015166878700256348,0.023402586579322815
1761306380426948900,5.314948974609375,-0.08973217010498047,0.02087986469268799,0.03135444223880768
1761306380443785700,5.33178564453125,-0.0709848403930664,0.009185433387756348,0.05008348822593689
1761306380460605400,5.34860546875,-0.04399299621582031,-0.005140185356140137,-0.007707327604293823
1761306380477432600,5.3654326171875,-0.020552635192871094,-0.04351818561553955,-0.043055951595306396
1761306380494251500,5.38225146484375,0.030083656311035156,-0.05960893630981445,-0.03882889449596405
1761306380511065300,5.3990654296875,0.11181259155273438,-0.07789003849029541,-0.03428088128566742
1761306380527900200,5.415900146484375,0.10995674133300781,-0.08723127841949463,-0.013270720839500427
1761306380544718300,5.43271826171875,0.0055866241455078125,-0.08571851253509521,-0.01341065764427185
1761306380561539800,5.449539794921875,-0.13306522369384766,-0.07820415496826172,-0.007548898458480835
1761306380578333700,5.466333740234375,-0.1983346939086914,-0.06649458408355713,0.0011988282203674316
1761306380595184400,5.483184326171875,-0.142608642578125,-0.06388497352600098,0.033329904079437256
1761306380612006700,5.500006591796875,-0.0769815444946289,-0.07172763347625732,0.06231316924095154
1761306380628824600,5.516824462890625,-0.0666036605834961,-0.06541562080383301,0.06402724981307983
1761306380645637000,5.53363720703125,-0.104339599609375,-0.0471576452255249,0.04223799705505371
1761306380662459000,5.550458984375,-0.15358352661132812,-0.028232216835021973,0.039486199617385864
1761306380679281700,5.56728173828125,-0.1045370101928711,-0.021903157234191895,0.046716347336769104
1761306380696103000,5.58410302734375,-0.014616966247558594,-0.02272200584411621,0.059873417019844055
1761306380712925200,5.60092529296875,0.04454612731933594,-0.018558144569396973,0.07689003646373749
1761306380729747500,5.61774755859375,0.025766372680664062,-0.012108206748962402,0.04427903890609741
1761306380746569500,5.634569580078125,-0.033492088317871094,0.009547591209411621,-0.018287450075149536
1761306380763391200,5.65139111328125,-0.11006546020507812,0.03212916851043701,-0.04934389889240265
1761306380780213500,5.668213623046875,-0.1088113784790039,0.05096018314361572,-0.024573221802711487
1761306380797051000,5.68505078125,-0.0882577896118164,0.05535531044006348,0.0073194801807403564
1761306380813873700,5.701873779296875,-0.022528648376464844,0.055683135986328125,-0.015237033367156982
1761306380830693000,5.718693115234375,-0.017271995544433594,0.04071354866027832,-0.044260501861572266
1761306380847515600,5.735515625,0.014987945556640625,0.0350804328918457,-0.05421024560928345
1761306380864338000,5.752337890625,0.01686573028564453,0.026446223258972168,-0.05643090605735779
1761306380881155800,5.76915576171875,0.040450096130371094,0.03511035442352295,-0.06062030792236328
1761306380897985500,5.785985595703125,-0.0007104873657226562,0.014435768127441406,-0.06980150938034058
1761306380914780700,5.80278076171875,0.0035505294799804688,0.007113218307495117,-0.059623777866363525
1761306380931629600,5.819629638671875,0.023566246032714844,-0.00029647350311279297,-0.037560343742370605
1761306380948422400,5.83642236328125,0.043961524963378906,0.00443112850189209,-0.029178529977798462
1761306380965284600,5.85328466796875,0.026124000549316406,-0.016981124877929688,-0.02066969871520996
1761306380982083000,5.8700830078125,-0.0007524490356445312,-0.018471598625183105,-0.01753711700439453
1761306380998914800,5.886914794921875,-0.06109142303466797,-0.02288365364074707,-0.01250314712524414
1761306381015738400,5.90373828125,-0.12041759490966797,-0.03460252285003662,0.007332831621170044
1761306381032557800,5.920557861328125,-0.13693618774414062,-0.01765298843383789,0.03802990913391113
1761306381049368600,5.93736865234375,-0.1208658218383789,-0.006442427635192871,0.054173290729522705
1761306381066202400,5.954202392578125,-0.13272857666015625,-0.004092216491699219,0.04335072636604309
1761306381083025000,5.97102490234375,-0.0985116958618164,-0.026353001594543457,0.044943153858184814
1761306381099846700,5.9878466796875,-0.0103912353515625,-0.05282771587371826,0.044686853885650635
1761306381116674800,6.0046748046875,0.07886123657226562,-0.06523418426513672,0.04419577121734619
1761306381133468000,6.021468017578125,0.07459449768066406,-0.04764711856842041,0.05176819860935211
1761306381150299400,6.03829931640625,0.008711814880371094,-0.027721166610717773,0.052468836307525635
1761306381167121200,6.05512109375,-0.07940101623535156,-0.01564633846282959,0.054163455963134766
1761306381183943400,6.071943359375,-0.14918804168701172,-0.0073778629302978516,0.05387982726097107
1761306381200765400,6.088765380859375,-0.1562519073486328,-0.004416823387145996,0.06997500360012054
1761306381217587700,6.105587646484375,-0.12640953063964844,0.0002598762512207031,0.06732314825057983
1761306381234406000,6.122406005859375,-0.0894927978515625,-0.027685999870300293,0.08536484837532043
1761306381251234300,6.139234375,-0.08407020568847656,-0.019892334938049316,0.06893780827522278
1761306381268041200,6.156041259765625,-0.09244823455810547,0.013031959533691406,0.022470682859420776
1761306381284893000,6.172892822265625,-0.1003427505493164,0.033266305923461914,-0.017149925231933594
1761306381301712000,6.1897119140625,-0.0806121826171875,0.038524746894836426,-0.034696340560913086
1761306381318533600,6.20653369140625,-0.005398750305175781,0.04822587966918945,-0.03685459494590759
1761306381335355600,6.223355712890625,0.06235790252685547,0.034813523292541504,-0.01645183563232422
1761306381352184300,6.240184326171875,0.05423259735107422,0.02636420726776123,-0.02000066637992859
1761306381368994000,6.256994140625,-0.014912605285644531,0.03392624855041504,-0.036941856145858765
1761306381385809700,6.2738095703125,-0.09490966796875,0.04673480987548828,-0.06507116556167603
1761306381402644000,6.29064404296875,-0.13007640838623047,0.050634145736694336,-0.053082168102264404
1761306381419467000,6.307467041015625,-0.1284332275390625,0.04544568061828613,-0.04859866201877594
1761306381436287700,6.324287841796875,-0.09979534149169922,0.016614913940429688,-0.05816444754600525
1761306381453110500,6.341110595703125,-0.04017829895019531,-0.013141870498657227,-0.06975819170475006
1761306381469932500,6.3579326171875,0.028156280517578125,-0.01410055160522461,-0.06062224507331848
1761306381486754800,6.3747548828125,0.07216453552246094,-0.041364192962646484,-0.06108450889587402
1761306381503576000,6.391576171875,0.062424659729003906,-0.0664604902267456,-0.06787893176078796
1761306381520414700,6.408414794921875,0.009806632995605469,-0.08182215690612793,-0.06667417287826538
1761306381537220400,6.425220458984375,-0.0792703628540039,-0.0744175910949707,-0.06213584542274475
1761306381554039000,6.4420390625,-0.08635234832763672,-0.07768166065216064,-0.03361275792121887
1761306381570868700,6.45886865234375,-0.041202545166015625,-0.07708394527435303,-0.0026585161685943604
1761306381587669500,6.47566943359375,-0.018030166625976562,-0.08711874485015869,0.015623331069946289
1761306381604509200,6.49250927734375,-0.07368278503417969,-0.09011697769165039,0.012718558311462402
1761306381621314600,6.509314453125,-0.15897655487060547,-0.09676682949066162,-0.01410067081451416
1761306381638139100,6.52613916015625,-0.20786380767822266,-0.08455419540405273,-0.012769460678100586
1761306381654961400,6.54296142578125,-0.22052574157714844,-0.06213510036468506,0.027021542191505432
1761306381671767600,6.559767578125,-0.18371200561523438,-0.02477395534515381,0.04064187407493591
1761306381688593700,6.57659375,-0.18600845336914062,0.003980278968811035,0.032902419567108154
1761306381705430800,6.5934306640625,-0.13371944427490234,0.0024355649948120117,0.0005103498697280884
1761306381722250000,6.61025,-0.07224369049072266,-0.013753414154052734,-0.028999611735343933
1761306381739072300,6.627072265625,0.050536155700683594,-0.027433395385742188,-0.04327930510044098
1761306381755894300,6.643894287109375,0.10331249237060547,-0.0013366937637329102,-0.03114970028400421
1761306381772729300,6.660729248046875,0.09923076629638672,0.005200624465942383,-0.017510533332824707
1761306381789560800,6.677560791015625,0.02112579345703125,0.037915825843811035,-0.019023627042770386
1761306381806361000,6.694361083984375,-0.08022785186767578,0.040869951248168945,-0.007916301488876343
1761306381823204000,6.7112041015625,-0.08750534057617188,0.054175734519958496,0.003227725625038147
1761306381840018000,6.728017822265625,-0.04815673828125,0.04989182949066162,0.02065691351890564
1761306381856823800,6.74482373046875,-0.0007696151733398438,0.03364896774291992,0.023232415318489075
1761306381873662500,6.761662353515625,-0.032273292541503906,0.03581535816192627,0.0068912506103515625
1761306381890485000,6.778485107421875,-0.11057186126708984,0.05641055107116699,-0.03541269898414612
1761306381907306000,6.795305908203125,-0.1303119659423828,0.06802678108215332,-0.023452773690223694
1761306381924112100,6.812112060546875,-0.10070323944091797,0.07530176639556885,-0.00977286696434021
1761306381940950500,6.828950439453125,-0.08864116668701172,0.07605636119842529,-0.011996999382972717
1761306381957772800,6.845772705078125,-0.046250343322753906,0.07051253318786621,-0.03822559118270874
1761306381974593800,6.86259375,-0.03605937957763672,0.06052994728088379,-0.05906084179878235
1761306381991417600,6.87941748046875,-0.032257080078125,0.046796560287475586,-0.05941347777843475
1761306382008239000,6.896239013671875,-0.0065250396728515625,0.053554534912109375,-0.08722622692584991
1761306382025052400,6.913052490234375,-0.00183868408203125,0.050925374031066895,-0.092063769698143
1761306382041882600,6.929882568359375,-0.008481979370117188,0.050348877906799316,-0.07669314742088318
1761306382058705400,6.946705322265625,-0.02378082275390625,0.060700178146362305,-0.055411309003829956
1761306382075528200,6.963528076171875,-0.03947257995605469,0.07927572727203369,-0.036435723304748535
1761306382092349400,6.980349365234375,-0.01833820343017578,0.08260023593902588,-0.019175052642822266
1761306382109154600,6.997154541015625,0.010418891906738281,0.07153189182281494,0.0020594745874404907
1761306382125980000,7.01397998046875,0.030182838439941406,0.06092429161071777,0.00808839499950409
1761306382142797600,7.030797607421875,0.03689289093017578,0.05158257484436035,0.011652648448944092
1761306382159632100,7.047632080078125,0.019510269165039062,0.04659426212310791,0.02005074918270111
1761306382176442400,7.0644423828125,-0.027673721313476562,0.04432177543640137,0.024750202894210815
1761306382193268000,7.08126806640625,-0.02400493621826172,0.034278273582458496,0.02437712252140045
1761306382210090200,7.09809033203125,0.01610279083251953,0.008026361465454102,0.025459975004196167
1761306382226912500,7.11491259765625,0.0537567138671875,-0.011002659797668457,0.01624910533428192
1761306382243734300,7.131734375,0.027210235595703125,-0.04256439208984375,0.015038222074508667
1761306382260556500,7.148556640625,-0.020844459533691406,-0.044363975524902344,-0.02046385407447815
1761306382277396200,7.165396240234375,-0.0927438735961914,-0.06043887138366699,-0.033951908349990845
1761306382294214700,7.182214599609375,-0.10291099548339844,-0.05567920207977295,-0.0378568172454834
1761306382311036400,7.199036376953125,-0.05795574188232422,-0.05635952949523926,-0.013149052858352661
1761306382327858700,7.215858642578125,-0.032919883728027344,-0.04493391513824463,-0.01686704158782959
1761306382344680400,7.232680419921875,-0.03778648376464844,-0.038558363914489746,-0.02215828001499176
1761306382361503000,7.2495029296875,-0.04650688171386719,-0.04820132255554199,-0.004267990589141846
1761306382378324700,7.26632470703125,-0.050037384033203125,-0.03331625461578369,0.02110414206981659
1761306382395147000,7.28314697265625,-0.05055046081542969,-0.01540231704711914,0.0341193825006485
1761306382411969000,7.299968994140625,-0.10618019104003906,0.009558320045471191,0.04751124978065491
1761306382428770600,7.3167705078125,-0.17247772216796875,0.021233201026916504,0.061685264110565186
1761306382445612800,7.33361279296875,-0.19717121124267578,0.03806638717651367,0.07415858656167984
1761306382462419700,7.350419677734375,-0.12824535369873047,0.03366351127624512,0.06901729851961136
1761306382479257300,7.36725732421875,-0.02001667022705078,0.026069998741149902,0.04696781933307648
1761306382496075500,7.384075439453125,0.061545372009277344,0.0001366138458251953,0.014615669846534729
1761306382512905200,7.4009052734375,0.08823680877685547,-0.009330272674560547,-0.01605057716369629
1761306382529707000,7.41770703125,0.07318305969238281,0.0016744136810302734,-0.03242212533950806
1761306382546545700,7.434545654296875,0.02801990509033203,-0.0030509233474731445,-0.03130820393562317
1761306382563373800,7.451373779296875,-0.0036745071411132812,-0.011931657791137695,-0.04468119144439697
1761306382580184000,7.46818408203125,-0.0049152374267578125,-0.0022062063217163086,-0.05004887282848358
1761306382596994800,7.484994873046875,-0.040236473083496094,-0.01881587505340576,-0.03366297483444214
1761306382613820200,7.501820068359375,-0.053345680236816406,-0.0302046537399292,-0.03279981017112732
1761306382630643000,7.518642822265625,-0.049857139587402344,-0.03855741024017334,-0.035978272557258606
1761306382647464200,7.535464111328125,-0.055016517639160156,-0.0271376371383667,-0.010488614439964294
1761306382664286700,7.55228662109375,-0.0427703857421875,-0.03520524501800537,0.014346733689308167
1761306382681105700,7.569105712890625,-0.039928436279296875,-0.02803027629852295,0.03035542368888855
1761306382697934000,7.58593408203125,-0.04900836944580078,-0.035343050956726074,0.04878394305706024
1761306382714752500,7.60275244140625,-0.05232048034667969,-0.032164573669433594,0.05459405481815338
1761306382731572000,7.619572021484375,-0.0816049575805664,-0.021906495094299316,0.05430378019809723
1761306382748392400,7.636392333984375,-0.08814525604248047,-0.026227355003356934,0.06631940603256226
1761306382765218600,7.653218505859375,-0.07555675506591797,-0.015057563781738281,0.06176657974720001
1761306382782055200,7.67005517578125,-0.06825065612792969,-0.01787889003753662,0.060696110129356384
1761306382798873000,7.686873046875,-0.045180320739746094,-0.02612471580505371,0.07639296352863312
1761306382815703300,7.703703369140625,-0.022667884826660156,-0.026028037071228027,0.08929434418678284
1761306382832522000,7.72052197265625,-0.03892803192138672,-0.02508556842803955,0.1027071475982666
1761306382849308200,7.73730810546875,-0.06525611877441406,-0.01152336597442627,0.06945909559726715
1761306382866165500,7.75416552734375,-0.10641860961914062,-0.012732863426208496,0.030780956149101257
1761306382882971100,7.77097119140625,-0.11064815521240234,-0.02029430866241455,0.0020724087953567505
1761306382899809000,7.78780908203125,-0.08991241455078125,-0.021526575088500977,0.008760854601860046
1761306382916616000,7.804615966796875,-0.08501529693603516,-0.027509212493896484,0.053075775504112244
1761306382933453600,7.82145361328125,-0.11119270324707031,0.005506277084350586,0.03857572376728058
1761306382950276900,7.83827685546875,-0.10845565795898438,0.015265107154846191,-0.0159979909658432
1761306382967100200,7.85510009765625,-0.0392608642578125,0.011499404907226562,-0.051459550857543945
1761306382983919600,7.871919677734375,0.04660224914550781,-0.01662600040435791,-0.06282059848308563
1761306383000742100,7.8887421875,0.0883951187133789,-0.03438425064086914,-0.05446667969226837
1761306383017564700,7.905564697265625,0.06871891021728516,-0.029288291931152344,-0.05852438509464264
1761306383034382300,7.92238232421875,-0.0016698837280273438,-0.004024028778076172,-0.05738489329814911
1761306383051212300,7.93921240234375,-0.09385204315185547,0.010143876075744629,-0.05270169675350189
1761306383068030700,7.95603076171875,-0.11814403533935547,0.007508397102355957,-0.0452505499124527
1761306383084835800,7.9728359375,-0.08695220947265625,0.008765578269958496,-0.024939894676208496
1761306383101661400,7.989661376953125,-0.04829692840576172,-0.002378225326538086,-0.019576847553253174
1761306383118482700,8.006482666015625,-0.0236968994140625,-0.00986337661743164,-0.026203185319900513
1761306383135305000,8.023304931640626,-0.009607315063476562,-0.018297195434570312,-0.03768251836299896
1761306383152127500,8.04012744140625,-0.010962486267089844,-0.020473599433898926,-0.03408849239349365
1761306383168937700,8.056937744140624,-0.05580615997314453,-0.010098576545715332,-0.032044872641563416
1761306383185771000,8.07377099609375,-0.11516666412353516,-0.00729680061340332,-0.017014220356941223
1761306383202593500,8.090593505859376,-0.1371021270751953,-0.010101556777954102,0.01024654507637024
1761306383219415600,8.10741552734375,-0.14412593841552734,-0.008981108665466309,0.027595728635787964
1761306383236237800,8.12423779296875,-0.11102867126464844,-0.020232439041137695,0.014950186014175415
1761306383253063000,8.14106298828125,-0.032858848571777344,-0.03727710247039795,0.005039528012275696
1761306383269895400,8.1578955078125,0.03661537170410156,-0.053513288497924805,0.009687334299087524
1761306383286715000,8.17471484375,0.06328487396240234,-0.05347561836242676,-0.006266176700592041
1761306383303542300,8.191542236328125,0.00382232666015625,-0.049112915992736816,-0.019665464758872986
1761306383320361500,8.208361572265625,-0.05142688751220703,-0.04333090782165527,-0.00972817838191986
1761306383337184500,8.2251845703125,-0.07750129699707031,-0.04144275188446045,0.0012449771165847778
1761306383353989400,8.2419892578125,-0.10519027709960938,-0.037146925926208496,-0.0033670663833618164
1761306383370824200,8.25882421875,-0.11244583129882812,-0.02583181858062744,-0.020662963390350342
1761306383387654000,8.27565380859375,-0.0924224853515625,-0.03509998321533203,-0.030962005257606506
1761306383404472000,8.29247216796875,-0.04989433288574219,-0.036330342292785645,-0.0282859206199646
1761306383421298700,8.309298583984376,0.0007848739624023438,-0.048461318016052246,-0.001194000244140625
1761306383438116900,8.326116943359375,0.013882637023925781,-0.06148231029510498,0.0357605516910553
1761306383454934800,8.342934814453125,0.01197052001953125,-0.053604841232299805,0.059705786406993866
1761306383471763700,8.359763671875,-0.02098560333251953,-0.04192984104156494,0.06874226033687592
1761306383488570600,8.376570556640624,0.010666847229003906,-0.049539923667907715,0.04861563444137573
1761306383505405000,8.393405029296876,-0.0019807815551757812,-0.03172886371612549,0.015127748250961304
1761306383522221300,8.41022119140625,-0.017889976501464844,-0.028410673141479492,0.029571563005447388
1761306383539054000,8.42705419921875,-0.043725013732910156,-0.015923738479614258,0.03388465940952301
1761306383555863600,8.443863525390626,-0.09194087982177734,-0.026097774505615234,0.04734812676906586
1761306383572680400,8.460680419921875,-0.11559391021728516,-0.00555419921875,0.05969475209712982
1761306383589501200,8.477501220703125,-0.15361690521240234,0.0002206563949584961,0.04975506663322449
1761306383606323500,8.494323486328126,-0.17377376556396484,0.00301206111907959,0.036909639835357666
1761306383623145700,8.511145751953125,-0.17778968811035156,0.01910388469696045,0.010528728365898132
1761306383639968300,8.52796826171875,-0.12895870208740234,0.03292274475097656,-0.02188524603843689
1761306383656789500,8.54478955078125,-0.06854724884033203,0.02896106243133545,-0.03556574881076813
1761306383673612000,8.561612060546874,0.03603172302246094,0.013687491416931152,-0.061233460903167725
1761306383690434000,8.57843408203125,0.0728750228881836,-0.022814273834228516,-0.047024473547935486
1761306383707256300,8.59525634765625,0.11142635345458984,-0.01197516918182373,-0.053579479455947876
1761306383724077800,8.612077880859376,0.10785865783691406,0.017842650413513184,-0.05387742817401886
1761306383740900400,8.628900390625,0.06538677215576172,0.03277015686035156,-0.053777724504470825
1761306383757739800,8.64573974609375,0.0063571929931640625,0.02211284637451172,-0.04926109313964844
1761306383774555100,8.66255517578125,-0.012164115905761719,0.024379968643188477,-0.04364629089832306
1761306383791383300,8.67938330078125,-0.02605152130126953,0.0269089937210083,-0.006118342280387878
1761306383808202800,8.69620263671875,-0.03982067108154297,0.030811071395874023,-0.010679066181182861
1761306383825020400,8.7130205078125,-0.05003929138183594,0.04450404644012451,-0.032716259360313416
1761306383841851000,8.729850830078124,-0.06538200378417969,0.03952443599700928,-0.02687232196331024
1761306383858668300,8.746668212890626,-0.06909656524658203,0.03590500354766846,-0.03880530595779419
1761306383875491000,8.763490966796875,-0.09482002258300781,0.036824703216552734,-0.006266877055168152
1761306383892312800,8.780312744140625,-0.0787801742553711,0.023838162422180176,0.023041382431983948
1761306383909135000,8.797135009765626,-0.06989860534667969,0.03288471698760986,0.028074130415916443
1761306383925940000,8.81393994140625,-0.030664443969726562,0.025446414947509766,0.008486628532409668
1761306383942779000,8.83077880859375,0.013338088989257812,0.0025266408920288086,-0.026084035634994507
1761306383959597600,8.84759765625,0.03640937805175781,-0.015852928161621094,-0.04638481140136719
1761306383976427800,8.864427734375,0.018606185913085938,-0.014820098876953125,-0.04120253026485443
1761306383993245000,8.881244873046874,-0.023817062377929688,-0.025115013122558594,-0.006830126047134399
1761306384010059800,8.898059814453125,-0.03953266143798828,-0.012501001358032227,0.005036711692810059
1761306384026875400,8.91487548828125,-0.06408023834228516,-0.007071137428283691,-0.015527352690696716
1761306384043706000,8.9317060546875,-0.09781837463378906,-0.014143943786621094,-0.016192302107810974
1761306384060522800,8.948522705078124,-0.0868234634399414,-0.020748376846313477,-0.011475786566734314
1761306384077339000,8.9653388671875,-0.05427837371826172,-0.03255021572113037,0.0002775639295578003
1761306384094167800,8.982167724609376,-0.01885223388671875,-0.030936837196350098,0.018848732113838196
1761306384110986500,8.998986572265625,-0.011710166931152344,-0.04600882530212402,0.021998703479766846
1761306384127805000,9.015804931640625,-0.03494071960449219,-0.04511618614196777,0.0023249834775924683
1761306384144631800,9.0326318359375,-0.05200958251953125,-0.038892269134521484,-0.0052474141120910645
1761306384161454600,9.04945458984375,-0.033059120178222656,-0.0331500768661499,0.0037269145250320435
1761306384178262000,9.066261962890625,-0.03531169891357422,-0.03742480278015137,0.018645092844963074
1761306384195096600,9.0830966796875,-0.007731437683105469,-0.02811729907989502,0.020880788564682007
1761306384211918800,9.0999189453125,-0.018570899963378906,-0.037270426750183105,0.030284002423286438
1761306384228740900,9.116740966796876,-0.03506946563720703,-0.03369784355163574,0.04688344895839691
1761306384245581000,9.1335810546875,-0.07330799102783203,-0.01973593235015869,0.06820642203092575
1761306384262398500,9.1503984375,-0.07716560363769531,-0.004611968994140625,0.0854724869132042
1761306384279221200,9.16722119140625,-0.08599185943603516,-0.008316755294799805,0.10050651431083679
1761306384296043300,9.184043212890625,-0.059456825256347656,-0.0023369789123535156,0.07282492518424988
1761306384312865300,9.200865234375,-0.09930801391601562,0.007448077201843262,0.07283994555473328
1761306384329687600,9.2176875,-0.15596294403076172,-0.005705833435058594,0.05159936845302582
1761306384346509600,9.234509521484375,-0.16948509216308594,-0.006944775581359863,0.05202145874500275
1761306384363331600,9.25133154296875,-0.13840961456298828,0.002283811569213867,0.03446868062019348
1761306384380149800,9.268149658203125,-0.07593345642089844,0.007832169532775879,0.0006306171417236328
1761306384396979500,9.2849794921875,-0.014161109924316406,-0.007627010345458984,-0.03889468312263489
1761306384413781200,9.30178125,0.038275718688964844,-0.03038311004638672,-0.046027883887290955
1761306384430592800,9.3185927734375,0.046540260314941406,-0.04569721221923828,-0.03328406810760498
1761306384447430000,9.335429931640626,-0.00032711029052734375,-0.019760608673095703,-0.031508222222328186
1761306384464264000,9.352263916015625,-0.0999755859375,-0.00784754753112793,-0.02766762673854828
1761306384481083100,9.369083251953125,-0.12460041046142578,-0.001711130142211914,-0.0009630024433135986
1761306384497908000,9.385907958984374,-0.1045379638671875,-0.0032024383544921875,0.008469492197036743
1761306384514726700,9.4027265625,-0.05177783966064453,-0.005964398384094238,-0.0026639699935913086
1761306384531556000,9.41955615234375,-0.033547401428222656,-0.0015268325805664062,-0.0192672461271286
1761306384548353800,9.436353759765625,-0.027853965759277344,-0.0006905794143676758,-0.031605929136276245
1761306384565175800,9.45317578125,-0.03628826141357422,0.014277458190917969,-0.007134780287742615
1761306384582005200,9.470005126953126,-0.019883155822753906,0.005311131477355957,0.003286585211753845
1761306384598826800,9.48682666015625,-0.0070018768310546875,0.004080414772033691,-0.006394878029823303
1761306384615649300,9.503649169921875,-0.02636241912841797,0.008905291557312012,-0.008204370737075806
1761306384632454100,9.5204541015625,-0.05540752410888672,0.020096302032470703,-0.01749412715435028
1761306384649288400,9.537288330078125,-0.06889533996582031,0.01872551441192627,-0.015020683407783508
1761306384666112000,9.554112060546874,-0.052107810974121094,0.0170212984085083,-0.0018108487129211426
1761306384682919400,9.57091943359375,0.026578903198242188,-0.002402067184448242,-0.0008283406496047974
1761306384699762400,9.587762451171875,0.04002189636230469,-0.03491711616516113,-0.004757225513458252
1761306384716582100,9.60458203125,0.044325828552246094,-0.03276479244232178,-0.024915993213653564
1761306384733420800,9.6214208984375,-0.15806865692138672,-0.0401381254196167,-0.02742256224155426
1761306384750238700,9.63823876953125,-0.07461929321289062,0.008591055870056152,-0.0011406540870666504
1761306384767063000,9.65506298828125,0.09551239013671875,0.02807462215423584,0.035145312547683716
1761306384783884300,9.67188427734375,0.2071819305419922,0.023692727088928223,0.053408652544021606
1761306384800706000,9.6887060546875,0.25055885314941406,0.01720428466796875,0.024297982454299927
1761306384817523700,9.705523681640624,0.24312782287597656,-0.06192779541015625,0.0277707576751709
1761306384834354200,9.722354248046875,0.08415031433105469,-0.13858580589294434,0.01411062479019165
1761306384851172900,9.7391728515625,0.054991722106933594,-0.18168425559997559,-0.060767173767089844
1761306384867973600,9.7559736328125,-0.0014324188232421875,-0.09715533256530762,-0.19732403755187988
1761306384884808400,9.772808349609376,-0.13638877868652344,-0.04871714115142822,-0.14560794830322266
1761306384901621800,9.789621826171874,-0.1406574249267578,-0.05220139026641846,-0.09584888815879822
1761306384918444500,9.806444580078125,-0.017151832580566406,-0.12624800205230713,0.04207924008369446
1761306384935261700,9.82326171875,0.04578208923339844,-0.03349196910858154,0.08707758784294128
