time,seconds_elapsed,z,y,x
1761484571297834500,0.19283447265625,-0.11435413360595703,-0.026503801345825195,0.008806496858596802
1761484571314676500,0.209676513671875,-0.14918231964111328,0.015941500663757324,-0.006397277116775513
1761484571331498800,0.226498779296875,-0.1600780487060547,0.024562418460845947,0.0004277825355529785
1761484571348302000,0.243302001953125,-0.10610771179199219,0.009276270866394043,0.02996671199798584
1761484571365149000,0.26014892578125,-0.022398948669433594,-0.0139312744140625,0.041369855403900146
1761484571381979600,0.276979736328125,0.04147148132324219,-0.023996949195861816,0.05522271990776062
1761484571398786600,0.29378662109375,0.060736656188964844,-0.018167197704315186,0.09138399362564087
1761484571415625700,0.310625732421875,0.02843475341796875,0.0036779046058654785,0.14162324368953705
1761484571432458000,0.3274580078125,0.008388519287109375,-0.035899341106414795,0.2226598858833313
1761484571449269500,0.34426953125,-0.04580211639404297,-0.04009246826171875,0.2715625762939453
1761484571466114300,0.3611142578125,-0.0967702865600586,-0.03667646646499634,0.28773191571235657
1761484571482954800,0.377954833984375,-0.09067153930664062,-0.008877813816070557,0.31465157866477966
1761484571499743000,0.394742919921875,-0.04790019989013672,-0.008970379829406738,0.34847888350486755
1761484571516579000,0.4115791015625,-0.0011501312255859375,-0.01759129762649536,0.33725133538246155
1761484571533401000,0.428401123046875,0.06698226928710938,0.0019991397857666016,0.3125852346420288
1761484571550225700,0.4452255859375,0.01968860626220703,-0.010964691638946533,0.2863808870315552
1761484571567053300,0.46205322265625,-0.04903125762939453,-0.030956685543060303,0.2740825414657593
1761484571583870200,0.4788701171875,-0.18009567260742188,-0.009883761405944824,0.2741345167160034
1761484571600719000,0.495718994140625,-0.198455810546875,0.018976449966430664,0.24673491716384888
1761484571617532700,0.51253271484375,-0.04236602783203125,0.0499575138092041,0.2290012091398239
1761484571634373000,0.529373046875,0.1190032958984375,0.03416848182678223,0.34841302037239075
1761484571651197200,0.546197265625,0.2239055633544922,-0.0947108268737793,0.4521821439266205
1761484571668040400,0.56304052734375,0.31618309020996094,-0.08758342266082764,0.40892043709754944
1761484571684852500,0.5798525390625,0.21846961975097656,-0.0871347188949585,0.48449602723121643
1761484571701677600,0.596677490234375,0.06955432891845703,-0.13194584846496582,0.5186371803283691
1761484571718478600,0.613478515625,-0.03832530975341797,-0.07661247253417969,0.36606675386428833
1761484571735315000,0.63031494140625,-0.027947425842285156,-0.015645742416381836,0.19600673019886017
1761484571752147000,0.64714697265625,-0.031035423278808594,-0.051364779472351074,0.190283864736557
1761484571768964400,0.66396435546875,-0.0027332305908203125,-0.09402227401733398,0.17042164504528046
1761484571785793800,0.680793701171875,-0.09474468231201172,-0.06992852687835693,0.15368464589118958
1761484571802626800,0.697626708984375,-0.06099414825439453,-0.06766641139984131,0.12619268894195557
1761484571819468000,0.714468017578125,-0.22083759307861328,-0.0936814546585083,0.08811268210411072
1761484571836285400,0.731285400390625,-0.30346012115478516,-0.06367969512939453,0.018324732780456543
1761484571853105400,0.74810546875,-0.24585533142089844,-0.018097519874572754,-0.06237417459487915
1761484571869976800,0.764976806640625,-0.22832107543945312,-0.1082916259765625,-0.07982540130615234
1761484571886769400,0.781769287109375,-0.18417739868164062,-0.15789794921875,-0.10479974746704102
1761484571903594800,0.7985947265625,-0.2799510955810547,-0.14920222759246826,-0.07818299531936646
1761484571920411600,0.81541162109375,-0.3182535171508789,-0.08860194683074951,-0.08695554733276367
1761484571937255700,0.832255615234375,-0.31610679626464844,-0.05492544174194336,-0.039288222789764404
1761484571954058200,0.849058349609375,-0.1666707992553711,-0.10029113292694092,0.14160692691802979
1761484571970899200,0.865899169921875,0.05456066131591797,-0.12011563777923584,0.17855143547058105
1761484571987717600,0.882717529296875,0.17314720153808594,-0.11307156085968018,0.11307242512702942
1761484572004537300,0.899537353515625,0.11228752136230469,-0.14916646480560303,0.09085685014724731
1761484572021368000,0.9163681640625,-0.0177459716796875,-0.14478206634521484,0.07481947541236877
1761484572038190000,0.933190185546875,-0.10485649108886719,-0.08399558067321777,0.04323744773864746
1761484572055018800,0.950018798828125,-0.16491413116455078,-0.030324101448059082,0.0654047429561615
1761484572071846100,0.96684619140625,-0.14829540252685547,0.006709456443786621,0.10548225045204163
1761484572088688400,0.9836884765625,-0.1464681625366211,-0.023849129676818848,0.14982324838638306
1761484572105506800,1.0005068359375,-0.19272899627685547,-0.021051883697509766,0.1523081362247467
1761484572122325800,1.01732568359375,-0.24004364013671875,0.014157652854919434,0.12151357531547546
1761484572139162000,1.034162109375,-0.21323776245117188,0.03778350353240967,0.13571342825889587
1761484572155988700,1.05098876953125,-0.14755630493164062,0.05881154537200928,0.09645941853523254
1761484572172818700,1.067818603515625,-0.11882400512695312,0.06788170337677002,0.05581092834472656
1761484572189645300,1.084645263671875,-0.1154775619506836,0.05825674533843994,0.04958334565162659
1761484572206453200,1.101453369140625,-0.028532028198242188,0.06855714321136475,0.05329102277755737
1761484572223283500,1.118283447265625,0.04175376892089844,0.04520225524902344,0.02790394425392151
1761484572240096300,1.13509619140625,0.04319477081298828,0.026753902435302734,-0.02063465118408203
1761484572256937000,1.15193701171875,0.03441429138183594,0.037285804748535156,-0.033019036054611206
1761484572273761800,1.16876171875,0.11603546142578125,0.03600943088531494,-0.011735647916793823
1761484572290588400,1.18558837890625,0.1539449691772461,0.011791110038757324,0.06187352538108826
1761484572307432200,1.20243212890625,0.07973957061767578,0.017864227294921875,0.09471376240253448
1761484572324247600,1.21924755859375,-0.03431224822998047,0.05750083923339844,0.03827044367790222
1761484572341075000,1.236074951171875,-0.07642841339111328,0.05225062370300293,-0.004253566265106201
1761484572357912600,1.25291259765625,-0.08126258850097656,0.030718445777893066,-0.01111370325088501
1761484572374723300,1.269723388671875,-0.04427814483642578,0.012840986251831055,0.011952191591262817
1761484572391545300,1.28654541015625,-0.031836509704589844,-0.0025728940963745117,0.05359937250614166
1761484572408381200,1.303381103515625,-0.03504657745361328,-0.01664590835571289,0.10698926448822021
1761484572425217000,1.320217041015625,0.009163856506347656,-0.02343010902404785,0.18264389038085938
1761484572442038300,1.337038330078125,0.052585601806640625,-0.04540097713470459,0.2566300332546234
1761484572458868200,1.3538681640625,0.05063438415527344,-0.04475522041320801,0.30075210332870483
1761484572475677200,1.37067724609375,0.046271324157714844,-0.029026269912719727,0.3228408694267273
1761484572492505000,1.387505126953125,0.03259468078613281,-0.00939321517944336,0.31473058462142944
1761484572509330200,1.404330078125,-0.005982398986816406,-0.02947235107421875,0.28298985958099365
1761484572526157800,1.42115771484375,-0.034210205078125,-0.03755176067352295,0.2460089772939682
1761484572542985200,1.437985107421875,-0.03838539123535156,-0.04198253154754639,0.2387995421886444
1761484572559810000,1.45481005859375,-0.04171562194824219,-0.06392598152160645,0.26485109329223633
1761484572576626700,1.471626708984375,-0.05479240417480469,-0.06393957138061523,0.2903369665145874
1761484572593477600,1.4884775390625,-0.08153152465820312,-0.04762876033782959,0.2668067216873169
1761484572610300700,1.50530078125,-0.08011150360107422,-0.04910635948181152,0.2568362057209015
1761484572627110100,1.522110107421875,-0.102630615234375,-0.06201291084289551,0.255597323179245
1761484572643965000,1.53896484375,-0.11676406860351562,-0.05255770683288574,0.26272305846214294
1761484572660755000,1.5557548828125,-0.1327657699584961,-0.045249223709106445,0.27198708057403564
1761484572677613300,1.57261328125,-0.18329524993896484,-0.03653144836425781,0.31216031312942505
1761484572694415000,1.5894150390625,-0.17070770263671875,-0.03395247459411621,0.3263174295425415
1761484572711249000,1.606248779296875,-0.15201950073242188,-0.04138791561126709,0.3563501536846161
1761484572728073700,1.62307373046875,-0.1638631820678711,-0.052504539489746094,0.3568916320800781
1761484572744892000,1.639891845703125,-0.2084493637084961,-0.01762092113494873,0.26827383041381836
1761484572761725700,1.6567255859375,-0.2010183334350586,0.013067960739135742,0.1729295402765274
1761484572778556400,1.673556396484375,-0.1418895721435547,0.008374929428100586,0.11340072751045227
1761484572795397400,1.6903974609375,-0.01999950408935547,-0.009003162384033203,0.08163134753704071
1761484572812219000,1.707218994140625,0.07459831237792969,-0.022192835807800293,0.08495257794857025
1761484572829030700,1.72403076171875,0.15325546264648438,-0.04591023921966553,0.1198398768901825
1761484572845876500,1.74087646484375,0.1631488800048828,-0.04837024211883545,0.13475018739700317
1761484572862698500,1.757698486328125,0.11554241180419922,-0.04055953025817871,0.1252974271774292
1761484572879493600,1.77449365234375,0.011116981506347656,-0.030196666717529297,0.11562962085008621
1761484572896356000,1.791356201171875,-0.04169750213623047,-0.024816036224365234,0.10933652520179749
1761484572913177000,1.808177001953125,-0.048325538635253906,-0.012517094612121582,0.08592282980680466
1761484572929990700,1.82499072265625,-0.06060791015625,-0.001096963882446289,0.050259917974472046
1761484572946830000,1.841830078125,-0.07871437072753906,-0.014546394348144531,0.03854048252105713
1761484572963658500,1.858658447265625,-0.09733009338378906,-0.016054630279541016,0.025706559419631958
1761484572980470500,1.875470458984375,-0.059380531311035156,-0.01552879810333252,0.017231598496437073
1761484572997297400,1.89229736328125,-0.03646087646484375,-0.028948545455932617,0.05115167796611786
1761484573014120700,1.90912060546875,-0.04938983917236328,-0.04638195037841797,0.05268681049346924
1761484573030953500,1.925953369140625,-0.08733463287353516,-0.04372680187225342,0.05102686583995819
1761484573047775200,1.942775146484375,-0.12158393859863281,-0.050394296646118164,0.041119515895843506
1761484573064608500,1.9596083984375,-0.11880302429199219,-0.06223773956298828,0.04823213815689087
1761484573081433300,1.976433349609375,-0.1280050277709961,-0.05060446262359619,0.06038840115070343
1761484573098265600,1.993265625,-0.14925003051757812,-0.03180503845214844,0.07479999959468842
1761484573115096800,2.010096923828125,-0.06976318359375,-0.04051089286804199,0.11354184150695801
1761484573131922000,2.026921875,-0.0015468597412109375,-0.07357525825500488,0.12731653451919556
1761484573148740900,2.043740966796875,-0.025415420532226562,-0.07910120487213135,0.10396930575370789
1761484573165575200,2.0605751953125,-0.07610034942626953,-0.07021176815032959,0.07770425826311111
1761484573182384600,2.077384521484375,-0.09948539733886719,-0.044477105140686035,0.061956778168678284
1761484573199214600,2.094214599609375,-0.07219982147216797,-0.044061899185180664,0.11928775161504745
1761484573216039000,2.111038818359375,-0.04649162292480469,-0.0379561185836792,0.14439155161380768
1761484573232859600,2.127859619140625,-0.058968544006347656,-0.03028559684753418,0.1311325877904892
1761484573249689600,2.144689697265625,-0.033954620361328125,-0.025124192237854004,0.12877027690410614
1761484573266521900,2.16152197265625,0.00998687744140625,-0.04413866996765137,0.11861623078584671
1761484573283363000,2.178363037109375,-0.01158905029296875,-0.04042994976043701,0.09511396288871765
1761484573300184800,2.195184814453125,-0.038826942443847656,-0.024228572845458984,0.09749570488929749
1761484573317012000,2.212011962890625,-0.027177810668945312,-0.015621423721313477,0.1195877343416214
1761484573333836800,2.2288369140625,-0.017200469970703125,-0.025035738945007324,0.11820688098669052
1761484573350676700,2.2456767578125,-0.049129486083984375,-0.020412802696228027,0.10316324234008789
1761484573367490600,2.262490478515625,-0.12124061584472656,-0.025334477424621582,0.12000226974487305
1761484573384297700,2.279297607421875,-0.1113739013671875,0.0010079145431518555,0.13167378306388855
1761484573401144000,2.29614404296875,-0.05174541473388672,0.018742680549621582,0.14348596334457397
1761484573417958100,2.312958251953125,0.03007030487060547,0.008282780647277832,0.11842752993106842
1761484573434816000,2.32981591796875,0.03717517852783203,-0.003982186317443848,0.07997404038906097
1761484573451621400,2.346621337890625,0.044033050537109375,-0.005273222923278809,0.06901222467422485
1761484573468432000,2.363431884765625,0.09441280364990234,0.009393930435180664,0.08871965855360031
1761484573485262600,2.3802626953125,0.10121440887451172,-0.004049420356750488,0.14511889219284058
1761484573502090000,2.397090087890625,0.05394172668457031,-0.017068982124328613,0.17828330397605896
1761484573518922500,2.413922607421875,-0.035477638244628906,-0.01779758930206299,0.17723113298416138
1761484573535744500,2.43074462890625,-0.044231414794921875,-0.01896846294403076,0.18072904646396637
1761484573552573400,2.447573486328125,-0.062247276306152344,-0.02641606330871582,0.19105949997901917
1761484573569410000,2.46441015625,-0.10624313354492188,-0.03410959243774414,0.1833786517381668
1761484573586218000,2.481218017578125,-0.14609718322753906,-0.019490957260131836,0.14995630085468292
1761484573603059700,2.498059814453125,-0.14101791381835938,-0.0048847198486328125,0.12386800348758698
1761484573619890200,2.51489013671875,-0.08847808837890625,-0.02398979663848877,0.1374407857656479
1761484573636710700,2.531710693359375,-0.042618751525878906,-0.034703850746154785,0.15741223096847534
1761484573653524500,2.5485244140625,-0.054009437561035156,-0.02039515972137451,0.1455346941947937
1761484573670357500,2.565357421875,-0.0736227035522461,-0.018854260444641113,0.13220320641994476
1761484573687174400,2.58217431640625,-0.06790351867675781,-0.024059534072875977,0.15610286593437195
1761484573704006000,2.599005859375,-0.06700325012207031,-0.01843881607055664,0.15740346908569336
1761484573720832500,2.61583251953125,-0.075592041015625,-0.01006615161895752,0.13916657865047455
1761484573737663500,2.63266357421875,-0.091766357421875,-0.0054547786712646484,0.13792800903320312
1761484573754484200,2.649484130859375,-0.09832763671875,-0.006498813629150391,0.12368366122245789
1761484573771327500,2.666327392578125,-0.055759429931640625,-0.015296459197998047,0.1130954921245575
1761484573788149000,2.68314892578125,-0.03856945037841797,-0.019883155822753906,0.11048194766044617
1761484573804985900,2.69998583984375,-0.0045413970947265625,-0.024486660957336426,0.09812282025814056
1761484573821804300,2.71680419921875,0.017303466796875,-0.02374899387359619,0.09003113210201263
1761484573838626300,2.733626220703125,0.0030469894409179688,-0.02458024024963379,0.10700203478336334
1761484573855447000,2.750447021484375,-0.0009679794311523438,-0.020892620086669922,0.0895690768957138
1761484573872277500,2.767277587890625,-0.012764930725097656,-0.03167319297790527,0.09919729828834534
1761484573889111800,2.78411181640625,-0.013033866882324219,-0.049407005310058594,0.11950794607400894
1761484573905943300,2.800943359375,-0.03892707824707031,-0.04136335849761963,0.12061068415641785
1761484573922758700,2.817758544921875,-0.08558177947998047,-0.018931984901428223,0.1230521872639656
1761484573939596300,2.83459619140625,-0.12195873260498047,-0.02150404453277588,0.12493129074573517
1761484573956388000,2.85138818359375,-0.1344003677368164,-0.04068899154663086,0.13502582907676697
1761484573973226500,2.8682265625,-0.12909698486328125,-0.05311477184295654,0.14274489879608154
1761484573990055400,2.885055419921875,-0.1436176300048828,-0.0562281608581543,0.12447747588157654
1761484574006888700,2.901888671875,-0.1538095474243164,-0.06618344783782959,0.11631184816360474
1761484574023708400,2.91870849609375,-0.13032913208007812,-0.07392740249633789,0.15911579132080078
1761484574040523300,2.935523193359375,-0.09045219421386719,-0.06208395957946777,0.19039055705070496
1761484574057377500,2.95237744140625,-0.06834602355957031,-0.032274842262268066,0.15657959878444672
1761484574074200000,2.969199951171875,-0.08050251007080078,-0.0322192907333374,0.09489476680755615
1761484574091039000,2.9860390625,-0.07314014434814453,-0.034951090812683105,0.06110997498035431
1761484574107851000,3.00285107421875,-0.02521038055419922,-0.03694140911102295,0.0681721568107605
1761484574124681000,3.019680908203125,0.05729484558105469,-0.028897523880004883,0.10061134397983551
1761484574141504000,3.03650390625,0.07824516296386719,-0.022383451461791992,0.12769968807697296
1761484574158314200,3.053314208984375,0.055274009704589844,-0.017693281173706055,0.15229234099388123
1761484574175145200,3.070145263671875,0.007959365844726562,0.004386305809020996,0.15834298729896545
1761484574191968500,3.086968505859375,-0.0649251937866211,0.016577839851379395,0.18420559167861938
1761484574208800000,3.103800048828125,-0.11204338073730469,0.02711319923400879,0.16904734075069427
1761484574225633300,3.12063330078125,-0.1312236785888672,0.048900485038757324,0.13838577270507812
1761484574242451500,3.137451416015625,-0.13086318969726562,0.05134117603302002,0.11897115409374237
1761484574259295000,3.154294921875,-0.08461761474609375,0.04760241508483887,0.11317946016788483
1761484574276114000,3.171114013671875,-0.0022211074829101562,0.046463847160339355,0.12649071216583252
1761484574292932400,3.187932373046875,0.027373313903808594,0.04474139213562012,0.13058573007583618
1761484574309765400,3.204765380859375,-0.00020313262939453125,0.04685044288635254,0.11037269234657288
1761484574326589400,3.22158935546875,-0.07176589965820312,0.05692780017852783,0.09189310669898987
1761484574343421400,3.23842138671875,-0.08710098266601562,0.04794025421142578,0.08134333044290543
1761484574360247800,3.255247802734375,-0.08549880981445312,0.029490351676940918,0.0633016973733902
1761484574377065200,3.272065185546875,-0.0644073486328125,0.03017103672027588,0.04863196611404419
1761484574393898200,3.288898193359375,-0.05536937713623047,0.028211236000061035,0.058755114674568176
1761484574410736600,3.305736572265625,-0.041115760803222656,0.022868633270263672,0.058036938309669495
1761484574427528700,3.32252880859375,-0.06830978393554688,0.02088320255279541,0.04864753782749176
1761484574444352500,3.3393525390625,-0.11095046997070312,0.005700588226318359,0.05424948036670685
1761484574461197000,3.356197021484375,-0.08846378326416016,-0.010704398155212402,0.05869343876838684
1761484574478007300,3.37300732421875,-0.006628990173339844,-0.025780081748962402,0.05292956531047821
1761484574494846500,3.389846435546875,0.05509185791015625,-0.02964794635772705,0.049634844064712524
1761484574511675400,3.40667529296875,0.0844430923461914,-0.04041469097137451,0.030646950006484985
1761484574528496400,3.423496337890625,0.0638265609741211,-0.04480934143066406,0.027992740273475647
1761484574545325600,3.44032568359375,-0.004436492919921875,-0.0521085262298584,0.06322085857391357
1761484574562176300,3.45717626953125,-0.06836795806884766,-0.053183674812316895,0.1236998438835144
1761484574578989800,3.47398974609375,-0.07797813415527344,-0.05925571918487549,0.15278778970241547
1761484574595818800,3.49081884765625,-0.07937145233154297,-0.04619169235229492,0.15857763588428497
1761484574612646400,3.507646484375,-0.08155345916748047,-0.032483458518981934,0.16509608924388885
1761484574629466600,3.524466552734375,-0.11619186401367188,-0.034818291664123535,0.14649975299835205
1761484574646283800,3.54128369140625,-0.12730693817138672,-0.04845571517944336,0.14782030880451202
1761484574663111000,3.55811083984375,-0.14810657501220703,-0.0661616325378418,0.20444747805595398
1761484574679942700,3.574942626953125,-0.14789867401123047,-0.04596686363220215,0.2252940833568573
1761484574696763600,3.591763671875,-0.13133907318115234,-0.006851077079772949,0.1958482414484024
1761484574713587500,3.60858740234375,-0.0707998275756836,-0.018242716789245605,0.15583445131778717
1761484574730411000,3.625410888671875,-0.016974449157714844,-0.05248415470123291,0.13207921385765076
1761484574747246300,3.642246337890625,0.028675079345703125,-0.05482971668243408,0.10513536632061005
1761484574764078800,3.659078857421875,0.05211639404296875,-0.04496157169342041,0.1123780757188797
1761484574780899800,3.67589990234375,0.048549652099609375,-0.05157947540283203,0.14431346952915192
1761484574797727500,3.6927275390625,0.04139232635498047,-0.045862555503845215,0.181962251663208
1761484574814558500,3.709558349609375,-0.01678752899169922,-0.01939070224761963,0.19791746139526367
1761484574831387100,3.72638720703125,-0.09819984436035156,-0.025249481201171875,0.21789218485355377
1761484574848212200,3.743212158203125,-0.1461944580078125,-0.023728609085083008,0.21044549345970154
1761484574865038600,3.76003857421875,-0.16231822967529297,-0.00013959407806396484,0.17212364077568054
1761484574881874000,3.7768740234375,-0.13646697998046875,0.023321032524108887,0.13911020755767822
1761484574898689800,3.793689697265625,-0.1082315444946289,0.02680683135986328,0.11817764490842819
1761484574915523600,3.810523681640625,-0.11675643920898438,0.012396097183227539,0.1297668069601059
1761484574932345300,3.827345458984375,-0.07552623748779297,0.009185075759887695,0.1389579027891159
1761484574949162200,3.844162353515625,-0.040798187255859375,0.006203413009643555,0.14627674221992493
1761484574965985800,3.86098583984375,-0.018311500549316406,0.0002391338348388672,0.14627262949943542
1761484574982813000,3.87781298828125,-0.043381690979003906,0.0024737119674682617,0.14146210253238678
1761484574999637200,3.89463720703125,-0.08812427520751953,0.027463674545288086,0.13422921299934387
1761484575016465000,3.91146484375,-0.1316547393798828,0.023187637329101562,0.11092513799667358
1761484575033291500,3.92829150390625,-0.12209892272949219,0.008954644203186035,0.11485040932893753
1761484575050133200,3.94513330078125,-0.06996917724609375,0.006772398948669434,0.1199556291103363
1761484575066961000,3.9619609375,-0.0515594482421875,0.018770217895507812,0.10846760869026184
1761484575083790300,3.978790283203125,-0.05576324462890625,0.006270051002502441,0.08503946661949158
1761484575100608800,3.99560888671875,-0.04405021667480469,-0.021724700927734375,0.055137500166893005
1761484575117437400,4.0124375,-0.020646095275878906,-0.024268507957458496,0.026245221495628357
1761484575134237200,4.0292373046875,0.04441547393798828,-0.02372896671295166,0.009168922901153564
1761484575151062300,4.046062255859375,0.06624412536621094,-0.028129100799560547,0.020779341459274292
1761484575167898400,4.0628984375,0.04124259948730469,-0.03308379650115967,0.01899932324886322
1761484575184714500,4.079714599609375,-0.0028400421142578125,-0.04382765293121338,0.052900880575180054
1761484575201555000,4.096554931640625,-0.019561767578125,-0.044362545013427734,0.06532266736030579
1761484575218383400,4.11338330078125,-0.03608226776123047,-0.028544187545776367,0.0517735481262207
1761484575235225000,4.13022509765625,-0.0628814697265625,-0.03309500217437744,0.0412713885307312
1761484575252041000,4.147041015625,-0.08898258209228516,-0.03663003444671631,0.050908252596855164
1761484575268882200,4.163882080078125,-0.10830497741699219,-0.03336286544799805,0.055026113986968994
1761484575285701400,4.180701416015625,-0.16135311126708984,-0.01703011989593506,0.06657622754573822
1761484575302525700,4.197525634765625,-0.20464324951171875,-0.009837746620178223,0.12813736498355865
1761484575319337700,4.214337646484375,-0.16132068634033203,-0.004621028900146484,0.16656896471977234
1761484575336173300,4.23117333984375,-0.1049652099609375,0.023553848266601562,0.16190388798713684
1761484575353012000,4.248011962890625,-0.04432392120361328,0.05717325210571289,0.11400647461414337
1761484575369831200,4.2648310546875,-0.008946418762207031,0.04471397399902344,0.10347782075405121
1761484575386662000,4.281661865234375,0.01914215087890625,0.025896787643432617,0.0951642096042633
1761484575403491300,4.2984912109375,0.04658985137939453,0.037352919578552246,0.06865197420120239
1761484575420314600,4.315314697265625,0.04685497283935547,0.045838356018066406,0.05542202293872833
1761484575437134800,4.332134765625,0.04149436950683594,0.032852768898010254,0.06511388719081879
1761484575453951000,4.348950927734375,0.03416919708251953,0.027475476264953613,0.08647209405899048
1761484575470778000,4.365778076171875,-0.024011611938476562,0.0329211950302124,0.11435147374868393
1761484575487605800,4.382605712890625,-0.11056232452392578,0.041480302810668945,0.13995853066444397
1761484575504430600,4.3994306640625,-0.16642189025878906,0.055031538009643555,0.10305306315422058
1761484575521257200,4.41625732421875,-0.15148639678955078,0.06936991214752197,0.08389699459075928
1761484575538083600,4.43308349609375,-0.11338329315185547,0.06059765815734863,0.09356173872947693
1761484575554908000,4.449907958984375,-0.055245399475097656,0.04411327838897705,0.10807213187217712
1761484575571749400,4.466749267578125,-0.001617431640625,0.02977454662322998,0.09902143478393555
1761484575588576300,4.483576171875,0.03294086456298828,0.0033431053161621094,0.0939677357673645
1761484575605407200,4.5004072265625,0.02066802978515625,-0.003418564796447754,0.06258472800254822
1761484575622209800,4.517209716796875,0.0028133392333984375,-0.002621173858642578,0.042428359389305115
1761484575639043600,4.534043701171875,-0.006435394287109375,-0.00844883918762207,0.03381459414958954
1761484575655869400,4.550869384765625,-0.02938079833984375,-0.017947673797607422,0.054764553904533386
1761484575672694300,4.5676943359375,-0.06442070007324219,-0.033666014671325684,0.07018357515335083
1761484575689519000,4.58451904296875,-0.09050941467285156,-0.0374455451965332,0.09501457214355469
1761484575706350000,4.60135009765625,-0.10221099853515625,-0.04418623447418213,0.12371479719877243
1761484575723191000,4.61819091796875,-0.1202545166015625,-0.04749464988708496,0.11743266880512238
1761484575740011500,4.635011474609375,-0.14142608642578125,-0.05291545391082764,0.10900379717350006
1761484575756836900,4.6518369140625,-0.15613460540771484,-0.05642831325531006,0.11547297239303589
1761484575773673700,4.668673828125,-0.1435232162475586,-0.06645786762237549,0.11770924925804138
1761484575790491000,4.685490966796875,-0.09449100494384766,-0.08026289939880371,0.12497397512197495
1761484575807315000,4.70231494140625,-0.0694122314453125,-0.07945859432220459,0.1361895352602005
1761484575824121600,4.71912158203125,-0.10350227355957031,-0.06936967372894287,0.13546504080295563
1761484575840958700,4.735958740234375,-0.09428977966308594,-0.0791085958480835,0.14464542269706726
1761484575857786400,4.752786376953125,-0.012209892272949219,-0.07426130771636963,0.14408613741397858
1761484575874612000,4.769612060546875,0.06633853912353516,-0.06857442855834961,0.14349880814552307
1761484575891438000,4.78643798828125,0.08841419219970703,-0.06996035575866699,0.12750178575515747
1761484575908262700,4.8032626953125,0.06460094451904297,-0.06555092334747314,0.11012193560600281
1761484575925107500,4.820107421875,0.004776954650878906,-0.08503556251525879,0.1304616928100586
1761484575941926400,4.836926513671875,-0.101806640625,-0.05975651741027832,0.14474646747112274
1761484575958742000,4.853741943359375,-0.15052032470703125,-0.0003739595413208008,0.14527004957199097
1761484575975574300,4.87057421875,-0.13399887084960938,0.02016139030456543,0.1347789764404297
1761484575992397000,4.88739697265625,-0.07818317413330078,-0.006556868553161621,0.1309342235326767
1761484576009232000,4.90423193359375,-0.052371978759765625,-0.0008405447006225586,0.10995861887931824
1761484576026061300,4.921061279296875,-0.02129840850830078,0.013153314590454102,0.08182546496391296
1761484576042892000,4.93789208984375,0.0005388259887695312,0.020429372787475586,0.12040118128061295
1761484576059713300,4.95471337890625,0.03589630126953125,0.021942973136901855,0.18007227778434753
1761484576076557000,4.97155712890625,-0.007645606994628906,0.0026341676712036133,0.19606496393680573
1761484576093352200,4.988352294921875,-0.113983154296875,0.0157773494720459,0.14593413472175598
1761484576110175500,5.005175537109375,-0.15242576599121094,0.014235496520996094,0.1322350800037384
1761484576127009800,5.022009765625,-0.1151285171508789,-0.001364588737487793,0.11582764983177185
1761484576143830300,5.038830322265625,-0.043547630310058594,0.002060532569885254,0.10276433080434799
1761484576160655600,5.055655517578125,0.023026466369628906,0.010933399200439453,0.1142212450504303
1761484576177491200,5.0724912109375,0.07079315185546875,-0.010509967803955078,0.10732664167881012
1761484576194309600,5.0893095703125,0.04371452331542969,-0.03237903118133545,0.11130597442388535
1761484576211157200,5.1061572265625,0.014000892639160156,-0.037289977073669434,0.11235444247722626
1761484576227963600,5.122963623046875,-0.040062904357910156,-0.03757524490356445,0.10618053376674652
1761484576244805400,5.139805419921875,-0.08411121368408203,-0.03811478614807129,0.09292691946029663
1761484576261628400,5.15662841796875,-0.058793067932128906,-0.05172383785247803,0.08287393301725388
1761484576278462200,5.173462158203125,-0.036025047302246094,-0.06821942329406738,0.07671673595905304
1761484576295262200,5.19026220703125,-0.06331348419189453,-0.07020235061645508,0.07209852337837219
1761484576312113200,5.207113037109375,-0.10523605346679688,-0.08866465091705322,0.07964052259922028
1761484576328956400,5.223956298828125,-0.08835887908935547,-0.07716381549835205,0.09406325221061707
1761484576345769200,5.240769287109375,-0.057259559631347656,-0.07461309432983398,0.12528327107429504
1761484576362574000,5.257573974609375,-0.07385826110839844,-0.06045687198638916,0.12776295840740204
1761484576379412200,5.274412109375,-0.08236885070800781,-0.06594479084014893,0.12358488142490387
1761484576396245500,5.29124560546875,-0.08332443237304688,-0.07570123672485352,0.11718301475048065
1761484576413067800,5.30806787109375,-0.04589366912841797,-0.07328951358795166,0.1267850697040558
1761484576429883600,5.324883544921875,-0.04012107849121094,-0.08065140247344971,0.13229423761367798
1761484576446705700,5.34170556640625,-0.05917835235595703,-0.06932282447814941,0.12682229280471802
1761484576463519000,5.35851904296875,-0.08367347717285156,-0.05263662338256836,0.1206238642334938
1761484576480361500,5.375361572265625,-0.08921051025390625,-0.0413823127746582,0.1272837370634079
1761484576497186600,5.3921865234375,-0.10523223876953125,-0.04904961585998535,0.11068058758974075
1761484576514013700,5.409013671875,-0.12342643737792969,-0.057132601737976074,0.08577723801136017
1761484576530856400,5.4258564453125,-0.12365531921386719,-0.07068514823913574,0.11264856159687042
1761484576547683300,5.442683349609375,-0.10964107513427734,-0.04372847080230713,0.13945525884628296
1761484576564506600,5.459506591796875,-0.11292362213134766,-0.006338715553283691,0.12460734695196152
1761484576581332000,5.47633203125,-0.09797477722167969,0.0008767843246459961,0.07436899840831757
1761484576598125300,5.493125244140625,-0.04969310760498047,-0.009162187576293945,0.020807653665542603
1761484576614972000,5.509971923828125,0.028924942016601562,-0.02037644386291504,0.017983347177505493
1761484576631799300,5.52679931640625,0.10945987701416016,-0.025571465492248535,0.03769610822200775
1761484576648628500,5.54362841796875,0.0874929428100586,-0.023195743560791016,0.03199751675128937
1761484576665440000,5.56043994140625,-0.0192718505859375,-0.007748603820800781,0.018680959939956665
1761484576682278100,5.577278076171875,-0.10037422180175781,0.0051299333572387695,0.033176809549331665
1761484576699105300,5.594105224609375,-0.10663127899169922,0.006729006767272949,0.07308267056941986
1761484576715951900,5.610951904296875,-0.11986160278320312,0.006766080856323242,0.10310769081115723
1761484576732772900,5.62777294921875,-0.17133808135986328,0.0067168474197387695,0.08157263696193695
1761484576749601300,5.644601318359375,-0.19015884399414062,0.0191650390625,0.03705154359340668
1761484576766423600,5.661423583984375,-0.1394214630126953,0.00853109359741211,0.04332500696182251
1761484576783248400,5.678248291015625,-0.047583580017089844,-0.013944029808044434,0.07229040563106537
1761484576800060700,5.695060791015625,0.04284858703613281,-0.029555320739746094,0.07227364182472229
1761484576816909000,5.711908935546875,0.07380962371826172,-0.04162943363189697,0.03560006618499756
1761484576833736700,5.72873681640625,0.05774879455566406,-0.04623401165008545,0.00015179812908172607
1761484576850549200,5.74554931640625,0.01636219024658203,-0.0460658073425293,-0.014613986015319824
1761484576867382800,5.7623828125,-0.01781463623046875,-0.0394594669342041,-0.013916626572608948
1761484576884207600,5.77920751953125,-0.011149406433105469,-0.0356135368347168,-0.000017449259757995605
1761484576901033700,5.79603369140625,0.028865814208984375,-0.039939045906066895,0.019328981637954712
1761484576917844700,5.8128447265625,0.030916213989257812,-0.03794693946838379,0.033964693546295166
1761484576934675500,5.829675537109375,-0.007847785949707031,-0.019090771675109863,0.030937671661376953
1761484576951499000,5.8464990234375,-0.06369304656982422,0.0008528232574462891,0.03618355095386505
1761484576968325400,5.863325439453125,-0.1363983154296875,0.012984991073608398,0.07596567273139954
1761484576985152800,5.88015283203125,-0.1705322265625,0.03674888610839844,0.12027725577354431
1761484577001981400,5.8969814453125,-0.15824508666992188,0.05121898651123047,0.13754473626613617
1761484577018820600,5.913820556640625,-0.08520984649658203,0.055425047874450684,0.1413377970457077
1761484577035647200,5.930647216796875,-0.04089069366455078,0.04518425464630127,0.1575094759464264
1761484577052471300,5.94747119140625,0.0057849884033203125,0.04739868640899658,0.15678226947784424
1761484577069296600,5.964296630859375,0.006110191345214844,0.03792738914489746,0.15762290358543396
1761484577086108400,5.9811083984375,-0.0015993118286132812,0.03860354423522949,0.1588386595249176
1761484577102945500,5.997945556640625,-0.021608352661132812,0.02914607524871826,0.14622287452220917
1761484577119763000,6.014762939453125,-0.041156768798828125,0.02101731300354004,0.1447160840034485
1761484577136590300,6.03159033203125,-0.08904361724853516,0.001178145408630371,0.17234674096107483
1761484577153417700,6.048417724609375,-0.11406612396240234,0.016275763511657715,0.17439404129981995
1761484577170241500,6.065241455078125,-0.12200736999511719,0.037628173828125,0.1486557126045227
1761484577187086600,6.082086669921875,-0.09840869903564453,0.028275489807128906,0.1145288273692131
1761484577203908600,6.09890869140625,-0.06946468353271484,-0.027366161346435547,0.08401962369680405
1761484577220739300,6.1157392578125,-0.026943206787109375,-0.04602205753326416,0.07570920884609222
1761484577237558500,6.13255859375,0.010155677795410156,-0.0472942590713501,0.09474741667509079
1761484577254389500,6.149389404296875,0.0054607391357421875,-0.04633128643035889,0.09485258907079697
1761484577271214600,6.166214599609375,-0.03387737274169922,-0.04777657985687256,0.07622355222702026
1761484577288042500,6.18304248046875,-0.09824371337890625,-0.06027042865753174,0.06278543919324875
1761484577304850200,6.19985009765625,-0.15768051147460938,-0.0402679443359375,0.04634524881839752
1761484577321694500,6.216694580078125,-0.16263389587402344,-0.0441741943359375,0.04098545014858246
1761484577338512000,6.233511962890625,-0.13392066955566406,-0.041521668434143066,0.02065800130367279
1761484577355355100,6.250355224609375,-0.07401466369628906,-0.036118388175964355,-0.023431748151779175
1761484577372168400,6.26716845703125,-0.050856590270996094,-0.03528642654418945,-0.02174544334411621
1761484577389001700,6.284001708984375,-0.02607440948486328,-0.032737016677856445,0.010852113366127014
1761484577405823700,6.30082373046875,0.030181884765625,-0.015241622924804688,0.05807633697986603
1761484577422639400,6.317639404296875,0.0054759979248046875,-0.0630643367767334,0.1107102632522583
1761484577439464700,6.334464599609375,-0.012293815612792969,-0.05466890335083008,0.07873398065567017
1761484577456289500,6.35128955078125,-0.0650177001953125,-0.05466818809509277,0.044601067900657654
1761484577473121800,6.368121826171875,-0.09122562408447266,-0.06828057765960693,0.0350755900144577
1761484577489943300,6.384943359375,-0.08910751342773438,-0.06414377689361572,0.041830793023109436
1761484577506774300,6.401774169921875,-0.06807994842529297,-0.06964409351348877,0.07637456059455872
1761484577523610000,6.418610107421875,-0.10682296752929688,-0.07609903812408447,0.13482314348220825
1761484577540437200,6.435437255859375,-0.1586141586303711,-0.07463288307189941,0.1671600043773651
1761484577557263400,6.452263427734375,-0.17022037506103516,-0.06979596614837646,0.16083385050296783
1761484577574071600,6.469071533203125,-0.1222219467163086,-0.08473062515258789,0.14989911019802094
1761484577590895000,6.48589501953125,-0.03798866271972656,-0.0896075963973999,0.1981363445520401
1761484577607730700,6.502730712890625,-0.02874469757080078,-0.08024382591247559,0.24572515487670898
1761484577624554500,6.519554443359375,-0.07596683502197266,-0.05324351787567139,0.2378540188074112
1761484577641367000,6.536366943359375,-0.09045124053955078,-0.03895246982574463,0.2186952531337738
1761484577658211000,6.553211181640625,-0.044884681701660156,-0.03662288188934326,0.23182857036590576
1761484577675052000,6.570052001953125,0.026239395141601562,-0.04104804992675781,0.24858996272087097
1761484577691877000,6.586877197265625,0.023210525512695312,-0.023760199546813965,0.20631051063537598
1761484577708700400,6.603700439453125,-0.02672576904296875,-0.011654019355773926,0.1616695523262024
1761484577725528600,6.620528564453125,-0.05584907531738281,-0.03402817249298096,0.1615120768547058
1761484577742349300,6.637349365234375,-0.06808185577392578,-0.02709496021270752,0.15090027451515198
1761484577759181600,6.654181640625,-0.09046459197998047,0.01381218433380127,0.09480728209018707
1761484577776014800,6.671014892578125,-0.10508346557617188,0.03295314311981201,0.05366618186235428
1761484577792828400,6.687828369140625,-0.09461402893066406,0.024506449699401855,0.03682050108909607
1761484577809647600,6.704647705078125,-0.010441780090332031,0.009932398796081543,0.02981676161289215
1761484577826479600,6.721479736328125,0.0911397933959961,0.00820457935333252,0.04001092165708542
1761484577843315200,6.738315185546875,0.11390018463134766,0.013363122940063477,0.0465870201587677
1761484577860124700,6.755124755859375,0.020209312438964844,0.018090367317199707,0.060389142483472824
1761484577876973800,6.771973876953125,-0.10134315490722656,0.013210058212280273,0.05456720292568207
1761484577893784000,6.7887841796875,-0.11769485473632812,0.0293196439743042,0.05440554767847061
1761484577910608100,6.805608154296875,-0.073974609375,0.016952872276306152,0.07782521843910217
1761484577927431700,6.822431640625,-0.057288169860839844,0.000689387321472168,0.0757078155875206
1761484577944257500,6.839257568359375,-0.05066204071044922,0.004785895347595215,0.027545548975467682
1761484577961081000,6.8560810546875,-0.012490272521972656,0.006363630294799805,-0.005044929683208466
1761484577977921000,6.872921142578125,0.04572296142578125,-0.0037537813186645508,0.01522507518529892
1761484577994736600,6.889736572265625,0.048801422119140625,-0.002101302146911621,0.04454458877444267
1761484578011581400,6.90658154296875,-0.006058692932128906,0.0011633634567260742,0.05408038944005966
1761484578028395500,6.9233955078125,-0.015041351318359375,0.006398320198059082,0.07651335000991821
1761484578045233200,6.940233154296875,-0.0042705535888671875,-0.010268330574035645,0.0747508555650711
1761484578062026800,6.95702685546875,-0.039997100830078125,-0.01461493968963623,0.017543360590934753
1761484578078870300,6.973870361328125,-0.11986732482910156,-0.020298123359680176,-0.02845750004053116
1761484578095692500,6.990692626953125,-0.10898876190185547,-0.021567225456237793,-0.022597484290599823
1761484578112514800,7.007514892578125,-0.04029083251953125,-0.030649900436401367,-0.010500960052013397
1761484578129346800,7.024346923828125,-0.03458976745605469,-0.029564738273620605,0.01754109561443329
1761484578146174200,7.04117431640625,-0.04590129852294922,-0.01755833625793457,0.06699500977993011
1761484578163017700,7.058017822265625,-0.03652667999267578,-0.03107285499572754,0.08757446706295013
1761484578179839000,7.0748388671875,-0.03200531005859375,-0.03425323963165283,0.1058884710073471
1761484578196651500,7.091651611328125,-0.03297615051269531,-0.03158211708068848,0.10204629600048065
1761484578213472300,7.10847216796875,0.0151824951171875,-0.04128587245941162,0.05857759714126587
1761484578230316000,7.12531591796875,0.05912494659423828,-0.06471610069274902,0.07228170335292816
1761484578247145500,7.1421455078125,0.04216480255126953,-0.061509132385253906,0.11820094287395477
1761484578263985700,7.158985595703125,-0.04421424865722656,-0.03152287006378174,0.13404831290245056
1761484578280798200,7.175798095703125,-0.08173561096191406,-0.023311734199523926,0.12823688983917236
1761484578297603600,7.192603515625,-0.11921977996826172,-0.03885984420776367,0.15096953511238098
1761484578314418200,7.209418212890625,-0.16761302947998047,-0.03727555274963379,0.2029280811548233
1761484578331277300,7.22627734375,-0.19266223907470703,0.012201786041259766,0.20173543691635132
1761484578348102400,7.243102294921875,-0.20044994354248047,0.03901362419128418,0.20282167196273804
1761484578364914200,7.2599140625,-0.17017173767089844,0.03230392932891846,0.17162659764289856
1761484578381756700,7.276756591796875,-0.11809062957763672,0.01269841194152832,0.16151541471481323
1761484578398571000,7.293571044921875,-0.08782768249511719,0.01172792911529541,0.10525849461555481
1761484578415397400,7.3103974609375,-0.06656551361083984,0.009928584098815918,0.0912744477391243
1761484578432222500,7.327222412109375,-0.004763603210449219,-0.00022685527801513672,0.09061895310878754
1761484578449048000,7.344048095703125,0.05478096008300781,-0.02939891815185547,0.09385424852371216
1761484578465879000,7.360879150390625,0.08078670501708984,-0.02138197422027588,0.06307793408632278
1761484578482700000,7.377699951171875,0.016611099243164062,-0.04154825210571289,0.03218713402748108
1761484578499560700,7.394560791015625,-0.07467842102050781,-0.03538930416107178,0.015630975365638733
1761484578516357000,7.411357177734375,-0.145904541015625,-0.025331497192382812,0.03209473192691803
1761484578533193200,7.428193115234375,-0.14931392669677734,-0.009320974349975586,0.03695244342088699
1761484578550003200,7.445003173828125,-0.11968040466308594,-0.018151044845581055,0.05178030580282211
1761484578566824400,7.461824462890625,-0.03918743133544922,-0.01694333553314209,0.06170034408569336
1761484578583648000,7.47864794921875,0.025787353515625,-0.03445470333099365,0.07778802514076233
1761484578600484600,7.495484619140625,0.0040836334228515625,-0.03803086280822754,0.07269719988107681
1761484578617313800,7.512313720703125,-0.05474376678466797,-0.025440216064453125,0.04464554786682129
1761484578634139100,7.52913916015625,-0.10139083862304688,-0.011293649673461914,0.04309473931789398
1761484578650982400,7.545982421875,-0.11894035339355469,-0.011235594749450684,0.06262646615505219
1761484578667805000,7.562804931640625,-0.11951828002929688,-0.009120702743530273,0.0781417191028595
1761484578684633000,7.579633056640625,-0.10642337799072266,-0.011066436767578125,0.06262506544589996
1761484578701457700,7.596457763671875,-0.09421443939208984,-0.029027104377746582,0.03594471514225006
1761484578718282800,7.61328271484375,-0.07005119323730469,-0.04433441162109375,0.06094745546579361
1761484578735111700,7.630111572265625,-0.04736900329589844,-0.05067312717437744,0.08312858641147614
1761484578751959300,7.646959228515625,-0.04401206970214844,-0.028126835823059082,0.08924774825572968
1761484578768765700,7.663765625,-0.0335845947265625,-0.02751147747039795,0.06799659132957458
1761484578785592600,7.680592529296875,-0.008337020874023438,-0.0614166259765625,0.05539332330226898
1761484578802415900,7.697415771484375,-0.00015926361083984375,-0.06610572338104248,0.06307074427604675
1761484578819242000,7.714241943359375,-0.050754547119140625,-0.04304218292236328,0.051281943917274475
1761484578836070100,7.731070068359375,-0.09378528594970703,-0.04166972637176514,0.060336098074913025
1761484578852902000,7.74790185546875,-0.08489704132080078,-0.05253458023071289,0.05321687459945679
1761484578869717500,7.764717529296875,-0.07872200012207031,-0.06546032428741455,0.03590516746044159
1761484578886536400,7.781536376953125,-0.117767333984375,-0.06217801570892334,0.036852285265922546
1761484578903363000,7.798363037109375,-0.19003963470458984,-0.04179739952087402,0.05537746846675873
1761484578920185900,7.815185791015625,-0.16281700134277344,-0.013745307922363281,0.08892951905727386
1761484578937015000,7.83201513671875,-0.11112308502197266,-0.006192922592163086,0.06901944428682327
1761484578953841200,7.848841064453125,-0.0742788314819336,-0.020481348037719727,0.03242896497249603
1761484578970668000,7.86566796875,0.00014591217041015625,-0.023309707641601562,0.05430746078491211
1761484578987509500,7.882509521484375,0.049836158752441406,-0.010679483413696289,0.03094397485256195
1761484579004334600,7.89933447265625,0.037700653076171875,-0.011115312576293945,0.03209857642650604
1761484579021159200,7.9161591796875,0.007882118225097656,0.004118919372558594,0.04258109629154205
1761484579037968400,7.932968505859375,-0.042537689208984375,-0.015963435173034668,0.05812211334705353
1761484579054799000,7.949799072265625,-0.08551025390625,-0.01569080352783203,0.06830303370952606
1761484579071633200,7.966633056640625,-0.10503768920898438,0.007404208183288574,0.08023986220359802
1761484579088451300,7.983451416015625,-0.07770252227783203,0.01876974105834961,0.08362434804439545
1761484579105278200,8.0002783203125,-0.0152740478515625,0.009588837623596191,0.07741241157054901
1761484579122102500,8.0171025390625,0.044646263122558594,0.001590132713317871,0.05197909474372864
1761484579138965800,8.0339658203125,0.020092010498046875,-0.013959884643554688,-0.003270581364631653
1761484579155772200,8.050772216796876,-0.044554710388183594,-0.009547591209411621,-0.013912692666053772
1761484579172597800,8.06759765625,-0.053481101989746094,-0.01418614387512207,-0.0011993944644927979
1761484579189414400,8.084414306640625,0.0007219314575195312,-0.042709946632385254,0.015686452388763428
1761484579206258200,8.101258056640624,0.017076492309570312,-0.04997372627258301,0.004871532320976257
1761484579223076000,8.118076171875,0.0014324188232421875,-0.023784995079040527,-0.0034895241260528564
1761484579239907300,8.1349072265625,-0.036602020263671875,-0.01984882354736328,-0.03218206763267517
1761484579256726000,8.15172607421875,-0.07569599151611328,-0.023009300231933594,-0.006507769227027893
1761484579273559300,8.168559326171875,-0.12746047973632812,-0.023415446281433105,0.03229011595249176
1761484579290382300,8.18538232421875,-0.14188861846923828,-0.009629607200622559,0.05271120369434357
1761484579307207400,8.20220751953125,-0.12478446960449219,-0.00478518009185791,0.048419803380966187
1761484579324015600,8.219015625,-0.07718372344970703,-0.0155564546585083,0.08282844722270966
1761484579340850000,8.235849853515624,-0.0298919677734375,-0.039914608001708984,0.0996188074350357
1761484579357690400,8.2526904296875,-0.0075664520263671875,-0.03406107425689697,0.1179671660065651
1761484579374509600,8.269509521484375,0.1144571304321289,-0.037944912910461426,0.12560836970806122
1761484579391327700,8.28632763671875,0.2738962173461914,-0.12234783172607422,0.11631082743406296
1761484579408152600,8.303152587890626,0.2887392044067383,-0.04795074462890625,0.04383186995983124
1761484579424980000,8.31997998046875,0.0951223373413086,-0.01827716827392578,-0.017544656991958618
1761484579441806600,8.336806640625,-0.10001468658447266,-0.05051708221435547,0.004531055688858032
1761484579458631700,8.353631591796875,-0.22137928009033203,-0.06377673149108887,0.07004028558731079
1761484579475464700,8.370464599609376,-0.22742462158203125,-0.04937922954559326,0.15139992535114288
1761484579492295700,8.387295654296874,-0.20014572143554688,-0.01005089282989502,0.17806632816791534
1761484579509108500,8.4041083984375,-0.13359642028808594,0.010841846466064453,0.13430804014205933
1761484579525940200,8.420940185546876,-0.022812843322753906,-0.024507522583007812,0.09482280910015106
1761484579542767600,8.437767578125,0.07336997985839844,-0.052066922187805176,0.06721016764640808
1761484579559591000,8.4545908203125,0.15735244750976562,-0.09498703479766846,0.09908737242221832
