time,seconds_elapsed,z,y,x
1761486763273311200,0.200311279296875,0.01385498046875,-0.14258527755737305,-0.16627588868141174
1761486763290135800,0.2171357421875,0.07573604583740234,-0.174699068069458,-0.14005231857299805
1761486763306958000,0.2339580078125,0.10337066650390625,-0.16762614250183105,-0.10892175137996674
1761486763323774700,0.250774658203125,0.10211753845214844,-0.1653825044631958,-0.07487352192401886
1761486763340599800,0.267599853515625,0.0417327880859375,-0.16602027416229248,-0.06063910573720932
1761486763357422300,0.28442236328125,-0.00043010711669921875,-0.13855981826782227,-0.05124030262231827
1761486763374242300,0.3012421875,-0.07578182220458984,-0.10350978374481201,-0.041498564183712006
1761486763391074800,0.31807470703125,-0.08804893493652344,-0.07476401329040527,-0.028314761817455292
1761486763407906300,0.33490625,-0.08409500122070312,-0.09693622589111328,0.027039067819714546
1761486763424740000,0.351739990234375,-0.04784870147705078,-0.08144962787628174,0.02773057110607624
1761486763441548800,0.368548828125,-0.08472633361816406,-0.04807746410369873,0.010981140658259392
1761486763458400300,0.385400146484375,-0.1339578628540039,-0.03900790214538574,0.021213673055171967
1761486763475203600,0.40220361328125,-0.10104942321777344,-0.01872730255126953,0.046966586261987686
1761486763492046800,0.419046875,-0.004933357238769531,-0.047791123390197754,0.08931206166744232
1761486763508873000,0.435873046875,0.019809722900390625,-0.04853200912475586,0.11828463524580002
1761486763525699300,0.45269921875,-0.01887989044189453,-0.029153823852539062,0.11065052449703217
1761486763542524700,0.469524658203125,-0.12060165405273438,-0.009452462196350098,0.08290815353393555
1761486763559333400,0.48633349609375,-0.1947031021118164,-0.012921929359436035,0.061977945268154144
1761486763576142300,0.503142333984375,-0.28525352478027344,0.00642704963684082,0.019060753285884857
1761486763592989000,0.519989013671875,-0.31371307373046875,0.041516780853271484,0.032893188297748566
1761486763609816300,0.53681640625,-0.24307727813720703,0.03666245937347412,0.10818668454885483
1761486763626640600,0.553640625,-0.08998394012451172,-0.009561419486999512,0.11216240376234055
1761486763643466500,0.570466552734375,-0.03438758850097656,-0.021093249320983887,0.07688652724027634
1761486763660309800,0.587309814453125,0.02475261688232422,-0.04195284843444824,0.023008868098258972
1761486763677128700,0.604128662109375,0.028804779052734375,-0.02893805503845215,0.0043832361698150635
1761486763693961200,0.620961181640625,-0.013695716857910156,-0.06833815574645996,0.06225176528096199
1761486763710766800,0.637766845703125,-0.053336143493652344,-0.011760115623474121,0.1276664137840271
1761486763727596300,0.65459619140625,-0.02234935760498047,0.028916001319885254,0.14071080088615417
1761486763744422000,0.671421875,0.05610942840576172,0.045252084732055664,0.07376088201999664
1761486763761248000,0.688248046875,0.03972911834716797,0.041496992111206055,-0.020444080233573914
1761486763778073900,0.705073974609375,-0.038158416748046875,0.06732702255249023,-0.0859517902135849
1761486763794906400,0.72190625,-0.05285930633544922,0.05041313171386719,-0.0639491081237793
1761486763811743000,0.738742919921875,0.019496917724609375,0.007218480110168457,0.002936452627182007
1761486763828565500,0.7555654296875,0.08311080932617188,0.025197982788085938,0.031864363700151443
1761486763845391400,0.772391357421875,0.14630985260009766,0.06495261192321777,0.12716437876224518
1761486763862186800,0.789186767578125,0.19080638885498047,0.04787909984588623,0.30861738324165344
1761486763879047000,0.806046875,0.2125091552734375,0.028862476348876953,0.3032769560813904
1761486763895869700,0.82286962890625,0.0433197021484375,0.01351618766784668,0.1355285942554474
1761486763912695000,0.839695068359375,-0.21213817596435547,0.016468048095703125,-0.0037578195333480835
1761486763929521400,0.856521484375,-0.32901477813720703,0.0249936580657959,-0.14530102908611298
1761486763946347000,0.873346923828125,-0.2992849349975586,0.018503785133361816,-0.22247867286205292
1761486763963172900,0.8901728515625,-0.21532344818115234,0.029280543327331543,-0.1722363531589508
1761486763980001300,0.907001220703125,-0.14632892608642578,0.005641937255859375,-0.07784958183765411
1761486763996822500,0.923822509765625,-0.11536312103271484,-0.030590295791625977,-0.06268852949142456
1761486764013650400,0.940650390625,-0.0783681869506836,-0.04676258563995361,-0.11803963780403137
1761486764030476500,0.9574765625,-0.035083770751953125,-0.07891428470611572,-0.18992748856544495
1761486764047285200,0.97428515625,-0.04233741760253906,-0.08816564083099365,-0.22824019193649292
1761486764064115000,0.991114990234375,-0.061756134033203125,-0.1045234203338623,-0.20576712489128113
1761486764080940300,1.007940185546875,-0.12359619140625,-0.06578648090362549,-0.16884449124336243
1761486764097766400,1.024766357421875,-0.18470478057861328,-0.04559183120727539,-0.13257065415382385
1761486764114592500,1.041592529296875,-0.15457916259765625,-0.040447115898132324,-0.09275519847869873
1761486764131418600,1.058418701171875,-0.08270645141601562,-0.0744551420211792,-0.05602547526359558
1761486764148261400,1.075261474609375,-0.07801055908203125,-0.06355512142181396,-0.08157280087471008
1761486764165084200,1.092084228515625,-0.04509735107421875,-0.07169890403747559,-0.09155651926994324
1761486764181909800,1.10890966796875,-0.07480621337890625,-0.06461691856384277,-0.11130782961845398
1761486764198719700,1.1257197265625,-0.009931564331054688,-0.06755101680755615,-0.12664969265460968
1761486764215546600,1.142546630859375,0.08032989501953125,-0.06491506099700928,-0.07045911252498627
1761486764232373800,1.159373779296875,0.054721832275390625,-0.06512916088104248,0.016649305820465088
1761486764249196500,1.176196533203125,-0.2974824905395508,-0.02268350124359131,-0.030110284686088562
1761486764266017000,1.19301708984375,-0.2356863021850586,0.020870566368103027,-0.12290821969509125
1761486764282854400,1.2098544921875,-0.34760475158691406,-0.03507077693939209,-0.034187838435173035
1761486764299688200,1.226688232421875,-0.15777111053466797,-0.06687557697296143,0.04846405237913132
1761486764316517000,1.24351708984375,0.09344005584716797,-0.046222805976867676,0.10654541850090027
1761486764333342700,1.2603427734375,0.12688446044921875,0.02949666976928711,0.08786620199680328
1761486764350168800,1.2771689453125,-0.021915435791015625,-0.017454862594604492,0.08480226248502731
1761486764366974200,1.29397412109375,-0.004656791687011719,0.05776834487915039,-0.06626203656196594
1761486764383825000,1.310824951171875,0.013944625854492188,0.02019047737121582,-0.045773789286613464
1761486764400647000,1.32764697265625,0.030073165893554688,-0.045206546783447266,0.11002469062805176
1761486764417468200,1.34446826171875,0.08293437957763672,-0.04374122619628906,0.14649511873722076
1761486764434302700,1.361302734375,0.04928779602050781,-0.008210420608520508,0.07710934430360794
1761486764451125000,1.378125,-0.040902137756347656,0.01172339916229248,0.027650058269500732
1761486764467953000,1.394952880859375,-0.11412906646728516,0.036432862281799316,-0.05098403990268707
1761486764484774400,1.4117744140625,-0.1187591552734375,0.019302725791931152,-0.08463388681411743
1761486764501598500,1.428598388671875,-0.09706974029541016,-0.021007776260375977,-0.05572877824306488
1761486764518432300,1.445432373046875,-0.06372833251953125,-0.04749488830566406,0.005211248993873596
1761486764535231700,1.462231689453125,0.005227088928222656,-0.08082759380340576,0.06584347784519196
1761486764552066300,1.47906640625,0.041052818298339844,-0.08929872512817383,0.074588343501091
1761486764568892200,1.49589208984375,0.03645515441894531,-0.08850693702697754,0.017562463879585266
1761486764585718000,1.512718017578125,-0.04236125946044922,-0.08310890197753906,-0.01949763298034668
1761486764602541300,1.529541259765625,-0.15505123138427734,-0.0678642988204956,-0.03171186149120331
1761486764619372800,1.546372802734375,-0.23368453979492188,-0.05139434337615967,-0.03517237305641174
1761486764636206300,1.563206298828125,-0.2179584503173828,-0.06001162528991699,-0.025708019733428955
1761486764653042400,1.58004248046875,-0.12745189666748047,-0.05139946937561035,-0.018666669726371765
1761486764669866800,1.59686669921875,-0.07117462158203125,-0.0846552848815918,0.027519069612026215
1761486764686665000,1.6136650390625,-0.029274940490722656,-0.11350500583648682,0.06446433067321777
1761486764703496400,1.630496337890625,-0.0347747802734375,-0.08886897563934326,0.06305398792028427
1761486764720323000,1.647322998046875,-0.08880138397216797,-0.06968533992767334,0.007833600044250488
1761486764737148400,1.6641484375,-0.15999984741210938,-0.04505026340484619,-0.06023450940847397
1761486764753984000,1.68098388671875,-0.2016735076904297,-0.05749201774597168,-0.09014002978801727
1761486764770799900,1.6977998046875,-0.24507904052734375,-0.05091071128845215,-0.10637657344341278
1761486764787646700,1.714646728515625,-0.20821666717529297,-0.022052645683288574,-0.056688226759433746
1761486764804459800,1.731459716796875,-0.08809089660644531,-0.04160773754119873,0.022648535668849945
1761486764821281500,1.748281494140625,0.05145263671875,-0.047864317893981934,0.11610583961009979
1761486764838120700,1.76512060546875,0.13193607330322266,-0.016711115837097168,0.13036438822746277
1761486764854946600,1.781946533203125,0.08109855651855469,0.01916337013244629,0.03896144777536392
1761486764871769600,1.79876953125,-0.01946735382080078,0.03938162326812744,-0.03811662644147873
1761486764888601300,1.815601318359375,-0.030180931091308594,0.06389975547790527,-0.0617569163441658
1761486764905424400,1.83242431640625,0.015477180480957031,0.05855512619018555,-0.009680375456809998
1761486764922250500,1.84925048828125,0.03759479522705078,0.04754078388214111,0.04245629534125328
1761486764939076400,1.866076416015625,0.0063419342041015625,0.04636573791503906,0.05716889351606369
1761486764955901700,1.882901611328125,-0.021001815795898438,0.039344191551208496,0.05929436534643173
1761486764972728300,1.899728271484375,-0.03224658966064453,0.0501251220703125,0.01888444274663925
1761486764989554200,1.91655419921875,-0.07201194763183594,0.0561976432800293,-0.00812046229839325
1761486765006380300,1.93338037109375,-0.08149909973144531,0.038202881813049316,-0.004828982055187225
1761486765023202300,1.950202392578125,-0.0006389617919921875,0.021938681602478027,-0.009816892445087433
1761486765040018000,1.967017822265625,0.028778076171875,-0.001571059226989746,0.01175643503665924
1761486765056844000,1.983843994140625,0.08368301391601562,-0.021255970001220703,0.03192567452788353
1761486765073670100,2.000670166015625,0.040027618408203125,-0.01893925666809082,0.005212090909481049
1761486765090495500,2.01749560546875,-0.05009174346923828,-0.01647818088531494,-0.05100589990615845
1761486765107321900,2.03432177734375,-0.10215950012207031,-0.00808095932006836,-0.047150321304798126
1761486765124144000,2.05114404296875,-0.08516788482666016,-0.03922009468078613,0.0029004067182540894
1761486765140994800,2.067994873046875,-0.06821441650390625,-0.030263781547546387,0.03184802085161209
1761486765157808400,2.084808349609375,-0.07265567779541016,-0.05110371112823486,0.04032557085156441
1761486765174625800,2.101625732421875,-0.07518768310546875,-0.06400978565216064,0.004514314234256744
1761486765191451100,2.118451171875,-0.026895523071289062,-0.08443856239318848,0.019714247435331345
1761486765208277500,2.135277587890625,0.013050079345703125,-0.11345791816711426,0.06793126463890076
1761486765225098500,2.152098388671875,-0.0030727386474609375,-0.11394917964935303,0.074733205139637
1761486765241926100,2.168926025390625,-0.06242561340332031,-0.10820996761322021,0.05223545804619789
1761486765258757600,2.185757568359375,-0.127105712890625,-0.12481021881103516,0.0346229262650013
1761486765275595000,2.202594970703125,-0.19363117218017578,-0.1277904510498047,0.02040662243962288
1761486765292419800,2.219419921875,-0.18255901336669922,-0.10741281509399414,-0.019217319786548615
1761486765309246200,2.23624609375,-0.10571098327636719,-0.09750258922576904,-0.054219186305999756
1761486765326055400,2.253055419921875,-0.025259017944335938,-0.0920863151550293,-0.05314626544713974
1761486765342898400,2.2698984375,0.008196830749511719,-0.11544990539550781,-0.0641951784491539
1761486765359723500,2.2867236328125,0.03238487243652344,-0.11754810810089111,-0.10789162665605545
1761486765376547800,2.3035478515625,0.04619598388671875,-0.10228192806243896,-0.12425188720226288
1761486765393378000,2.3203779296875,0.0843210220336914,-0.10495424270629883,-0.057333409786224365
1761486765410202000,2.3372021484375,0.04771995544433594,-0.11288714408874512,0.01328868418931961
1761486765427027500,2.35402734375,-0.05323314666748047,-0.07912898063659668,0.015117276459932327
1761486765443859700,2.370859619140625,-0.1295013427734375,-0.04460752010345459,-0.010929517447948456
1761486765460673500,2.387673583984375,-0.14945030212402344,-0.03298914432525635,-0.011105373501777649
1761486765477505500,2.404505615234375,-0.12261486053466797,-0.03590047359466553,0.03373975306749344
1761486765494327300,2.421327392578125,-0.11844635009765625,-0.04456043243408203,0.0647088885307312
1761486765511161600,2.43816162109375,-0.09197616577148438,-0.023007512092590332,0.061028048396110535
1761486765527966000,2.454966064453125,-0.08001899719238281,-0.027907490730285645,0.05477166175842285
1761486765544795600,2.471795654296875,-0.11116886138916016,-0.03714168071746826,0.046457838267087936
1761486765561621000,2.48862109375,-0.12439918518066406,-0.03799784183502197,0.029220912605524063
1761486765578456800,2.505456787109375,-0.15016651153564453,-0.028786182403564453,0.017541520297527313
1761486765595276800,2.52227685546875,-0.15793609619140625,-0.005583524703979492,0.01722215861082077
1761486765612095700,2.539095703125,-0.13382816314697266,-0.02837979793548584,0.04845525324344635
1761486765628934700,2.5559345703125,-0.0886850357055664,-0.04185605049133301,0.010834433138370514
1761486765645752600,2.572752685546875,-0.1376638412475586,-0.03231072425842285,-0.05537284165620804
1761486765662577400,2.589577392578125,-0.18271732330322266,-0.02209186553955078,-0.08031943440437317
1761486765679402500,2.606402587890625,-0.18459415435791016,0.003572702407836914,-0.08227983117103577
1761486765696225800,2.623225830078125,-0.15491104125976562,0.004027128219604492,-0.08371981978416443
1761486765713057000,2.64005712890625,-0.14272308349609375,0.023552656173706055,-0.12722273170948029
1761486765729880300,2.65688037109375,-0.18154048919677734,0.012096762657165527,-0.17008915543556213
1761486765746706700,2.673706787109375,-0.2286996841430664,0.018828988075256348,-0.21027494966983795
1761486765763548200,2.690548095703125,-0.1816701889038086,0.030414462089538574,-0.1550697684288025
1761486765780369700,2.70736962890625,-0.11460590362548828,-0.0038895606994628906,-0.013804145157337189
1761486765797200400,2.724200439453125,-0.07157516479492188,-0.008507251739501953,0.11753072589635849
1761486765814007600,2.741007568359375,-0.09330368041992188,0.020552635192871094,0.1862722933292389
1761486765830846200,2.75784619140625,-0.1248025894165039,0.05015718936920166,0.2049771100282669
1761486765847679200,2.77467919921875,-0.13671875,0.03940904140472412,0.2356322854757309
1761486765864501500,2.79150146484375,-0.059370994567871094,0.03393197059631348,0.19771945476531982
1761486765881327600,2.80832763671875,0.07043075561523438,0.02341639995574951,0.1295238435268402
1761486765898136000,2.825135986328125,0.2213888168334961,-0.01161348819732666,0.10149738937616348
1761486765914976500,2.8419765625,0.3646421432495117,-0.017096281051635742,0.08230862021446228
1761486765931808300,2.858808349609375,0.4144277572631836,-0.04335141181945801,0.05822262167930603
1761486765948631600,2.875631591796875,0.35225772857666016,-0.05267345905303955,0.009657613933086395
1761486765965457000,2.892456787109375,0.21657371520996094,-0.04644954204559326,-0.06325381249189377
1761486765982266000,2.90926611328125,0.09009552001953125,0.003710508346557617,-0.07432648539543152
1761486765999107000,2.926107177734375,-0.049449920654296875,0.023366928100585938,-0.05956043675541878
1761486766015919600,2.942919677734375,-0.13875198364257812,0.03646230697631836,-0.05988426133990288
1761486766032746800,2.959746826171875,-0.09527206420898438,0.0428621768951416,-0.05597708001732826
1761486766049575000,2.976574951171875,-0.04998016357421875,0.028011202812194824,-0.034792687743902206
1761486766066399000,2.99339892578125,-0.042148590087890625,0.00890803337097168,-0.04735976457595825
1761486766083232800,3.010232666015625,-0.12740802764892578,0.03846478462219238,-0.06918899714946747
1761486766100050200,3.02705029296875,-0.20168590545654297,0.05613899230957031,-0.09984051436185837
1761486766116889600,3.0438896484375,-0.21794891357421875,0.0626211166381836,-0.11455719918012619
1761486766133720000,3.060719970703125,-0.2102222442626953,0.050763845443725586,-0.08747086673974991
1761486766150505700,3.077505615234375,-0.1366424560546875,0.03378582000732422,-0.03910479694604874
1761486766167351800,3.094351806640625,-0.0547943115234375,0.016322851181030273,0.01622876524925232
1761486766184182300,3.111182373046875,-0.008989334106445312,0.015740036964416504,0.026853658258914948
1761486766201005800,3.128005859375,-0.03440380096435547,0.012315869331359863,0.04068712145090103
1761486766217832200,3.144832275390625,-0.099578857421875,0.0190657377243042,0.02280402183532715
1761486766234657500,3.161657470703125,-0.044814109802246094,0.0200345516204834,-0.022251904010772705
1761486766251484200,3.178484130859375,0.06101036071777344,-0.02332603931427002,-0.04104055464267731
1761486766268323300,3.1953232421875,0.11734580993652344,-0.040728211402893066,-0.01841815561056137
1761486766285149400,3.2121494140625,0.1641550064086914,-0.07206082344055176,0.026771746575832367
1761486766301959200,3.228959228515625,0.16774940490722656,-0.08272528648376465,0.004499673843383789
1761486766318801000,3.24580078125,0.11429691314697266,-0.0708773136138916,-0.032806962728500366
1761486766335627000,3.262626953125,0.02892589569091797,-0.060158610343933105,-0.0340777188539505
1761486766352454700,3.27945458984375,-0.07578659057617188,-0.03430807590484619,0.011272318661212921
1761486766369278700,3.29627880859375,-0.10919761657714844,-0.05282413959503174,0.05587759613990784
1761486766386104800,3.313104736328125,-0.08601951599121094,-0.08044159412384033,0.05559480935335159
1761486766402910000,3.329909912109375,-0.008267402648925781,-0.08476495742797852,0.023627877235412598
1761486766419740400,3.346740478515625,0.0713653564453125,-0.08495569229125977,0.054129235446453094
1761486766436566000,3.36356591796875,0.09359931945800781,-0.11115384101867676,0.05839391052722931
1761486766453392600,3.380392578125,0.011556625366210938,-0.11478781700134277,0.023857444524765015
1761486766470205000,3.397204833984375,-0.10416793823242188,-0.11587870121002197,0.004224762320518494
1761486766487044000,3.414044189453125,-0.23131084442138672,-0.11398851871490479,0.0019509270787239075
1761486766503861800,3.43086181640625,-0.3245353698730469,-0.10833942890167236,0.021794825792312622
1761486766520687900,3.44768798828125,-0.2985506057739258,-0.11516273021697998,0.04534904658794403
1761486766537522000,3.46452197265625,-0.2334270477294922,-0.1112816333770752,0.05382642149925232
1761486766554352600,3.4813525390625,-0.21491050720214844,-0.14399302005767822,0.11412720382213593
1761486766571175700,3.49817578125,-0.2534513473510742,-0.13449037075042725,0.1533816158771515
1761486766588002000,3.515001953125,-0.26272106170654297,-0.10527622699737549,0.18092502653598785
1761486766604840700,3.5318408203125,-0.2540626525878906,-0.061486244201660156,0.18329162895679474
1761486766621664500,3.54866455078125,-0.2095956802368164,-0.033533334732055664,0.12940484285354614
1761486766638479400,3.565479248046875,-0.15758323669433594,-0.03841269016265869,0.022972002625465393
1761486766655295500,3.58229541015625,-0.062422752380371094,-0.017584681510925293,-0.10040917992591858
1761486766672128300,3.599128173828125,0.04631996154785156,-0.020980358123779297,-0.1461775302886963
1761486766688961000,3.6159609375,0.12011432647705078,0.0011926889419555664,-0.135838121175766
1761486766705782800,3.63278271484375,0.14842700958251953,0.030101418495178223,-0.08055216073989868
1761486766722609400,3.649609375,0.13584232330322266,0.05950462818145752,-0.008581168949604034
1761486766739452000,3.666451904296875,0.11727428436279297,0.06610417366027832,0.012628212571144104
1761486766756271400,3.683271240234375,0.08399486541748047,0.09809637069702148,0.0068375542759895325
1761486766773089300,3.70008935546875,0.009825706481933594,0.11467909812927246,0.04495818540453911
1761486766789926400,3.716926513671875,-0.005053520202636719,0.10574519634246826,0.10028334707021713
1761486766806752300,3.733752197265625,0.03034210205078125,0.10512983798980713,0.07301212102174759
1761486766823561700,3.750561767578125,0.06723785400390625,0.09560227394104004,0.052348993718624115
1761486766840406000,3.767406005859375,0.053264617919921875,0.06885290145874023,0.05948108434677124
1761486766857228300,3.784228271484375,0.03656005859375,0.0447235107421875,0.08181851357221603
1761486766874056000,3.801055908203125,-0.0009899139404296875,0.027526140213012695,0.05329097807407379
1761486766890880800,3.817880859375,-0.05748558044433594,0.03357565402984619,-0.015122748911380768
1761486766907701200,3.834701171875,-0.09862804412841797,0.004807710647583008,-0.07977975904941559
1761486766924542000,3.8515419921875,-0.11517047882080078,-0.030075669288635254,-0.11133279651403427
1761486766941353700,3.868353759765625,-0.05622100830078125,-0.04986393451690674,-0.10986306518316269
1761486766958187500,3.8851875,0.0035810470581054688,-0.07941162586212158,-0.09518131613731384
1761486766975011300,3.90201123046875,-0.011323928833007812,-0.11397898197174072,-0.07165631651878357
1761486766991857700,3.918857666015625,-0.06232166290283203,-0.14113199710845947,-0.06095486879348755
1761486767008649500,3.9356494140625,-0.12058448791503906,-0.1424926519393921,-0.07487815618515015
1761486767025460700,3.952460693359375,-0.16790485382080078,-0.15089702606201172,-0.046140044927597046
1761486767042282000,3.969281982421875,-0.20902633666992188,-0.14678609371185303,-0.018281519412994385
1761486767059129300,3.98612939453125,-0.1832590103149414,-0.14050626754760742,-0.014350980520248413
1761486767075951400,4.002951416015625,-0.111053466796875,-0.13987839221954346,-0.025911614298820496
1761486767092782800,4.019782958984375,-0.060837745666503906,-0.1627669334411621,-0.011640593409538269
1761486767109618400,4.036618408203125,-0.07462310791015625,-0.1632786989212036,0.005189940333366394
1761486767126416400,4.05341650390625,-0.09339714050292969,-0.14282190799713135,-0.011094748973846436
1761486767143253500,4.07025341796875,-0.08565044403076172,-0.12037086486816406,-0.01464107632637024
1761486767160086300,4.087086181640625,-0.13450145721435547,-0.09758663177490234,-0.001229122281074524
1761486767176908300,4.103908203125,-0.1799602508544922,-0.09288358688354492,0.007878758013248444
1761486767193734700,4.120734619140625,-0.18137741088867188,-0.08142328262329102,0.029174424707889557
1761486767210560500,4.137560546875,-0.1051025390625,-0.06691563129425049,0.06721121817827225
1761486767227388200,4.15438818359375,-0.08725738525390625,-0.06874954700469971,0.028885960578918457
1761486767244222000,4.171221923828125,-0.07494735717773438,-0.05273878574371338,-0.007192544639110565
1761486767261056000,4.188055908203125,-0.05374431610107422,-0.029618024826049805,-0.028188802301883698
1761486767277862700,4.204862548828125,-0.005282402038574219,0.024403929710388184,-0.019135400652885437
1761486767294704000,4.2217041015625,0.06721878051757812,0.028629064559936523,-0.044800981879234314
1761486767311529200,4.238529296875,0.14645957946777344,0.04556405544281006,-0.08635161817073822
1761486767328355300,4.255355224609375,0.21724891662597656,0.05203843116760254,-0.0830312967300415
1761486767345177000,4.272177001953125,0.23193740844726562,0.05002892017364502,-0.08672025799751282
1761486767362015000,4.289014892578125,0.29004669189453125,0.05021870136260986,-0.10754187405109406
1761486767378833200,4.305833251953125,0.24656009674072266,0.02361476421356201,-0.09743407368659973
1761486767395659300,4.3226591796875,0.1265554428100586,0.01058351993560791,-0.08801473677158356
1761486767412468700,4.33946875,-0.012887954711914062,0.03147459030151367,-0.06918490678071976
1761486767429307000,4.356306884765625,-0.09128284454345703,0.027717113494873047,0.005093690939247608
1761486767446142000,4.373141845703125,-0.09904098510742188,-0.010160207748413086,0.051226064562797546
1761486767462962200,4.389962158203125,-0.06673526763916016,-0.05845022201538086,0.018467897549271584
1761486767479788500,4.40678857421875,-0.0024366378784179688,-0.13266491889953613,-0.006267379969358444
1761486767496589000,4.423589111328125,-0.02724933624267578,-0.1841510534286499,0.017690248787403107
1761486767513426400,4.440426513671875,-0.1319599151611328,-0.2265186309814453,0.0437471941113472
1761486767530247200,4.4572470703125,-0.3185462951660156,-0.24142718315124512,0.02843983843922615
1761486767547078700,4.47407861328125,-0.48409271240234375,-0.20693731307983398,-0.004810314625501633
1761486767563908000,4.490908203125,-0.523773193359375,-0.17114293575286865,-0.06372807919979095
1761486767580730000,4.507730224609375,-0.3869743347167969,-0.19842958450317383,-0.09380428493022919
1761486767597558300,4.524558349609375,-0.21782207489013672,-0.24252092838287354,-0.1250089704990387
1761486767614378800,4.541378662109375,-0.12276172637939453,-0.24227559566497803,-0.10685674846172333
1761486767631208400,4.55820849609375,-0.10816097259521484,-0.25363218784332275,-0.046743400394916534
1761486767648033800,4.57503369140625,-0.10404491424560547,-0.20842266082763672,0.01514534279704094
1761486767664860000,4.59185986328125,-0.15529155731201172,-0.1640028953552246,0.017805740237236023
1761486767681686000,4.60868603515625,-0.21962833404541016,-0.12430620193481445,0.052792005240917206
1761486767698512000,4.625511962890625,-0.2352428436279297,-0.07684838771820068,0.07787337899208069
1761486767715354400,4.642354248046875,-0.2041006088256836,-0.03092825412750244,0.07505455613136292
1761486767732177400,4.659177490234375,-0.13528919219970703,-0.015766501426696777,0.0661955326795578
1761486767749003500,4.67600341796875,-0.04556083679199219,-0.019212841987609863,0.0770067572593689
1761486767765812700,4.692812744140625,0.019842147827148438,0.010299921035766602,0.06854573637247086
1761486767782634000,4.709634033203125,0.04274463653564453,0.03482544422149658,0.08466510474681854
1761486767799485000,4.72648486328125,0.03249359130859375,0.05411362648010254,0.09123902022838593
1761486767816290300,4.743290283203125,0.0351104736328125,0.0856163501739502,0.08486837893724442
1761486767833138200,4.76013818359375,0.04732990264892578,0.07334518432617188,0.06607682257890701
1761486767849939500,4.776939453125,0.04774284362792969,0.07477545738220215,0.04143619164824486
1761486767866786600,4.79378662109375,0.032233238220214844,0.08604156970977783,0.02702139876782894
1761486767883610000,4.810610107421875,0.04300689697265625,0.07538104057312012,0.025212014093995094
1761486767900436700,4.827436767578125,0.09760284423828125,0.06315040588378906,0.01772373542189598
1761486767917261600,4.844261474609375,0.09905529022216797,0.043761372566223145,0.0037752711214125156
1761486767934088000,4.861087890625,0.023681640625,0.03163433074951172,-0.01149411965161562
1761486767950914000,4.8779140625,-0.051758766174316406,0.051495909690856934,-0.04418966919183731
1761486767967734500,4.894734619140625,-0.10595417022705078,0.07441067695617676,-0.022287245839834213
1761486767984548400,4.91154833984375,-0.09193897247314453,0.06430959701538086,0.002577712759375572
1761486768001377800,4.928377685546875,-0.05573558807373047,0.054599642753601074,-0.014211810193955898
1761486768018190800,4.94519091796875,0.012281417846679688,0.01942622661590576,-0.030532151460647583
1761486768035033300,4.962033447265625,0.1362895965576172,-0.0007270574569702148,-0.019260497763752937
1761486768051852000,4.97885205078125,0.21942615509033203,-0.02924025058746338,0.023754483088850975
1761486768068681500,4.995681396484375,0.21137523651123047,-0.03492903709411621,0.04092615097761154
1761486768085524500,5.0125244140625,0.12456130981445312,-0.04301738739013672,0.07603618502616882
1761486768102330400,5.029330322265625,0.00376129150390625,-0.04831647872924805,0.11296052485704422
1761486768119159000,5.046158935546875,-0.11935234069824219,-0.0702657699584961,0.1492176055908203
1761486768135985200,5.062985107421875,-0.21568679809570312,-0.07150602340698242,0.1268000453710556
1761486768152811000,5.07981103515625,-0.2989940643310547,-0.08453547954559326,0.04293716698884964
1761486768169637000,5.09663720703125,-0.3466062545776367,-0.0742805004119873,-0.03556147962808609
1761486768186462500,5.11346240234375,-0.35559940338134766,-0.09238660335540771,-0.06208323314785957
1761486768203306200,5.13030615234375,-0.3209056854248047,-0.09771299362182617,-0.07835257798433304
1761486768220128800,5.147128662109375,-0.2926788330078125,-0.10293829441070557,-0.08700626343488693
1761486768236954600,5.16395458984375,-0.26450157165527344,-0.10166060924530029,-0.06208132952451706
1761486768253776600,5.180776611328125,-0.19222450256347656,-0.10132408142089844,-0.06145487353205681
1761486768270606300,5.1976064453125,-0.09131717681884766,-0.08693814277648926,-0.09024147689342499
1761486768287427800,5.214427734375,-0.05002117156982422,-0.06733191013336182,-0.1251598298549652
1761486768304262100,5.23126220703125,-0.044373512268066406,-0.04462015628814697,-0.11195177584886551
1761486768321083600,5.248083740234375,-0.039623260498046875,-0.029555082321166992,-0.07976508885622025
1761486768337910000,5.264909912109375,-0.024805068969726562,-0.0067365169525146484,-0.055730223655700684
1761486768354719200,5.28171923828125,0.029974937438964844,0.0135650634765625,0.022542018443346024
1761486768371558000,5.298557861328125,0.054108619689941406,0.009678840637207031,0.1059032678604126
1761486768388391400,5.315391357421875,0.08306598663330078,0.02437150478363037,0.09163112938404083
1761486768405211000,5.3322109375,0.08088874816894531,0.030470967292785645,0.051951274275779724
1761486768422025000,5.34902490234375,0.06364154815673828,0.002827763557434082,0.03507385030388832
1761486768438865700,5.36586572265625,0.04528617858886719,-0.006429910659790039,0.058542389422655106
1761486768455690500,5.3826904296875,0.015269279479980469,-0.021939754486083984,0.09214278310537338
1761486768472500000,5.3995,-0.04425334930419922,-0.029032468795776367,0.10227096080780029
1761486768489329000,5.416328857421875,-0.0768575668334961,-0.08580899238586426,0.12285132706165314
1761486768506155500,5.433155517578125,-0.094512939453125,-0.11536705493927002,0.09266257286071777
1761486768522980600,5.449980712890625,-0.08080196380615234,-0.11727333068847656,0.020934410393238068
1761486768539806700,5.466806640625,-0.03495216369628906,-0.12737607955932617,-0.037626851350069046
1761486768556632600,5.483632568359375,0.004329681396484375,-0.11976182460784912,-0.06855221092700958
1761486768573475800,5.500475830078125,0.056835174560546875,-0.10317182540893555,-0.08505133539438248
1761486768590280700,5.51728076171875,0.11667537689208984,-0.07562792301177979,-0.05312274768948555
1761486768607110400,5.5341103515625,0.1348562240600586,-0.05544710159301758,-0.01397697627544403
1761486768623936300,5.550936279296875,0.06243705749511719,-0.034058332443237305,0.0362020879983902
1761486768640762400,5.567762451171875,-0.030294418334960938,-0.008191943168640137,0.1091948002576828
1761486768657587700,5.584587646484375,-0.07604312896728516,0.02366650104522705,0.12849721312522888
1761486768674409700,5.60140966796875,-0.12283802032470703,0.04101824760437012,0.1257709115743637
1761486768691257000,5.618257080078125,-0.17039775848388672,0.07557904720306396,0.09854234009981155
1761486768708079900,5.635079833984375,-0.14849853515625,0.11926686763763428,0.0836387351155281
1761486768724905000,5.651905029296875,-0.0706338882446289,0.09713089466094971,0.08903457969427109
1761486768741727000,5.66872705078125,-0.0010461807250976562,0.08058357238769531,0.07578986883163452
1761486768758558500,5.685558349609375,0.012360572814941406,0.07869720458984375,0.05064831301569939
1761486768775383000,5.702383056640625,0.012198448181152344,0.057541608810424805,0.02078348770737648
1761486768792214800,5.71921484375,0.030351638793945312,0.06269752979278564,-0.04109783470630646
1761486768809029400,5.736029296875,0.05382061004638672,0.05427217483520508,-0.06649278104305267
1761486768825860600,5.752860595703125,0.08059215545654297,0.030002474784851074,-0.030442096292972565
1761486768842665000,5.7696650390625,0.1147909164428711,0.0025278329849243164,-0.028687279671430588
1761486768859512300,5.78651220703125,0.0789937973022461,-0.015229105949401855,-0.05145800858736038
1761486768876334600,5.80333447265625,0.028047561645507812,-0.02468693256378174,-0.07694044709205627
1761486768893168400,5.82016845703125,-0.005230903625488281,-0.039154767990112305,-0.09529624134302139
1761486768909979100,5.836979248046875,-0.019153594970703125,-0.056542038917541504,-0.0906568393111229
1761486768926799400,5.85379931640625,-0.011115074157714844,-0.08935427665710449,-0.0800056979060173
1761486768943641900,5.870641845703125,-0.02853679656982422,-0.08828938007354736,-0.0782594308257103
1761486768960465000,5.88746484375,-0.0687398910522461,-0.10051417350769043,-0.06181817874312401
1761486768977280300,5.9042802734375,-0.08628463745117188,-0.07894241809844971,-0.06534598022699356
1761486768994105900,5.92110595703125,-0.08623600006103516,-0.08695697784423828,-0.07500432431697845
1761486769010932000,5.937931884765625,-0.1490478515625,-0.1509568691253662,-0.07498271763324738
1761486769027757800,5.9547578125,-0.1260824203491211,-0.09385967254638672,-0.1423296332359314
1761486769044580900,5.971580810546875,-0.06576061248779297,-0.08744204044342041,-0.10598544031381607
1761486769061416000,5.988416015625,-0.012953758239746094,-0.13102078437805176,-0.007761124521493912
1761486769078232000,6.005232177734375,-0.03356742858886719,-0.10878276824951172,0.008151687681674957
1761486769095061500,6.0220615234375,-0.17216777801513672,-0.11041510105133057,-0.015105735510587692
1761486769111887600,6.0388876953125,-0.22949790954589844,-0.08401739597320557,-0.07640275359153748
1761486769128713000,6.055712890625,-0.21548843383789062,-0.06460046768188477,-0.08865581452846527
1761486769145526000,6.072526123046875,-0.08928966522216797,-0.0798259973526001,-0.038341224193573
1761486769162364700,6.08936474609375,0.012927055358886719,-0.08712232112884521,0.030947040766477585
1761486769179209000,6.106208984375,-0.013896942138671875,-0.09663534164428711,0.0833301767706871
1761486769196021800,6.123021728515625,-0.043720245361328125,-0.06342899799346924,0.09003618359565735
1761486769212864500,6.139864501953125,-0.09157466888427734,-0.05849182605743408,0.0981035977602005
1761486769229682400,6.156682373046875,-0.08549880981445312,-0.06741845607757568,0.08761368691921234
1761486769246508800,6.1735087890625,-0.07135200500488281,-0.0819087028503418,0.07923823595046997
1761486769263333600,6.190333740234375,-0.09055709838867188,-0.0841301679611206,0.07654327899217606
1761486769280159700,6.20715966796875,-0.16771316528320312,-0.05128765106201172,0.05416141077876091
1761486769296977700,6.223977783203125,-0.18088340759277344,-0.024837374687194824,0.05163734406232834
1761486769313816300,6.24081640625,-0.14285659790039062,-0.014071106910705566,0.02873223088681698
1761486769330641400,6.257641357421875,-0.04718208312988281,-0.010827183723449707,-0.01413713488727808
1761486769347446800,6.27444677734375,0.0047149658203125,-0.03510701656341553,-0.013285747729241848
1761486769364289500,6.29128955078125,0.04320335388183594,-0.03543710708618164,-0.0011678097071126103
1761486769381115600,6.30811572265625,0.06995868682861328,-0.036405205726623535,0.003220190526917577
1761486769397940500,6.3249404296875,0.050689697265625,-0.05640602111816406,0.01809467002749443
1761486769414752000,6.341751953125,0.0005807876586914062,-0.0576099157333374,0.024659065529704094
1761486769431593700,6.35859375,-0.0773611068725586,-0.06645119190216064,0.03283282369375229
1761486769448402700,6.375402587890625,-0.050620079040527344,-0.07004296779632568,0.06655002385377884
1761486769465227300,6.392227294921875,-0.08135318756103516,0.021503090858459473,0.09088081121444702
1761486769482057000,6.409056884765625,-0.06553459167480469,-0.04811227321624756,0.131119504570961
1761486769498882800,6.4258828125,-0.023952484130859375,-0.04672527313232422,0.06586620956659317
1761486769515712500,6.44271240234375,-0.005867958068847656,-0.07386040687561035,0.035048797726631165
1761486769532534500,6.459534423828125,-0.005995750427246094,-0.05523478984832764,0.005626702681183815
1761486769549360600,6.476360595703125,-0.04741191864013672,-0.038388967514038086,0.01027185283601284
1761486769566186500,6.4931865234375,-0.0877532958984375,-0.044774770736694336,0.04244642332196236
1761486769583012600,6.5100126953125,-0.1258535385131836,-0.037786006927490234,0.019663061946630478
1761486769599837200,6.526837158203125,-0.1572427749633789,-0.06425094604492188,0.0170656256377697
1761486769616649000,6.54364892578125,-0.17741775512695312,-0.0905987024307251,0.037799809128046036
1761486769633480200,6.560480224609375,-0.16141510009765625,-0.07885134220123291,0.011536076664924622
1761486769650314000,6.57731396484375,-0.15980911254882812,-0.0617372989654541,-0.03309013694524765
1761486769667154700,6.59415478515625,-0.1573801040649414,-0.043688178062438965,-0.05626382678747177
1761486769683981300,6.610981201171875,-0.07889080047607422,-0.06347167491912842,-0.0627206563949585
1761486769700777700,6.62777783203125,0.011916160583496094,-0.09124183654785156,-0.063573457300663
1761486769717634000,6.644634033203125,0.10128116607666016,-0.09799575805664062,-0.07000599801540375
1761486769734458400,6.661458251953125,0.12591838836669922,-0.07946491241455078,-0.06617757678031921
1761486769751284700,6.67828466796875,0.07491874694824219,-0.0855783224105835,-0.05424728989601135
1761486769768116000,6.695115966796875,0.00116729736328125,-0.06650710105895996,-0.06441740691661835
1761486769784932400,6.711932373046875,-0.05304431915283203,-0.07824981212615967,-0.04131220653653145
1761486769801761000,6.728760986328125,-0.07944393157958984,-0.06762063503265381,-0.017371252179145813
1761486769818590200,6.745590087890625,-0.12572765350341797,-0.04575824737548828,-0.0198923721909523
1761486769835411000,6.762410888671875,-0.1449127197265625,-0.035698771476745605,-0.02213219553232193
1761486769852244200,6.779244140625,-0.10878658294677734,-0.03663742542266846,-0.006700243800878525
1761486769869085000,6.7960849609375,-0.04545402526855469,-0.04641449451446533,0.012252528220415115
1761486769885892400,6.812892333984375,-0.03188896179199219,-0.057597994804382324,0.0037374980747699738
1761486769902718500,6.829718505859375,-0.03339385986328125,-0.04243755340576172,-0.03058307245373726
1761486769919520500,6.8465205078125,-0.043723106384277344,-0.018401145935058594,-0.0422840341925621
1761486769936366000,6.863365966796875,-0.051837921142578125,-0.009128451347351074,-0.010790597647428513
1761486769953182000,6.880181884765625,-0.04242706298828125,-0.035105228424072266,0.050721149891614914
1761486769970007800,6.8970078125,-0.04165458679199219,-0.029173970222473145,0.07484108209609985
1761486769986834200,6.913834228515625,-0.0974416732788086,-0.017646312713623047,0.0710538849234581
1761486770003659500,6.930659423828125,-0.11380672454833984,-0.03357970714569092,0.05169985070824623
1761486770020485600,6.947485595703125,-0.08217525482177734,-0.016576409339904785,0.03162769973278046
1761486770037298400,6.96429833984375,-0.015920639038085938,-0.021489858627319336,0.06962089240550995
1761486770054142000,6.981141845703125,0.052310943603515625,-0.04267740249633789,0.07562414556741714
1761486770070964200,6.997964111328125,0.011539459228515625,-0.039816975593566895,0.04147810861468315
1761486770087791900,7.0147919921875,-0.0841684341430664,-0.03930258750915527,0.022635743021965027
1761486770104615000,7.031614990234375,-0.14073562622070312,-0.02604854106903076,0.009861785918474197
1761486770121441300,7.048441162109375,-0.0996408462524414,-0.03571152687072754,0.01811615750193596
1761486770138266600,7.0652666015625,-0.0011196136474609375,-0.05116093158721924,0.019228193908929825
1761486770155110100,7.082110107421875,0.010583877563476562,-0.06124424934387207,-0.009219422936439514
1761486770171930600,7.0989306640625,-0.054503440856933594,-0.07357800006866455,-0.04255244508385658
1761486770188760000,7.115760009765625,-0.09054946899414062,-0.054378628730773926,-0.015097253024578094
1761486770205580800,7.132580810546875,-0.10390186309814453,-0.04353511333465576,0.03276553377509117
1761486770222413000,7.1494130859375,-0.08170318603515625,-0.054289937019348145,0.018187128007411957
1761486770239231700,7.166231689453125,-0.055764198303222656,-0.07923591136932373,-0.03935419023036957
1761486770256066600,7.183066650390625,-0.009156227111816406,-0.08650577068328857,-0.040002670139074326
1761486770272913000,7.199912841796875,0.0034761428833007812,-0.08686721324920654,-0.029978148639202118
1761486770289697000,7.216697021484375,0.010408401489257812,-0.08880364894866943,-0.001515943557024002
1761486770306535400,7.233535400390625,-0.010149002075195312,-0.06429159641265869,0.0348045714199543
1761486770323366700,7.25036669921875,-0.11431694030761719,-0.05764806270599365,0.08522097021341324
1761486770340194300,7.2671943359375,-0.16567325592041016,-0.05708348751068115,0.12207138538360596
1761486770357017600,7.284017578125,-0.1775531768798828,-0.04810643196105957,0.1449185311794281
1761486770373843200,7.30084326171875,-0.11995506286621094,-0.06461095809936523,0.1499132663011551
1761486770390666000,7.317666015625,-0.09084606170654297,-0.058835387229919434,0.09139750897884369
1761486770407497700,7.334497802734375,-0.10752201080322266,-0.05879199504852295,0.03011467307806015
1761486770424320800,7.35132080078125,-0.12278366088867188,-0.05403172969818115,-0.006713934242725372
1761486770441126700,7.368126708984375,-0.07957649230957031,-0.06367456912994385,0.004426922649145126
1761486770457962200,7.384962158203125,-0.006445884704589844,-0.08115720748901367,0.035194527357816696
1761486770474784500,7.401784423828125,0.06634712219238281,-0.07602179050445557,0.05136270821094513
1761486770491610600,7.418610595703125,0.047196388244628906,-0.0877981185913086,0.04601459205150604
1761486770508436700,7.435436767578125,0.01334381103515625,-0.06594789028167725,-0.002560950815677643
1761486770525262600,7.4522626953125,-0.038402557373046875,-0.05983102321624756,-0.031061552464962006
1761486770542088000,7.469087890625,-0.016851425170898438,-0.05663013458251953,-0.027534939348697662
1761486770558914300,7.485914306640625,0.011570930480957031,-0.044830322265625,-0.0008180141448974609
1761486770575740200,7.502740234375,-0.006510734558105469,-0.03244674205780029,0.034704893827438354
1761486770592566300,7.519566162109375,-0.012541770935058594,-0.03726077079772949,0.050211101770401
1761486770609391400,7.536391357421875,0.008748054504394531,-0.04974377155303955,0.055800117552280426
1761486770626204700,7.55320458984375,-0.008459091186523438,-0.05194592475891113,0.032956212759017944
1761486770643060700,7.570060791015625,-0.055504798889160156,-0.04145979881286621,-0.014700107276439667
1761486770659879200,7.586879150390625,-0.06939888000488281,-0.04785466194152832,-0.006369985640048981
1761486770676713000,7.603712890625,-0.04914665222167969,-0.062407612800598145,0.023046158254146576
1761486770693520000,7.620519775390625,-0.03867626190185547,-0.07351934909820557,0.06048665940761566
1761486770710361000,7.637361083984375,-0.022447586059570312,-0.08151519298553467,0.011555232107639313
1761486770727193600,7.654193603515625,-0.022574424743652344,-0.07174956798553467,-0.07227818667888641
1761486770744005600,7.671005615234375,-0.04412841796875,-0.1032867431640625,-0.08627679944038391
1761486770760824300,7.68782421875,-0.07519149780273438,-0.10196113586425781,-0.066171795129776
1761486770777664300,7.704664306640625,-0.11726760864257812,-0.05950915813446045,-0.026713509112596512
1761486770794470100,7.72147021484375,-0.1429271697998047,-0.03926587104797363,0.010428160429000854
1761486770811320000,7.738320068359375,-0.1325817108154297,-0.054808974266052246,-0.01153145357966423
1761486770828142300,7.755142333984375,-0.1121072769165039,-0.028427839279174805,-0.02787647396326065
1761486770844968000,7.771968017578125,-0.07070732116699219,-0.013283848762512207,0.0018258467316627502
1761486770861794000,7.7887939453125,-0.008637428283691406,0.000016689300537109375,0.05532533675432205
1761486770878620200,7.8056201171875,0.016768455505371094,-0.011371254920959473,0.06447644531726837
1761486770895445800,7.82244580078125,0.03437519073486328,-0.008432984352111816,0.05214174836874008
1761486770912271600,7.839271728515625,-0.003978729248046875,-0.006960034370422363,0.06060262769460678
1761486770929094400,7.856094482421875,-0.04282569885253906,-0.02679276466369629,0.06600390374660492
1761486770945908500,7.872908447265625,-0.0780181884765625,-0.011188626289367676,0.0555424690246582
1761486770962736400,7.889736328125,-0.058264732360839844,-0.005618572235107422,0.014845386147499084
1761486770979559400,7.906559326171875,-0.045006752014160156,-0.006040692329406738,-0.02049800381064415
1761486770996390000,7.923389892578125,-0.050902366638183594,-0.026628732681274414,-0.0276225283741951
1761486771013212700,7.940212646484375,-0.04451560974121094,-0.041832685470581055,-0.009633354842662811
1761486771030034700,7.95703466796875,-0.03611946105957031,-0.06045198440551758,0.01130010187625885
1761486771046865000,7.973864990234375,-0.06949996948242188,-0.052710533142089844,-0.007991194725036621
1761486771063691000,7.99069091796875,-0.1294994354248047,-0.05703306198120117,-0.009436346590518951
1761486771080516400,8.007516357421874,-0.11069965362548828,-0.042835354804992676,-0.015440426766872406
1761486771097329700,8.02432958984375,-0.1046438217163086,-0.049262046813964844,-0.023135140538215637
1761486771114168600,8.04116845703125,-0.07815170288085938,-0.06873834133148193,-0.04488237574696541
1761486771131011800,8.05801171875,-0.03987693786621094,-0.08447265625,-0.057242535054683685
1761486771147833600,8.07483349609375,0.025804519653320312,-0.08681535720825195,-0.058854587376117706
1761486771164659700,8.09165966796875,0.0490264892578125,-0.07491791248321533,-0.07992173731327057
1761486771181485800,8.10848583984375,0.025498390197753906,-0.0804893970489502,-0.05490683764219284
1761486771198296300,8.12529638671875,-0.01461029052734375,-0.081695556640625,-0.028213798999786377
1761486771215137500,8.142137451171875,-0.0027379989624023438,-0.0616382360458374,-0.002163603901863098
1761486771231964200,8.158964111328125,0.0026159286499023438,-0.07176029682159424,0.0643804594874382
1761486771248789500,8.17578955078125,-0.03147315979003906,-0.05480062961578369,0.08968711644411087
1761486771265611800,8.19261181640625,-0.10063552856445312,-0.050492286682128906,0.09055320918560028
1761486771282445000,8.209445068359376,-0.14401626586914062,-0.056113362312316895,0.04059070348739624
1761486771299267000,8.22626708984375,-0.20087718963623047,-0.06934285163879395,0.03510484844446182
1761486771316097500,8.24309765625,-0.27764225006103516,-0.06963872909545898,0.06836271286010742
1761486771332914200,8.2599140625,-0.35490989685058594,-0.038635849952697754,0.08047374337911606
1761486771349728500,8.276728515625,-0.3182668685913086,-0.01874232292175293,0.0851198062300682
1761486771366570500,8.293570556640624,-0.1362895965576172,-0.06649494171142578,0.10248813033103943
1761486771383363300,8.31036328125,0.05537986755371094,-0.09848165512084961,0.06769419461488724
1761486771400222500,8.327222412109375,0.13267230987548828,-0.06389248371124268,-0.018206290900707245
1761486771417048000,8.344048095703124,0.20217323303222656,-0.11080002784729004,-0.01059114933013916
1761486771433857000,8.36085693359375,0.2105236053466797,-0.08259010314941406,-0.01266460120677948
1761486771450675700,8.37767578125,0.15820884704589844,-0.08752119541168213,-0.005463309586048126
1761486771467512300,8.39451220703125,0.06622982025146484,-0.08328843116760254,-0.005395315587520599
1761486771484337700,8.411337646484375,-0.033926963806152344,-0.08055543899536133,-0.0047635361552238464
1761486771501164000,8.4281640625,-0.13454818725585938,-0.049839019775390625,-0.01908252388238907
1761486771517990000,8.444989990234374,-0.1498870849609375,-0.03888869285583496,-0.03326350450515747
1761486771534816000,8.46181591796875,-0.11304473876953125,-0.02789151668548584,-0.06183577701449394
1761486771551641300,8.478641357421875,-0.09274673461914062,-0.04315447807312012,-0.032375674694776535
1761486771568466000,8.4954658203125,-0.0970449447631836,-0.04971456527709961,-0.013303659856319427
1761486771585293300,8.512293212890626,-0.0780630111694336,-0.039830684661865234,-0.00696331262588501
1761486771602121200,8.529121337890626,-0.06781673431396484,-0.021770358085632324,-0.024834685027599335
1761486771618932000,8.545931884765626,-0.08928394317626953,-0.011804938316345215,-0.030866801738739014
1761486771635780900,8.56278076171875,-0.11553192138671875,-0.024991273880004883,-0.033473387360572815
1761486771652610600,8.579610595703125,-0.10934925079345703,-0.024014711380004883,-0.032827965915203094
1761486771669424600,8.596424560546875,-0.0888528823852539,-0.018187284469604492,-0.0203615203499794
1761486771686261800,8.61326171875,-0.054177284240722656,-0.02841496467590332,0.006470877677202225
1761486771703078700,8.63007861328125,-0.02450275421142578,-0.0328059196472168,-0.022683247923851013
1761486771719916800,8.646916748046875,-0.036225318908691406,-0.02695786952972412,-0.054053325206041336
1761486771736737300,8.6637373046875,0.009839057922363281,-0.05327892303466797,-0.06465937197208405
1761486771753565700,8.680565673828125,0.09156417846679688,-0.06800627708435059,-0.054348789155483246
1761486771770391600,8.6973916015625,0.13354873657226562,-0.08303284645080566,-0.02578818053007126
1761486771787217700,8.7142177734375,0.08582210540771484,-0.07408761978149414,-0.039108775556087494
1761486771804044000,8.7310439453125,-0.010428428649902344,-0.06464529037475586,-0.03644942864775658
1761486771820869000,8.747869140625,-0.08561420440673828,-0.05787253379821777,-0.01333699095994234
1761486771837695500,8.764695556640625,-0.1056528091430664,-0.05568361282348633,0.0028303656727075577
1761486771854521000,8.78152099609375,-0.09103775024414062,-0.05369460582733154,0.013034915551543236
1761486771871339000,8.798339111328126,-0.06440353393554688,-0.06766712665557861,0.0666172206401825
1761486771888179200,8.81517919921875,-0.08437061309814453,-0.06293630599975586,0.10253261029720306
1761486771905001700,8.832001708984375,-0.10311031341552734,-0.04578197002410889,0.08983508497476578
1761486771921807600,8.8488076171875,-0.09735679626464844,-0.043212294578552246,0.06488971412181854
1761486771938637000,8.865636962890624,-0.07259273529052734,-0.0600130558013916,0.040377177298069
1761486771955460000,8.882460205078125,-0.0363616943359375,-0.07370162010192871,0.05184289067983627
1761486771972291000,8.899291015625,-0.012537956237792969,-0.052800536155700684,0.05996367335319519
1761486771989114400,8.9161142578125,-0.060626983642578125,-0.04716384410858154,0.06542272120714188
1761486772005941000,8.93294091796875,-0.07485580444335938,-0.03670775890350342,0.08458709716796875
1761486772022766000,8.94976611328125,-0.07184791564941406,-0.02737116813659668,0.1076032817363739
1761486772039592200,8.96659228515625,-0.07307052612304688,-0.009046077728271484,0.08547896146774292
1761486772056418000,8.98341796875,-0.094207763671875,-0.029214024543762207,0.07455173134803772
1761486772073231000,9.000231201171875,-0.07147216796875,-0.03329789638519287,0.06465522944927216
1761486772090069800,9.01706982421875,-0.04875946044921875,-0.02430570125579834,0.036404408514499664
1761486772106913000,9.0339130859375,-0.045169830322265625,-0.010085105895996094,0.020771166309714317
1761486772123735300,9.0507353515625,-0.06324195861816406,0.0050046443939208984,-0.005073152482509613
1761486772140545000,9.067544921875,-0.0735321044921875,-0.024939298629760742,-0.023321568965911865
1761486772157387000,9.084386962890624,-0.006542205810546875,-0.037137746810913086,-0.04923439025878906
1761486772174212900,9.101212890625,0.051970481872558594,-0.025357961654663086,-0.050331294536590576
1761486772191039000,9.1180390625,0.021327972412109375,-0.03200650215148926,-0.06381850689649582
1761486772207850000,9.13485009765625,-0.032245635986328125,-0.0355222225189209,-0.08669349551200867
1761486772224690200,9.151690185546874,-0.07832717895507812,-0.030335664749145508,-0.09448783844709396
1761486772241511000,9.168510986328124,-0.056888580322265625,-0.029118061065673828,-0.06277003884315491
1761486772258345200,9.18534521484375,-0.04441547393798828,-0.05729317665100098,-0.015210995450615883
1761486772275174400,9.20217431640625,-0.018899917602539062,-0.058245062828063965,0.008477479219436646
1761486772291993000,9.2189931640625,-0.007800102233886719,-0.05761313438415527,8.847564458847046e-7
1761486772308804600,9.2358046875,-0.05578899383544922,-0.07205748558044434,-0.020901303738355637
1761486772325633800,9.2526337890625,-0.04136943817138672,-0.0687798261642456,-0.01904239133000374
1761486772342462500,9.26946240234375,-0.038924217224121094,-0.07683408260345459,-0.015546761453151703
1761486772359297500,9.286297607421876,-0.078643798828125,-0.1026080846786499,0.00974937342107296
1761486772376123400,9.303123291015625,-0.12715530395507812,-0.11410999298095703,0.008374689146876335
1761486772392949800,9.31994970703125,-0.12301349639892578,-0.11763584613800049,-0.011781636625528336
1761486772409758700,9.3367587890625,-0.10410118103027344,-0.12478291988372803,-0.05519457161426544
1761486772426587400,9.35358740234375,-0.06539154052734375,-0.13519322872161865,-0.022066086530685425
1761486772443413500,9.37041357421875,-0.0901947021484375,-0.15131938457489014,0.06931822001934052
1761486772460239400,9.3872392578125,-0.1439228057861328,-0.17306303977966309,0.021764449775218964
1761486772477065500,9.4040654296875,-0.1451425552368164,-0.09408152103424072,-0.10607881844043732
1761486772493890800,9.420890869140624,-0.1177530288696289,-0.17369425296783447,-0.09845889359712601
1761486772510717200,9.43771728515625,-0.032184600830078125,-0.2227417230606079,-0.0619284026324749
1761486772527538700,9.45453857421875,0.1144113540649414,-0.17308998107910156,-0.09254840016365051
1761486772544369200,9.471369140625,0.028463363647460938,-0.1262836456298828,-0.09666971117258072
1761486772561194200,9.4881943359375,-0.16396617889404297,-0.09729468822479248,-0.036295317113399506
1761486772578020900,9.505020751953126,-0.30103302001953125,-0.03880786895751953,-0.006985959596931934
1761486772594863600,9.521863525390625,-0.17759990692138672,-0.05208110809326172,0.06022141873836517
1761486772611686400,9.538686279296876,0.00004291534423828125,-0.055139899253845215,0.005076294764876366
1761486772628511500,9.555511474609375,0.1512002944946289,-0.07191669940948486,-0.019666751846671104
1761486772645337900,9.572337890625,0.15898513793945312,-0.07168149948120117,0.006893690675497055
