time,seconds_elapsed,z,y,x
1761486908663980000,0.22897998046875,0.057610511779785156,0.12655013799667358,0.05040745437145233
1761486908680794000,0.245794189453125,-0.0026941299438476562,0.10153710842132568,0.10025518387556076
1761486908697615000,0.262614990234375,0.0027103424072265625,0.07739800214767456,0.11652357876300812
1761486908714453200,0.279453369140625,0.017518997192382812,0.07903456687927246,0.13360261917114258
1761486908731286500,0.29628662109375,-0.0005731582641601562,0.050234973430633545,0.15933087468147278
1761486908748093000,0.313093017578125,-0.06879711151123047,0.06881129741668701,0.14876866340637207
1761486908764940500,0.3299404296875,-0.11779499053955078,0.08075869083404541,0.09080924093723297
1761486908781752800,0.3467529296875,-0.12391376495361328,0.1101839542388916,0.071940578520298
1761486908798584800,0.363584716796875,-0.13910865783691406,0.07892358303070068,0.08207368850708008
1761486908815411200,0.3804111328125,-0.10878753662109375,0.08979189395904541,0.07308204472064972
1761486908832222700,0.39722265625,-0.09210205078125,0.06566095352172852,0.07196812331676483
1761486908849058000,0.41405810546875,-0.04870033264160156,0.06394016742706299,0.10735654830932617
1761486908865891000,0.43089111328125,-0.021706581115722656,0.0679771900177002,0.1135983020067215
1761486908882713000,0.447713134765625,-0.027406692504882812,0.07106208801269531,0.11064319312572479
1761486908899534300,0.464534423828125,-0.0737466812133789,0.06232738494873047,0.10803921520709991
1761486908916364000,0.481364013671875,-0.09055709838867188,0.042902469635009766,0.09358376264572144
1761486908933173000,0.498173095703125,-0.09808349609375,0.006767630577087402,0.03626765310764313
1761486908949999000,0.5149990234375,-0.11794471740722656,0.03908860683441162,-0.0426352322101593
1761486908966836500,0.53183642578125,-0.3112936019897461,0.09935903549194336,0.09346066415309906
1761486908983670500,0.54867041015625,-0.16663265228271484,0.13421714305877686,0.26439231634140015
1761486909000491500,0.565491455078125,0.034008026123046875,0.11870622634887695,0.28018122911453247
1761486909017317400,0.5823173828125,0.011547088623046875,0.10319733619689941,0.2894224524497986
1761486909034142700,0.599142822265625,-0.058556556701660156,0.0517956018447876,0.2180885225534439
1761486909050968800,0.61596875,-0.1123199462890625,0.047878265380859375,0.10044489800930023
1761486909067794000,0.6327939453125,-0.16284561157226562,0.044068217277526855,0.0670962780714035
1761486909084616000,0.649615966796875,-0.07933998107910156,-0.01100611686706543,0.10746514797210693
1761486909101428700,0.6664287109375,0.1378955841064453,0.00674283504486084,0.05107961595058441
1761486909118256000,0.683256103515625,0.20711803436279297,0.017436742782592773,-0.05472949147224426
1761486909135082500,0.70008251953125,0.014359474182128906,-0.022487163543701172,-0.07865752279758453
1761486909151908400,0.716908447265625,-0.027802467346191406,-0.0005527734756469727,-0.14795929193496704
1761486909168733700,0.733733642578125,-0.03968334197998047,-0.0013390779495239258,-0.12087257206439972
1761486909185559300,0.750559326171875,0.05149364471435547,-0.019481778144836426,0.0046992227435112
1761486909202401800,0.76740185546875,-0.050258636474609375,0.011177778244018555,0.05521024763584137
1761486909219224600,0.784224609375,-0.1288280487060547,0.04254412651062012,0.07601229846477509
1761486909236050000,0.8010498046875,-0.14964962005615234,0.02035844326019287,0.12116764485836029
1761486909252884000,0.817884033203125,-0.07898807525634766,0.01192319393157959,0.1808246523141861
1761486909269698000,0.834697998046875,-0.0903615951538086,-0.0150679349899292,0.2074292004108429
1761486909286529300,0.851529296875,-0.26601600646972656,-0.04041886329650879,0.1865503489971161
1761486909303349800,0.868349853515625,-0.44042205810546875,0.006838440895080566,0.04347136989235878
1761486909320177700,0.885177734375,-0.5322408676147461,0.08457756042480469,-0.015740513801574707
1761486909337002500,0.90200244140625,-0.42156314849853516,0.04772055149078369,0.04941483587026596
1761486909353829000,0.9188291015625,-0.3223686218261719,0.04959976673126221,0.12373414635658264
1761486909370654200,0.935654296875,-0.2456035614013672,0.005778074264526367,0.22058385610580444
1761486909387463200,0.952463134765625,-0.12305641174316406,0.0077741146087646484,0.24809271097183228
1761486909404300800,0.96930078125,-0.03445625305175781,0.007652640342712402,0.2024403065443039
1761486909421135400,0.98613525390625,-0.05190086364746094,-0.008425593376159668,0.14783604443073273
1761486909437951200,1.002951171875,-0.17172813415527344,0.0002868175506591797,0.13210128247737885
1761486909454787000,1.019787109375,-0.2969837188720703,0.05329787731170654,0.1237502247095108
1761486909471607000,1.03660693359375,-0.1974315643310547,0.0768047571182251,0.11016950011253357
1761486909488429800,1.053429931640625,-0.061921119689941406,0.06460988521575928,0.21022532880306244
1761486909505262800,1.070262939453125,-0.005198478698730469,0.0805196762084961,0.30817675590515137
1761486909522083800,1.087083740234375,-0.07467174530029297,0.10445308685302734,0.28216278553009033
1761486909538910200,1.10391015625,-0.13319015502929688,0.11248433589935303,0.19249632954597473
1761486909555731500,1.1207314453125,-0.06922245025634766,0.10992801189422607,0.11045977473258972
1761486909572565000,1.13756494140625,-0.01993560791015625,0.11994445323944092,0.08990034461021423
1761486909589369900,1.154369873046875,0.09563827514648438,0.1337813138961792,0.07637587189674377
1761486909606198000,1.171197998046875,0.11256599426269531,0.1283787488937378,0.10488680005073547
1761486909623024400,1.1880244140625,0.03579139709472656,0.1417008638381958,0.170567125082016
1761486909639847200,1.20484716796875,-0.019243240356445312,0.17770600318908691,0.16659316420555115
1761486909656675000,1.221675048828125,-0.053885459899902344,0.17209875583648682,0.15618851780891418
1761486909673500200,1.238500244140625,-0.123809814453125,0.1575559377670288,0.12129563093185425
1761486909690343400,1.255343505859375,-0.13473796844482422,0.1783444881439209,0.13625812530517578
1761486909707161600,1.27216162109375,-0.10592460632324219,0.18476760387420654,0.1367746889591217
1761486909723978500,1.288978515625,-0.049874305725097656,0.18584942817687988,0.12602561712265015
1761486909740814600,1.305814697265625,0.039238929748535156,0.14013946056365967,0.15775316953659058
1761486909757644300,1.322644287109375,0.06225109100341797,0.10875403881072998,0.17688709497451782
1761486909774467800,1.3394677734375,0.0331573486328125,0.11897921562194824,0.09841164946556091
1761486909791293200,1.356293212890625,-0.042476654052734375,0.10146045684814453,0.052876561880111694
1761486909808120800,1.373120849609375,-0.10139274597167969,0.08399462699890137,0.07925450801849365
1761486909824925400,1.389925537109375,-0.1536388397216797,0.1005396842956543,0.11732476949691772
1761486909841748700,1.406748779296875,-0.13041400909423828,0.08829796314239502,0.14519000053405762
1761486909858595300,1.42359521484375,-0.06731319427490234,0.0876690149307251,0.11474615335464478
1761486909875411000,1.440410888671875,-0.02304363250732422,0.07570433616638184,0.09568458795547485
1761486909892246800,1.457246826171875,0.0034084320068359375,0.07763183116912842,0.09830838441848755
1761486909909072100,1.474072021484375,0.006688117980957031,0.06674909591674805,0.08877071738243103
1761486909925875700,1.490875732421875,0.008152961730957031,0.05099904537200928,0.09871962666511536
1761486909942718000,1.507718017578125,-0.006608009338378906,0.040436387062072754,0.08525112271308899
1761486909959554300,1.52455419921875,-0.05193328857421875,0.04238009452819824,0.0851161777973175
1761486909976374000,1.5413740234375,-0.06760215759277344,0.037177085876464844,0.12655016779899597
1761486909993199900,1.558199951171875,-0.08769989013671875,0.041452884674072266,0.18411791324615479
1761486910010021000,1.575021240234375,-0.09189987182617188,0.04803109169006348,0.20757964253425598
1761486910026856700,1.591856689453125,-0.11936283111572266,0.04531848430633545,0.2166222631931305
1761486910043674600,1.608674560546875,-0.06362724304199219,0.06462371349334717,0.22249191999435425
1761486910060502500,1.62550244140625,-0.022274017333984375,0.056816816329956055,0.2061518430709839
1761486910077309700,1.642309814453125,-0.048583030700683594,0.06557905673980713,0.1670907735824585
1761486910094140000,1.659139892578125,-0.0756063461303711,0.04946482181549072,0.14763811230659485
1761486910110964700,1.67596484375,-0.0940561294555664,0.0481104850769043,0.16343414783477783
1761486910127777300,1.69277734375,-0.0888671875,0.07860493659973145,0.17082521319389343
1761486910144616000,1.709615966796875,-0.103363037109375,0.07710564136505127,0.18898743391036987
1761486910161441800,1.72644189453125,-0.1322002410888672,0.06279945373535156,0.1830049455165863
1761486910178270700,1.743270751953125,-0.17777061462402344,0.06439578533172607,0.14784792065620422
1761486910195104800,1.760104736328125,-0.17203330993652344,0.08501982688903809,0.10339823365211487
1761486910211930400,1.776930419921875,-0.1511402130126953,0.07251715660095215,0.12556159496307373
1761486910228757800,1.7937578125,-0.1401348114013672,0.06938207149505615,0.17484146356582642
1761486910245569800,1.81056982421875,-0.1010427474975586,0.07678759098052979,0.19596081972122192
1761486910262388500,1.827388427734375,-0.08023262023925781,0.05093681812286377,0.2081359624862671
1761486910279233800,1.84423388671875,-0.06804084777832031,0.056723952293395996,0.1863037347793579
1761486910296060200,1.86106005859375,-0.051666259765625,0.04810440540313721,0.13929197192192078
1761486910312865000,1.877864990234375,-0.0395965576171875,0.01620316505432129,0.0797395408153534
1761486910329715000,1.89471484375,-0.040612220764160156,0.012832283973693848,0.0031239688396453857
1761486910346532400,1.911532470703125,-0.10255050659179688,0.015621542930603027,-0.011827528476715088
1761486910363350000,1.92835009765625,-0.13725852966308594,0.023156404495239258,0.043583959341049194
1761486910380187400,1.9451875,-0.16065692901611328,0.04449629783630371,0.08339935541152954
1761486910397013200,1.96201318359375,-0.19950580596923828,0.08026766777038574,0.0756792426109314
1761486910413822500,1.978822509765625,-0.15436840057373047,0.06543946266174316,0.06865125894546509
1761486910430664200,1.995664306640625,-0.05419731140136719,0.04199230670928955,0.011874407529830933
1761486910447468500,2.012468505859375,0.019086837768554688,0.03572964668273926,-0.022356271743774414
1761486910464320000,2.029320068359375,0.005274772644042969,0.024563193321228027,0.0022805631160736084
1761486910481140500,2.046140380859375,0.022185325622558594,0.031324148178100586,0.056516170501708984
1761486910497931000,2.062930908203125,0.004923820495605469,0.04805803298950195,0.08921018242835999
1761486910514795300,2.079795166015625,-0.04461097717285156,0.06541323661804199,0.0858222246170044
1761486910531617300,2.0966171875,-0.07602500915527344,0.06400895118713379,0.08497780561447144
1761486910548423200,2.113423095703125,-0.07069587707519531,0.06510496139526367,0.09874382615089417
1761486910565255200,2.130255126953125,-0.0658407211303711,0.07536399364471436,0.12418156862258911
1761486910582086100,2.147086181640625,-0.04855537414550781,0.08769333362579346,0.1314222812652588
1761486910598905900,2.16390576171875,-0.03624534606933594,0.06845557689666748,0.10691538453102112
1761486910615731500,2.1807314453125,-0.007129669189453125,0.08744645118713379,0.068613201379776
1761486910632557300,2.197557373046875,-0.03243255615234375,0.08185994625091553,0.06482231616973877
1761486910649382700,2.214382568359375,-0.040493011474609375,0.09637057781219482,0.0676126480102539
1761486910666208300,2.231208251953125,-0.02857685089111328,0.09335815906524658,0.0823034942150116
1761486910683050500,2.248050537109375,-0.03964710235595703,0.08649253845214844,0.0834830105304718
1761486910699869400,2.264869384765625,-0.07116222381591797,0.08762109279632568,0.07562261819839478
1761486910716705000,2.281705078125,-0.08689117431640625,0.09570837020874023,0.06123536825180054
1761486910733521700,2.298521728515625,-0.08524322509765625,0.1054009199142456,0.05606967210769653
1761486910750328800,2.315328857421875,-0.11966228485107422,0.10207116603851318,0.06327754259109497
1761486910767166000,2.332166015625,-0.18475341796875,0.11100685596466064,0.07428967952728271
1761486910784000000,2.349,-0.18207740783691406,0.09314882755279541,0.08142849802970886
1761486910800822800,2.36582275390625,-0.13167190551757812,0.07003152370452881,0.09520760178565979
1761486910817655600,2.382655517578125,-0.033820152282714844,0.05901944637298584,0.08065849542617798
1761486910834464000,2.399464111328125,0.013072967529296875,0.042150259017944336,0.048209547996520996
1761486910851302700,2.416302734375,0.02288055419921875,0.010770201683044434,0.026429325342178345
1761486910868128300,2.433128173828125,-0.008357048034667969,0.0016448497772216797,0.014793813228607178
1761486910884949800,2.44994970703125,-0.057804107666015625,0.019703388214111328,-0.008131563663482666
1761486910901783600,2.466783447265625,-0.11486339569091797,0.023337960243225098,0.028998464345932007
1761486910918605000,2.48360498046875,-0.14362144470214844,0.009608983993530273,0.09767010807991028
1761486910935430400,2.500430419921875,-0.1691608428955078,0.031161904335021973,0.11931344866752625
1761486910952239900,2.517239990234375,-0.20246219635009766,0.0583873987197876,0.11288219690322876
1761486910969082400,2.534082275390625,-0.13949871063232422,0.0568697452545166,0.10846233367919922
1761486910985907200,2.5509072265625,-0.003979682922363281,0.03997182846069336,0.12353360652923584
1761486911002732800,2.56773291015625,0.07673072814941406,0.040247440338134766,0.13931035995483398
1761486911019557400,2.584557373046875,0.03810882568359375,0.07568442821502686,0.12947803735733032
1761486911036385300,2.60138525390625,-0.037322998046875,0.0873873233795166,0.13011899590492249
1761486911053192700,2.618192626953125,-0.0501556396484375,0.09328949451446533,0.17115479707717896
1761486911070021400,2.635021484375,-0.019454002380371094,0.0984112024307251,0.2054092288017273
1761486911086846500,2.651846435546875,0.011820793151855469,0.1151193380355835,0.1855945587158203
1761486911103672800,2.6686728515625,-0.031172752380371094,0.11311769485473633,0.17556694149971008
1761486911120498000,2.685497802734375,-0.1393442153930664,0.12260961532592773,0.16117793321609497
1761486911137323500,2.702323486328125,-0.17702579498291016,0.13719987869262695,0.15910384058952332
1761486911154133800,2.7191337890625,-0.14672470092773438,0.16360795497894287,0.1775134801864624
1761486911170989600,2.735989501953125,-0.10973072052001953,0.1601024866104126,0.18198633193969727
1761486911187816200,2.752816162109375,-0.09120845794677734,0.1364508867263794,0.18340981006622314
1761486911204626400,2.76962646484375,-0.069854736328125,0.12998688220977783,0.1552550494670868
1761486911221460500,2.78646044921875,-0.053114891052246094,0.11792254447937012,0.12378016114234924
1761486911238295000,2.803294921875,-0.007172584533691406,0.09636318683624268,0.08973443508148193
1761486911255140000,2.82014013671875,0.024855613708496094,0.08574795722961426,0.07177823781967163
1761486911271938000,2.83693798828125,-0.03675270080566406,0.10758435726165771,0.061620354652404785
1761486911288770300,2.853770263671875,-0.06842327117919922,0.12323009967803955,0.057467758655548096
1761486911305560000,2.87056005859375,-0.06468772888183594,0.1260204315185547,0.05069953203201294
1761486911322414300,2.887414306640625,-0.09519767761230469,0.11377716064453125,0.04002693295478821
1761486911339222500,2.904222412109375,-0.10858535766601562,0.12950778007507324,0.04894593358039856
1761486911356052200,2.92105224609375,-0.11191654205322266,0.1397397518157959,0.0731220543384552
1761486911372891400,2.937891357421875,-0.060118675231933594,0.1343766450881958,0.1114804744720459
1761486911389724200,2.95472412109375,-0.04900074005126953,0.11243367195129395,0.1412051022052765
1761486911406549000,2.971549072265625,-0.09786510467529297,0.12406396865844727,0.1319655478000641
1761486911423371300,2.988371337890625,-0.1598672866821289,0.1347353458404541,0.10790255665779114
1761486911440197000,3.005197021484375,-0.15036392211914062,0.12508010864257812,0.1036292314529419
1761486911457022500,3.0220224609375,-0.0725698471069336,0.09137427806854248,0.08234462141990662
1761486911473844700,3.0388447265625,-0.053107261657714844,0.0534442663192749,0.03861919045448303
1761486911490676700,3.0556767578125,-0.07631587982177734,0.04146397113800049,0.04063081741333008
1761486911507499800,3.072499755859375,-0.1143960952758789,0.03201436996459961,0.061696410179138184
1761486911524324600,3.08932470703125,-0.08701419830322266,0.04261946678161621,0.07092040777206421
1761486911541133600,3.106133544921875,-0.03231239318847656,0.048484086990356445,0.04202243685722351
1761486911557962000,3.1229619140625,-0.049132347106933594,0.0032906532287597656,0.02337053418159485
1761486911574788000,3.1397880859375,-0.008194923400878906,-0.009062051773071289,-0.01133650541305542
1761486911591600000,3.15660009765625,0.04213142395019531,-0.01572132110595703,-0.04392117261886597
1761486911608425500,3.173425537109375,0.0897369384765625,-0.018454790115356445,-0.03151729702949524
1761486911625265200,3.19026513671875,0.07871150970458984,0.004155874252319336,0.009642571210861206
1761486911642089000,3.2070888671875,-0.006937980651855469,0.002656698226928711,0.034032464027404785
1761486911658951200,3.223951171875,-0.0963735580444336,0.014470338821411133,0.027606934309005737
1761486911675755000,3.240755126953125,-0.14724159240722656,0.03288912773132324,0.031135916709899902
1761486911692577000,3.257576904296875,-0.17920589447021484,0.04608762264251709,0.05256512761116028
1761486911709408300,3.274408203125,-0.1746826171875,0.05925142765045166,0.08620333671569824
1761486911726231300,3.291231201171875,-0.16002750396728516,0.06112313270568848,0.09489396214485168
1761486911743070200,3.3080703125,-0.1356334686279297,0.07338809967041016,0.09448829293251038
1761486911759881500,3.324881591796875,-0.17531585693359375,0.10956382751464844,0.1049986481666565
1761486911776687600,3.3416875,-0.21475982666015625,0.1307927370071411,0.10626959800720215
1761486911793537500,3.35853759765625,-0.21893978118896484,0.1338886022567749,0.13659951090812683
1761486911810338600,3.375338623046875,-0.11603546142578125,0.14698994159698486,0.16259852051734924
1761486911827167200,3.392167236328125,-0.015377998352050781,0.1373741626739502,0.19879049062728882
1761486911843998200,3.408998291015625,0.038448333740234375,0.12124133110046387,0.20138594508171082
1761486911860810500,3.425810546875,-0.01601123809814453,0.13339221477508545,0.1818487048149109
1761486911877647000,3.442647216796875,-0.08814048767089844,0.1702488660812378,0.16897553205490112
1761486911894473000,3.459472900390625,-0.10799503326416016,0.17865824699401855,0.20587489008903503
1761486911911298800,3.476298828125,-0.1063241958618164,0.1884467601776123,0.21993184089660645
1761486911928124000,3.4931240234375,-0.08667755126953125,0.15643858909606934,0.18652141094207764
1761486911944949500,3.509949462890625,-0.020873069763183594,0.16140389442443848,0.0856444239616394
1761486911961778200,3.526778076171875,-0.006621360778808594,0.1292576789855957,-0.0034076273441314697
1761486911978609000,3.54360888671875,-0.011251449584960938,0.11243391036987305,-0.08108553290367126
1761486911995445500,3.560445556640625,0.0007848739624023438,0.11191046237945557,-0.07970654964447021
1761486912012265500,3.577265380859375,-0.020012855529785156,0.13556420803070068,-0.03268146514892578
1761486912029074000,3.594073974609375,-0.07381534576416016,0.13573873043060303,0.036855071783065796
1761486912045902800,3.61090283203125,-0.09672832489013672,0.11516225337982178,0.07903671264648438
1761486912062728700,3.627728759765625,-0.07614326477050781,0.09470629692077637,0.08859339356422424
1761486912079550700,3.64455078125,-0.06474971771240234,0.07197821140289307,0.05707812309265137
1761486912096372500,3.66137255859375,-0.06088542938232422,0.05798232555389404,0.04310306906700134
1761486912113201000,3.678200927734375,-0.11873626708984375,0.07493424415588379,0.07410907745361328
1761486912130031400,3.69503125,-0.13175010681152344,0.10292339324951172,0.09723430871963501
1761486912146862600,3.711862548828125,-0.14797115325927734,0.08555042743682861,0.1311633586883545
1761486912163691000,3.72869091796875,-0.17107486724853516,0.0472491979598999,0.15648910403251648
1761486912180525000,3.745525146484375,-0.1402425765991211,0.014727354049682617,0.11757123470306396
1761486912197346300,3.76234619140625,-0.05765724182128906,0.009726524353027344,0.058667004108428955
1761486912214168800,3.7791689453125,0.0590362548828125,0.005274653434753418,0.03162044286727905
1761486912231000000,3.796,0.11334419250488281,0.0056688785552978516,0.039415597915649414
1761486912247823600,3.81282373046875,0.04184722900390625,0.004994511604309082,0.04371368885040283
1761486912264644400,3.829644287109375,-0.11128807067871094,0.01961541175842285,0.04860192537307739
1761486912281478100,3.84647802734375,-0.21792125701904297,0.03625345230102539,0.06865853071212769
1761486912298299400,3.86329931640625,-0.2263050079345703,0.04675900936126709,0.12313765287399292
1761486912315125500,3.88012548828125,-0.1903362274169922,0.06060373783111572,0.10936757922172546
1761486912331950600,3.89695068359375,-0.15434741973876953,0.08333659172058105,0.06737300753593445
1761486912348757500,3.913757568359375,-0.12578773498535156,0.10204851627349854,0.0407794713973999
1761486912365599500,3.930599609375,-0.09929656982421875,0.10493361949920654,0.04869672656059265
1761486912382434300,3.947434326171875,-0.10306835174560547,0.12662255764007568,0.09593525528907776
1761486912399252500,3.96425244140625,-0.11436271667480469,0.17419397830963135,0.15119501948356628
1761486912416074200,3.98107421875,-0.09930801391601562,0.1937422752380371,0.20011714100837708
1761486912432907500,3.997907470703125,-0.09967613220214844,0.19805073738098145,0.20990914106369019
1761486912449713200,4.014713134765625,-0.011261940002441406,0.19378435611724854,0.19601860642433167
1761486912466555000,4.031554931640625,0.09815692901611328,0.15014135837554932,0.15791374444961548
1761486912483380500,4.04838037109375,0.14158344268798828,0.1484384536743164,0.07599413394927979
1761486912500204300,4.065204345703125,0.09876537322998047,0.143324613571167,0.035849958658218384
1761486912517016300,4.082016357421875,0.09617042541503906,0.10912597179412842,0.0745338499546051
1761486912533843200,4.09884326171875,0.09148883819580078,0.11213564872741699,0.10131362080574036
1761486912550666200,4.115666259765625,-0.011782646179199219,0.09886825084686279,0.11425551772117615
1761486912567496700,4.13249658203125,-0.13596820831298828,0.08678066730499268,0.1167382299900055
1761486912584320500,4.149320556640625,-0.19309234619140625,0.07734239101409912,0.092583566904068
1761486912601145600,4.1661455078125,-0.1620502471923828,0.051688551902770996,0.10831847786903381
1761486912617983000,4.18298291015625,-0.10983085632324219,0.02379894256591797,0.11401447653770447
1761486912634793000,4.19979296875,-0.11997509002685547,0.018987298011779785,0.1196560263633728
1761486912651642600,4.216642578125,-0.10646247863769531,0.013679742813110352,0.112206369638443
1761486912668461000,4.2334609375,-0.10570526123046875,0.0013134479522705078,0.1061122715473175
1761486912685286700,4.25028662109375,-0.10887908935546875,-0.016597628593444824,0.1000601053237915
1761486912702095400,4.267095458984375,-0.15653705596923828,0.0010304450988769531,0.08654046058654785
1761486912718903600,4.283903564453125,-0.16913795471191406,0.007201671600341797,0.0659441351890564
1761486912735768600,4.3007685546875,-0.13477230072021484,0.0035552978515625,0.06884428858757019
1761486912752589000,4.317589111328125,-0.09915447235107422,0.009729266166687012,0.09261283278465271
1761486912769398000,4.33439794921875,-0.11161327362060547,0.039153099060058594,0.07864612340927124
1761486912786240500,4.351240478515625,-0.11613750457763672,0.046120524406433105,0.04956820607185364
1761486912803061800,4.368061767578125,-0.10895061492919922,0.0380173921585083,0.06990215182304382
1761486912819886600,4.384886474609375,-0.07535076141357422,0.056063055992126465,0.12027415633201599
1761486912836719000,4.401718994140625,-0.07809257507324219,0.0862576961517334,0.1366226077079773
1761486912853538600,4.41853857421875,-0.08697700500488281,0.11143827438354492,0.12546035647392273
1761486912870371800,4.435371826171875,-0.11368656158447266,0.0977325439453125,0.12438786029815674
1761486912887193000,4.452193115234375,-0.12097740173339844,0.07021987438201904,0.08181595802307129
1761486912903986200,4.468986083984375,-0.08031749725341797,0.08528649806976318,0.051651209592819214
1761486912920844800,4.4858447265625,0.013461112976074219,0.08354640007019043,0.07276046276092529
1761486912937669600,4.502669677734375,0.042548179626464844,0.0843421220779419,0.10900983214378357
1761486912954492000,4.519491943359375,-0.02925872802734375,0.0802452564239502,0.09931778907775879
1761486912971320800,4.53632080078125,-0.12949752807617188,0.08946824073791504,0.07113084197044373
1761486912988150800,4.55315087890625,-0.12361717224121094,0.09654521942138672,0.07788929343223572
1761486913004954600,4.56995458984375,-0.05948925018310547,0.08498740196228027,0.094872385263443
1761486913021783800,4.58678369140625,0.008019447326660156,0.0629950761795044,0.08939787745475769
1761486913038605800,4.603605712890625,0.006918907165527344,0.0693979263305664,0.061934590339660645
1761486913055438300,4.620438232421875,-0.009370803833007812,0.05261528491973877,0.0641164481639862
1761486913072260400,4.63726025390625,-0.03492927551269531,0.051313161849975586,0.05816030502319336
1761486913089086000,4.6540859375,-0.06575679779052734,0.05220818519592285,0.06402623653411865
1761486913105908200,4.670908203125,-0.11093521118164062,0.0682215690612793,0.04972299933433533
1761486913122724900,4.687724853515625,-0.1513071060180664,0.0668492317199707,0.05094757676124573
1761486913139582000,4.70458203125,-0.18359088897705078,0.05532264709472656,0.07013362646102905
1761486913156402000,4.72140185546875,-0.16185760498046875,0.06910669803619385,0.08694300055503845
1761486913173218800,4.73821875,-0.16627788543701172,0.05846226215362549,0.10561227798461914
1761486913190053000,4.75505322265625,-0.07780265808105469,0.04974353313446045,0.11285385489463806
1761486913206878200,4.771878173828125,-0.012424468994140625,0.047411441802978516,0.1257876753807068
1761486913223701200,4.788701171875,0.07398128509521484,0.028963685035705566,0.10444942116737366
1761486913240514800,4.805514892578125,0.055866241455078125,0.03185558319091797,0.08187267184257507
1761486913257355500,4.82235546875,0.02061939239501953,0.0522313117980957,0.04141959547996521
1761486913274180600,4.8391806640625,-0.06465530395507812,0.03636777400970459,0.043496131896972656
1761486913291005700,4.856005615234375,-0.12949371337890625,0.038926124572753906,0.03983885049819946
1761486913307852500,4.8728525390625,-0.19257164001464844,0.047652482986450195,0.06065911054611206
1761486913324640800,4.889640869140625,-0.21141338348388672,0.024079203605651855,0.09732630848884583
1761486913341476400,4.906476318359375,-0.15888023376464844,0.02482020854949951,0.10365533828735352
1761486913358308000,4.92330810546875,-0.12679290771484375,0.015561461448669434,0.08698722720146179
1761486913375140400,4.940140380859375,-0.13852500915527344,0.04105401039123535,0.06543505191802979
1761486913391955700,4.956955810546875,-0.1494159698486328,0.06351888179779053,0.06346067786216736
1761486913408787000,4.973786865234375,-0.0691061019897461,0.06621730327606201,0.06984773278236389
1761486913425610000,4.99060986328125,0.0209808349609375,0.038146018981933594,0.09348428249359131
1761486913442435600,5.007435546875,0.059345245361328125,0.03375422954559326,0.0943605899810791
1761486913459257600,5.024257568359375,0.05520343780517578,0.05721724033355713,0.06686997413635254
1761486913476091000,5.0410908203125,0.042949676513671875,0.08962178230285645,0.0760703980922699
1761486913492891000,5.057890869140625,-0.004639625549316406,0.11001622676849365,0.08378249406814575
1761486913509727000,5.07472705078125,-0.0754556655883789,0.10029888153076172,0.10083666443824768
1761486913526549800,5.0915498046875,-0.0958242416381836,0.11684846878051758,0.10500448942184448
1761486913543375400,5.108375244140625,-0.08724117279052734,0.11370539665222168,0.11406558752059937
1761486913560200700,5.12520068359375,-0.055016517639160156,0.10220420360565186,0.12258666753768921
1761486913577026000,5.142026123046875,-0.060555458068847656,0.10220634937286377,0.11046212911605835
1761486913593852000,5.158851806640625,-0.10722637176513672,0.10467588901519775,0.0632917582988739
1761486913610677500,5.175677490234375,-0.14160919189453125,0.11528050899505615,0.05733299255371094
1761486913627519700,5.192519775390625,-0.11313915252685547,0.10258543491363525,0.08167049288749695
1761486913644342000,5.209342041015625,-0.06080818176269531,0.0914754867553711,0.0882466733455658
1761486913661167600,5.226167724609375,-0.024143218994140625,0.08630144596099854,0.06343117356300354
1761486913677993700,5.24299365234375,-0.007071495056152344,0.07108891010284424,0.03954938054084778
1761486913694818800,5.25981884765625,0.010636329650878906,0.07063174247741699,0.033574044704437256
1761486913711640300,5.276640380859375,-0.011487007141113281,0.05554664134979248,0.06365081667900085
1761486913728466700,5.293466796875,-0.0535430908203125,0.059256792068481445,0.061881810426712036
1761486913745284900,5.310284912109375,-0.0769796371459961,0.04062092304229736,0.045274436473846436
1761486913762107000,5.32710693359375,-0.04283714294433594,0.035558223724365234,0.04810875654220581
1761486913778932200,5.34393212890625,-0.06295108795166016,0.031798362731933594,0.04370662569999695
1761486913795758600,5.360758544921875,-0.10827064514160156,0.03784584999084473,0.04962897300720215
1761486913812583700,5.377583740234375,-0.143218994140625,0.024677515029907227,0.07263001799583435
1761486913829409000,5.394408935546875,-0.09283924102783203,0.0328904390335083,0.10559162497520447
1761486913846260700,5.4112607421875,-0.05946636199951172,0.023942947387695312,0.11695584654808044
1761486913863072300,5.428072265625,-0.07456016540527344,0.017163395881652832,0.08566546440124512
1761486913879921700,5.444921630859375,-0.09261322021484375,0.024721980094909668,0.061352312564849854
1761486913896713200,5.461713134765625,-0.09952735900878906,0.022724032402038574,0.09465771913528442
1761486913913533400,5.478533447265625,-0.13299083709716797,0.05082523822784424,0.09477099776268005
1761486913930376700,5.495376708984375,-0.16920185089111328,0.0602489709854126,0.08418744802474976
1761486913947201500,5.512201416015625,-0.15288829803466797,0.052699923515319824,0.07879894971847534
1761486913964027000,5.52902685546875,-0.11833477020263672,0.040975213050842285,0.06750869750976562
1761486913980835600,5.545835693359375,-0.07703495025634766,0.04370236396789551,0.06466516852378845
1761486913997661400,5.562661376953125,-0.08193302154541016,0.039240360260009766,0.06188422441482544
1761486914014493200,5.5794931640625,-0.10578632354736328,0.039603590965270996,0.048070281744003296
1761486914031315500,5.5963154296875,-0.11088752746582031,0.0650324821472168,0.05629649758338928
1761486914048140800,5.613140869140625,-0.09317398071289062,0.07335317134857178,0.09068578481674194
1761486914064966700,5.629966552734375,-0.052761077880859375,0.06585085391998291,0.11323472857475281
1761486914081792000,5.6467919921875,-0.033733367919921875,0.03979611396789551,0.1323736011981964
1761486914098617300,5.663617431640625,-0.020087242126464844,0.05276012420654297,0.11149832606315613
1761486914115446300,5.6804462890625,-0.059510231018066406,0.0934070348739624,0.0971548855304718
1761486914132283000,5.697282958984375,-0.10494422912597656,0.11486566066741943,0.10939398407936096
1761486914149108200,5.714108154296875,-0.08481502532958984,0.12501418590545654,0.1420781910419464
1761486914165933300,5.730933349609375,-0.06928253173828125,0.12699878215789795,0.16099339723587036
1761486914182733000,5.747733154296875,-0.0937051773071289,0.12880825996398926,0.16702991724014282
1761486914199581000,5.764580810546875,-0.11382102966308594,0.1564866304397583,0.1571032702922821
1761486914216414000,5.7814140625,-0.09824943542480469,0.16219592094421387,0.14989545941352844
1761486914233212400,5.79821240234375,-0.051627159118652344,0.16390395164489746,0.11589288711547852
1761486914250044000,5.8150439453125,-0.069549560546875,0.16407060623168945,0.06511032581329346
1761486914266886700,5.83188671875,-0.05886268615722656,0.16532361507415771,0.018416643142700195
1761486914283712000,5.8487119140625,0.006627082824707031,0.14543890953063965,0.003489971160888672
1761486914300537000,5.865537109375,0.07970619201660156,0.12247824668884277,0.023944348096847534
1761486914317342500,5.882342529296875,0.08837890625,0.10384654998779297,0.006852835416793823
1761486914334188800,5.899188720703125,-0.02031421661376953,0.10172319412231445,-0.050664812326431274
1761486914351015400,5.916015380859375,-0.09881877899169922,0.08954823017120361,-0.07685026526451111
1761486914367842300,5.93284228515625,-0.08729076385498047,0.0801628828048706,-0.0680096447467804
1761486914384650000,5.94964990234375,-0.02411651611328125,0.06130850315093994,-0.035390764474868774
1761486914401491000,5.966490966796875,0.015065193176269531,-0.0006284713745117188,0.07144156098365784
1761486914418318600,5.983318603515625,-0.023713111877441406,0.008565425872802734,0.11965394020080566
1761486914435140900,6.000140869140625,-0.10668087005615234,0.007655501365661621,0.11975479125976562
1761486914451948000,6.016947998046875,-0.058730125427246094,-0.004220724105834961,0.09131431579589844
1761486914468779300,6.033779296875,-0.051303863525390625,-0.0291975736618042,0.10988757014274597
1761486914485599000,6.050598876953125,-0.04564857482910156,-0.04986679553985596,0.08946436643600464
1761486914502420700,6.067420654296875,-0.12624073028564453,-0.06465494632720947,0.07390090823173523
1761486914519255600,6.084255615234375,-0.20482635498046875,-0.05170488357543945,0.07797297835350037
1761486914536081700,6.10108154296875,-0.20335769653320312,-0.039563655853271484,0.09919083118438721
1761486914552906500,6.117906494140625,-0.1905040740966797,-0.03481781482696533,0.11426877975463867
1761486914569732400,6.134732421875,-0.20322036743164062,-0.03334951400756836,0.11556273698806763
1761486914586557400,6.151557373046875,-0.21102333068847656,-0.005492448806762695,0.07910916209220886
1761486914603384300,6.16838427734375,-0.19487953186035156,-0.0010907649993896484,0.04395514726638794
1761486914620225800,6.185225830078125,-0.13149261474609375,0.0011208057403564453,0.05349653959274292
1761486914637047800,6.2020478515625,-0.11713314056396484,0.01876091957092285,0.060394883155822754
1761486914653873700,6.218873779296875,-0.12387371063232422,0.049378395080566406,0.07813963294029236
1761486914670679000,6.235678955078125,-0.11255168914794922,0.088431715965271,0.10460308194160461
1761486914687528700,6.25252880859375,-0.028244972229003906,0.12032842636108398,0.12453603744506836
1761486914704331800,6.269331787109375,0.04218482971191406,0.1149207353591919,0.10154646635055542
1761486914721161000,6.286160888671875,0.05478954315185547,0.12297940254211426,0.08997660875320435
1761486914737985000,6.302985107421875,0.022504806518554688,0.12665116786956787,0.08619135618209839
1761486914754816800,6.319816650390625,0.002277374267578125,0.14338338375091553,0.08814257383346558
1761486914771652400,6.33665234375,0.03612995147705078,0.16448283195495605,0.11757874488830566
1761486914788477200,6.353477294921875,0.04055500030517578,0.15930521488189697,0.14742159843444824
1761486914805282800,6.37028271484375,0.007138252258300781,0.1538066864013672,0.15178194642066956
1761486914822133000,6.387133056640625,-0.028272628784179688,0.14319729804992676,0.12538820505142212
1761486914838954000,6.4039541015625,-0.019853591918945312,0.12009680271148682,0.11669409275054932
1761486914855779300,6.420779296875,0.012970924377441406,0.10926127433776855,0.09282755851745605
1761486914872606000,6.43760595703125,-0.0026836395263671875,0.09409570693969727,0.08964851498603821
1761486914889430500,6.454430419921875,-0.1068887710571289,0.10308361053466797,0.08133870363235474
1761486914906256600,6.471256591796875,-0.15377044677734375,0.11422848701477051,0.07858473062515259
1761486914923060700,6.488060791015625,-0.13730812072753906,0.0867234468460083,0.056406497955322266
1761486914939909600,6.50490966796875,-0.08754920959472656,0.042021989822387695,0.025586038827896118
1761486914956718000,6.521718017578125,-0.09178829193115234,0.019274234771728516,0.014236748218536377
1761486914973544700,6.538544677734375,-0.08797836303710938,0.019276976585388184,0.003447234630584717
1761486914990368500,6.555368408203125,-0.027008056640625,0.009359121322631836,0.007122308015823364
1761486915007194600,6.572194580078125,-0.011504173278808594,-0.022060513496398926,0.02967396378517151
1761486915024008400,6.589008544921875,-0.07133960723876953,-0.029453277587890625,0.025036543607711792
1761486915040850000,6.605849853515625,-0.1138601303100586,-0.014126896858215332,0.05018126964569092
1761486915057672200,6.622672119140625,-0.07004928588867188,-0.03319418430328369,0.0638454258441925
1761486915074498000,6.639498046875,-0.02891254425048828,-0.03029000759124756,0.07496774196624756
1761486915091323100,6.6563232421875,-0.08681488037109375,-0.02701544761657715,0.08606034517288208
1761486915108162000,6.673162109375,-0.12383460998535156,-0.012699484825134277,0.10240763425827026
1761486915124987600,6.689987548828125,-0.07438850402832031,-0.019588947296142578,0.13081037998199463
1761486915141815600,6.706815673828125,-0.010809898376464844,-0.02420341968536377,0.17061588168144226
1761486915158637800,6.723637939453125,-0.014348983764648438,-0.013843059539794922,0.16507920622825623
1761486915175464700,6.740464599609375,-0.06630229949951172,-0.02040278911590576,0.14995232224464417
1761486915192278000,6.757278076171875,-0.0931406021118164,-0.0026177167892456055,0.1227145791053772
1761486915209116200,6.7741162109375,-0.10293197631835938,0.014551639556884766,0.1279403269290924
1761486915225918500,6.79091845703125,-0.12145042419433594,0.017053604125976562,0.1416890025138855
1761486915242767000,6.80776708984375,-0.1092996597290039,0.023572325706481934,0.12982258200645447
1761486915259588900,6.8245888671875,-0.10385513305664062,0.02122795581817627,0.104143887758255
1761486915276421400,6.84142138671875,-0.1021890640258789,0.030829429626464844,0.09226998686790466
1761486915293223700,6.8582236328125,-0.13971900939941406,0.0285111665725708,0.09638810157775879
1761486915310068500,6.875068359375,-0.17975997924804688,0.032021522521972656,0.10394003987312317
1761486915326870000,6.8918701171875,-0.1639404296875,0.06912291049957275,0.09903883934020996
1761486915343727600,6.9087275390625,-0.07746696472167969,0.08261680603027344,0.13187795877456665
1761486915360526300,6.9255263671875,0.00038242340087890625,0.07199454307556152,0.14063185453414917
1761486915377373200,6.942373291015625,0.0001964569091796875,0.043366074562072754,0.11474597454071045
1761486915394183400,6.959183349609375,-0.017980575561523438,0.03628969192504883,0.06187015771865845
1761486915411022000,6.97602197265625,0.003482818603515625,0.06074321269989014,0.04450666904449463
1761486915427847700,6.99284765625,0.029117584228515625,0.05973160266876221,0.05022338032722473
1761486915444645600,7.009645751953125,0.004300117492675781,0.046401023864746094,0.05731213092803955
1761486915461484500,7.026484619140625,-0.039603233337402344,0.03798031806945801,0.038918137550354004
1761486915478310700,7.043310546875,-0.07310962677001953,0.04488873481750488,0.0260983407497406
1761486915495136000,7.060135986328125,-0.08858489990234375,0.031090259552001953,0.03280085325241089
1761486915511961300,7.07696142578125,-0.08396339416503906,0.03145170211791992,0.024896979331970215
1761486915528767000,7.09376708984375,-0.10289478302001953,0.03696024417877197,0.003600478172302246
1761486915545598700,7.1105986328125,-0.15261363983154297,0.04620957374572754,0.018949240446090698
1761486915562440200,7.127440185546875,-0.13546276092529297,0.06322765350341797,0.023958861827850342
1761486915579263200,7.14426318359375,-0.09068965911865234,0.058855652809143066,0.044873982667922974
1761486915596101600,7.1611015625,-0.07103443145751953,0.04385054111480713,0.03417745232582092
1761486915612912000,7.177912109375,-0.0852203369140625,0.04570901393890381,0.0015898942947387695
1761486915629743000,7.1947431640625,-0.07618331909179688,0.0480269193649292,-0.021871209144592285
1761486915646579700,7.211579833984375,-0.040633201599121094,0.055872559547424316,-0.014619678258895874
1761486915663404800,7.22840478515625,-0.06495189666748047,0.05819666385650635,0.01010739803314209
1761486915680230700,7.245230712890625,-0.05591011047363281,0.05935823917388916,0.04074999690055847
1761486915697051600,7.2620517578125,-0.031149864196777344,0.06530547142028809,0.07591012120246887
1761486915713885400,7.278885498046875,-0.019176483154296875,0.056118130683898926,0.08080577850341797
1761486915730706700,7.295706787109375,-0.04433441162109375,0.04418683052062988,0.06848549842834473
1761486915747532500,7.312532470703125,-0.0717611312866211,0.049765586853027344,0.061286747455596924
1761486915764353800,7.329353759765625,-0.07245922088623047,0.04881107807159424,0.0793825089931488
1761486915781184000,7.34618408203125,-0.055909156799316406,0.041846394538879395,0.10307732224464417
1761486915798012400,7.363012451171875,-0.06978702545166016,0.03601980209350586,0.11823701858520508
1761486915814834400,7.37983447265625,-0.0892333984375,0.030092477798461914,0.14152279496192932
1761486915831656700,7.39665673828125,-0.09262943267822266,0.050711989402770996,0.18774253129959106
1761486915848489000,7.413489013671875,-0.10686874389648438,0.056357622146606445,0.2504056692123413
1761486915865311000,7.43031103515625,-0.14122295379638672,0.08104598522186279,0.2783540189266205
1761486915882136300,7.44713623046875,-0.15559959411621094,0.09904563426971436,0.22696614265441895
1761486915898953500,7.463953369140625,-0.12178897857666016,0.09327518939971924,0.14785495400428772
1761486915915777800,7.48077783203125,-0.07605266571044922,0.05325198173522949,0.12372758984565735
1761486915932595700,7.497595703125,-0.07131576538085938,0.044229984283447266,0.1066490113735199
1761486915949412400,7.514412353515625,-0.05897998809814453,0.0355527400970459,0.05861103534698486
1761486915966250200,7.531250244140625,-0.06298542022705078,0.03529369831085205,0.04929226636886597
1761486915983074600,7.548074462890625,-0.07729148864746094,0.02513289451599121,0.04405531287193298
1761486915999902200,7.564902099609375,-0.08717727661132812,0.00902855396270752,0.010105937719345093
1761486916016722700,7.58172265625,-0.10934925079345703,-0.02581942081451416,-0.023356914520263672
1761486916033556700,7.598556640625,-0.10950565338134766,-0.02326178550720215,-0.04712170362472534
1761486916050378200,7.615378173828125,-0.1204538345336914,-0.020920753479003906,-0.03936198353767395
1761486916067203000,7.632203125,-0.15192222595214844,-0.0015347003936767578,-0.010414481163024902
1761486916084032800,7.64903271484375,-0.1855630874633789,0.0008745193481445312,0.02757689356803894
1761486916100868000,7.6658681640625,-0.17548274993896484,-0.008525371551513672,0.03728044033050537
1761486916117693700,7.682693603515625,-0.13732051849365234,0.02737867832183838,0.06119602918624878
1761486916134491400,7.699491455078125,-0.10865116119384766,0.030236005783081055,0.07584205269813538
1761486916151345000,7.716344970703125,-0.040581703186035156,0.04339253902435303,0.06837129592895508
1761486916168169500,7.73316943359375,-0.02534198760986328,0.026473164558410645,0.020778149366378784
1761486916184992300,7.7499921875,-0.010875701904296875,0.019430994987487793,-0.01983720064163208
1761486916201813500,7.7668134765625,0.010686874389648438,0.01801884174346924,-0.0425085723400116
1761486916218646800,7.783646728515625,0.03378009796142578,0.010615944862365723,-0.0358009934425354
1761486916235468300,7.80046826171875,0.038303375244140625,0.01884293556213379,-0.03173542022705078
1761486916252297000,7.817296875,0.01890277862548828,0.018671512603759766,-0.035784393548965454
1761486916269115000,7.834114990234375,0.009883880615234375,0.025777459144592285,-0.03537482023239136
1761486916285952500,7.850952392578125,0.010943412780761719,0.03321051597595215,-0.029420197010040283
1761486916302759400,7.867759521484375,-0.0189208984375,0.0322728157043457,-0.03731602430343628
1761486916319599900,7.884599853515625,-0.0562591552734375,0.025552868843078613,-0.04873046278953552
1761486916336425000,7.901425048828125,-0.08888816833496094,0.03540647029876709,-0.05627211928367615
1761486916353251000,7.9182509765625,-0.0804910659790039,0.04506111145019531,-0.030628085136413574
1761486916370076400,7.935076416015625,-0.04910564422607422,0.05139589309692383,0.009761244058609009
1761486916386901800,7.95190185546875,-0.038514137268066406,0.0670619010925293,0.018185138702392578
1761486916403710500,7.96871044921875,-0.06727981567382812,0.07792091369628906,0.00935429334640503
1761486916420536000,7.9855361328125,-0.07082557678222656,0.08178269863128662,0.04145851731300354
1761486916437364700,8.00236474609375,-0.08107376098632812,0.10943770408630371,0.07435208559036255
1761486916454190000,8.019190185546876,-0.0717325210571289,0.12846553325653076,0.1124413013458252
1761486916471012000,8.03601220703125,-0.03702735900878906,0.12763595581054688,0.11311846971511841
1761486916487844600,8.0528447265625,-0.04102134704589844,0.12591958045959473,0.10935434699058533
1761486916504666600,8.06966650390625,-0.06984519958496094,0.13315856456756592,0.12608593702316284
1761486916521492500,8.086492431640625,-0.08430957794189453,0.18113458156585693,0.1475386619567871
1761486916538317300,8.1033173828125,-0.08252906799316406,0.2125934362411499,0.1947619915008545
1761486916555145200,8.120145263671875,-0.05951499938964844,0.2354050874710083,0.24706164002418518
1761486916571968500,8.136968505859375,-0.08321094512939453,0.2355344295501709,0.2810898423194885
1761486916588811300,8.153811279296875,-0.07360267639160156,0.24284863471984863,0.2253509759902954
1761486916605632800,8.1706328125,0.01435089111328125,0.23335087299346924,0.1271095871925354
1761486916622444500,8.187444580078125,0.14555931091308594,0.17368698120117188,0.05226188898086548
1761486916639284700,8.20428466796875,0.2472829818725586,0.12479162216186523,0.02782464027404785
1761486916656109800,8.22110986328125,0.25312232971191406,0.05895829200744629,0.037006676197052
1761486916672921000,8.237921142578125,0.1551036834716797,0.03196430206298828,0.0016784965991973877
1761486916689761500,8.254761474609374,0.037860870361328125,0.00806736946105957,-0.009626984596252441
1761486916706586600,8.271586669921875,-0.056987762451171875,0.012006163597106934,-0.016206026077270508
1761486916723411500,8.288411376953125,-0.1333761215209961,-0.028275489807128906,0.011094093322753906
1761486916740238000,8.305238037109374,-0.1349191665649414,-0.05259108543395996,0.01589643955230713
1761486916757063700,8.322063720703126,-0.12033653259277344,-0.07438242435455322,0.003937810659408569
1761486916773888300,8.33888818359375,-0.16847801208496094,-0.08828699588775635,-0.005578339099884033
1761486916790710300,8.355710205078125,-0.20055103302001953,-0.0920114517211914,0.01135227084159851
1761486916807543600,8.37254345703125,-0.1789102554321289,-0.08005404472351074,0.026862621307373047
1761486916824365000,8.389364990234375,-0.16645431518554688,-0.06423640251159668,0.0522097647190094
1761486916841191000,8.40619091796875,-0.2283649444580078,-0.05101597309112549,0.05909740924835205
1761486916858012400,8.423012451171875,-0.23642444610595703,-0.049407362937927246,0.052480071783065796
1761486916874844700,8.4398447265625,-0.15764331817626953,-0.0724794864654541,0.0476299524307251
1761486916891667500,8.45666748046875,-0.04644298553466797,-0.052936553955078125,0.055383384227752686
1761486916908475400,8.473475341796876,-0.0290069580078125,-0.04554879665374756,0.07610782980918884
1761486916925304300,8.49030419921875,-0.09777259826660156,-0.025899410247802734,0.08279284834861755
1761486916942113300,8.50711328125,-0.17105960845947266,-0.003377079963684082,0.08069312572479248
1761486916958956300,8.523956298828125,-0.1880474090576172,0.010162591934204102,0.08224934339523315
1761486916975766000,8.54076611328125,-0.10936737060546875,0.0001456737518310547,0.08704608678817749
1761486916992587500,8.55758740234375,0.005816459655761719,-0.024374008178710938,0.06571093201637268
1761486917009431800,8.574431884765625,0.043056488037109375,-0.005982875823974609,0.05529630184173584
1761486917026257700,8.591257568359374,-0.03022003173828125,0.020461082458496094,0.08123433589935303
1761486917043081200,8.608081298828125,-0.09422492980957031,0.03228425979614258,0.13866165280342102
1761486917059910400,8.624910400390625,-0.12523269653320312,0.03080010414123535,0.18409723043441772
1761486917076738800,8.64173876953125,-0.1368999481201172,0.02570343017578125,0.2130434811115265
1761486917093573400,8.658573486328125,-0.11184978485107422,0.02801346778869629,0.17698103189468384
1761486917110395000,8.675394775390625,-0.09908294677734375,0.025589823722839355,0.11712530255317688
1761486917127223300,8.692223388671875,-0.07845783233642578,0.008086681365966797,0.05700403451919556
1761486917144037600,8.70903759765625,-0.0032625198364257812,-0.011072039604187012,-0.017916172742843628
1761486917160877800,8.7258779296875,0.06453418731689453,-0.03629899024963379,-0.03980723023414612
1761486917177696800,8.74269677734375,0.030332565307617188,-0.04754281044006348,-0.014827519655227661
1761486917194525200,8.759525146484375,-0.07335853576660156,-0.03066849708557129,-0.017550557851791382
1761486917211351800,8.776351806640625,-0.1732769012451172,0.009045600891113281,-0.015794098377227783
1761486917228170000,8.793169921875,-0.1651144027709961,0.04651927947998047,-0.013819366693496704
1761486917245011000,8.810010986328125,-0.08081817626953125,0.04920542240142822,-0.011142134666442871
1761486917261810000,8.826809814453124,0.006390571594238281,0.017590999603271484,0.03566020727157593
1761486917278654000,8.843654052734376,0.07822513580322266,0.009513378143310547,0.07097357511520386
1761486917295475700,8.860475830078125,0.04200553894042969,0.04794895648956299,0.06376796960830688
1761486917312309000,8.87730908203125,-0.06785297393798828,0.05749499797821045,0.02350306510925293
1761486917329130500,8.894130615234374,-0.18525409698486328,0.06081271171569824,0.0061492919921875
1761486917345939000,8.91093896484375,-0.24969100952148438,0.08013272285461426,0.02697122097015381
1761486917362765000,8.92776513671875,-0.29150390625,0.06614649295806885,0.05030903220176697
1761486917379603000,8.94460302734375,-0.2563152313232422,0.05849802494049072,0.02852359414100647
1761486917396419600,8.961419677734375,-0.19539451599121094,0.056304097175598145,0.0035718977451324463
1761486917413233200,8.978233154296875,-0.0774078369140625,0.05553627014160156,0.02858114242553711
1761486917430069800,8.99506982421875,0.034928321838378906,0.025938868522644043,0.019561022520065308
1761486917446895000,9.01189501953125,0.040500640869140625,0.015539050102233887,-0.022406429052352905
1761486917463720400,9.028720458984376,0.020124435424804688,0.028819680213928223,-0.04743430018424988
1761486917480528400,9.0455283203125,0.037133216857910156,0.01249086856842041,-0.03793758153915405
1761486917497372000,9.062371826171875,0.06363773345947266,0.01859116554260254,-0.009687960147857666
1761486917514197200,9.079197265625,0.07067584991455078,0.013792037963867188,0.027572065591812134
1761486917531022600,9.096022705078125,0.009792327880859375,0.006039261817932129,0.03641393780708313
1761486917547833300,9.112833251953125,-0.06145286560058594,0.018212556838989258,-0.0328218936920166
1761486917564694300,9.1296943359375,-0.058506011962890625,0.030418872833251953,-0.0221385657787323
1761486917581496800,9.146496826171875,-0.010405540466308594,0.00518798828125,0.057799339294433594
1761486917598336800,9.163336669921875,-0.02680492401123047,0.027665376663208008,0.10187700390815735
1761486917615160000,9.18016015625,-0.10872745513916016,0.04600679874420166,0.07832327485084534
1761486917631993900,9.196993896484376,-0.14031314849853516,0.04963719844818115,0.054775625467300415
1761486917648833300,9.213833251953124,-0.09461593627929688,0.02049398422241211,0.10538926720619202
1761486917665623600,9.23062353515625,-0.07287883758544922,0.015089154243469238,0.14261460304260254
1761486917682458400,9.247458251953125,-0.07360649108886719,0.03182864189147949,0.13810059428215027
1761486917699299300,9.26429931640625,-0.0799245834350586,0.02154099941253662,0.1184869110584259
1761486917716117200,9.2811171875,-0.09538841247558594,0.012720704078674316,0.12470585107803345
1761486917732942800,9.29794287109375,-0.12350177764892578,0.023038148880004883,0.16771942377090454
1761486917749753600,9.314753662109375,-0.15224170684814453,-0.008389711380004883,0.11545825004577637
1761486917766593500,9.331593505859376,-0.045958518981933594,-0.03461158275604248,0.040082305669784546
1761486917783419100,9.348419189453125,0.036177635192871094,-0.006774544715881348,0.01836460828781128
1761486917800243700,9.36524365234375,-0.0040035247802734375,-0.03421151638031006,0.05342492461204529
1761486917817070800,9.38207080078125,-0.14409160614013672,0.021404504776000977,0.047341495752334595
1761486917833895700,9.398895751953125,-0.2116069793701172,0.08708703517913818,0.027165651321411133
1761486917850704100,9.4157041015625,-0.1829662322998047,0.0806736946105957,0.09455671906471252
1761486917867542500,9.43254248046875,0.004307746887207031,0.0603024959564209,0.13348183035850525
1761486917884358400,9.4493583984375,0.12318134307861328,0.041791677474975586,0.1366826593875885
1761486917901184000,9.46618408203125,0.22917556762695312,0.09044909477233887,0.08137056231498718
