time,seconds_elapsed,z,y,x
1761417670978494200,0.197494140625,-0.2133331298828125,0.004874467849731445,0.059861838817596436
1761417670995313400,0.2143134765625,-0.2910604476928711,0.00974881649017334,0.05226669833064079
1761417671012141000,0.23114111328125,-0.3027486801147461,0.008466720581054688,0.06684953719377518
1761417671028975900,0.247975830078125,-0.2747831344604492,0.0078202486038208,0.08514111489057541
1761417671045778200,0.264778076171875,-0.2111225128173828,-0.0003349781036376953,0.09538008272647858
1761417671062612200,0.2816123046875,-0.10042953491210938,-0.03231549263000488,0.10773584246635437
1761417671079436800,0.298436767578125,-0.05064964294433594,-0.05262017250061035,0.1341361254453659
1761417671096243700,0.31524365234375,-0.04204845428466797,-0.007921576499938965,0.13326889276504517
1761417671113085000,0.3320849609375,-0.04939556121826172,0.015411615371704102,0.12360090017318726
1761417671129907500,0.348907470703125,-0.09282398223876953,0.022841811180114746,0.1037929356098175
1761417671146728200,0.365728271484375,-0.09059333801269531,0.04214346408843994,0.08119795471429825
1761417671163560000,0.382559814453125,-0.05617046356201172,0.04818868637084961,0.0708799809217453
1761417671180380000,0.3993798828125,-0.04754066467285156,0.04659318923950195,0.08944933861494064
1761417671197203200,0.416203125,-0.03927898406982422,0.061878204345703125,0.1179862841963768
1761417671214011400,0.433011474609375,-0.03603649139404297,0.056563496589660645,0.12129705399274826
1761417671230850600,0.4498505859375,-0.017848968505859375,0.06897330284118652,0.12264437973499298
1761417671247663000,0.4666630859375,-0.01796245574951172,0.09662044048309326,0.10516419261693954
1761417671264494300,0.483494384765625,-0.07025718688964844,0.12699127197265625,0.08050065487623215
1761417671281326800,0.500326904296875,-0.17404651641845703,0.1508476734161377,0.12434398382902145
1761417671298146000,0.51714599609375,-0.25398731231689453,0.18389630317687988,0.15252895653247833
1761417671314971000,0.533970947265625,-0.21348953247070312,0.16196417808532715,0.182640939950943
1761417671331772000,0.55077197265625,-0.08796310424804688,0.1533879041671753,0.1541583389043808
1761417671348608800,0.56760888671875,0.006847381591796875,0.13812756538391113,0.11170729249715805
1761417671365427700,0.584427734375,0.09122180938720703,0.12619447708129883,0.06609919667243958
1761417671382252300,0.601252197265625,0.11019611358642578,0.12464761734008789,0.06601805984973907
1761417671399075000,0.618074951171875,0.059986114501953125,0.11879456043243408,0.08896665275096893
1761417671415901200,0.634901123046875,-0.009060859680175781,0.13879883289337158,0.11021561920642853
1761417671432709600,0.651709716796875,-0.06399726867675781,0.1537156105041504,0.10494531691074371
1761417671449544400,0.66854443359375,-0.08280658721923828,0.13653969764709473,0.10346625745296478
1761417671466373400,0.685373291015625,-0.039902687072753906,0.1334819793701172,0.09937909245491028
1761417671483181800,0.702181884765625,0.02716541290283203,0.09624683856964111,0.09618616849184036
1761417671500015000,0.71901513671875,0.03692626953125,0.08265268802642822,0.08479199558496475
1761417671516863000,0.735863037109375,-0.022045135498046875,0.06046438217163086,0.042509421706199646
1761417671533679600,0.7526796875,-0.0646200180053711,0.03943216800689697,0.03421095013618469
1761417671550497800,0.769497802734375,-0.10886955261230469,0.04279959201812744,0.03795201703906059
1761417671567333000,0.7863330078125,-0.1488018035888672,0.05624818801879883,0.026039160788059235
1761417671584149000,0.80314892578125,-0.1720256805419922,0.05137515068054199,0.03258752077817917
1761417671600974600,0.819974609375,-0.16962051391601562,0.04547679424285889,0.04325642064213753
1761417671617783000,0.836782958984375,-0.1635303497314453,0.025156497955322266,0.021122539415955544
1761417671634631200,0.853631103515625,-0.13387775421142578,0.003931760787963867,0.018911780789494514
1761417671651423700,0.870423828125,-0.06299114227294922,-0.01795017719268799,0.03441920876502991
1761417671668243700,0.88724365234375,-0.0019655227661132812,-0.010801553726196289,0.03823942691087723
1761417671685068000,0.904068115234375,-0.024358749389648438,0.008447051048278809,0.028455331921577454
1761417671701892600,0.920892578125,-0.11205101013183594,0.007950305938720703,0.05811439827084541
1761417671718716200,0.937716064453125,-0.18500995635986328,0.01415705680847168,0.056654538959264755
1761417671735541000,0.954541015625,-0.20974445343017578,0.025662779808044434,0.04328091815114021
1761417671752363300,0.97136328125,-0.15491962432861328,0.023974895477294922,0.055953070521354675
1761417671769186600,0.9881865234375,-0.1185617446899414,0.019368290901184082,0.10073328763246536
1761417671786011600,1.00501171875,-0.0638132095336914,0.026605725288391113,0.10593951493501663
1761417671802835500,1.02183544921875,-0.09525203704833984,0.032471656799316406,0.10422728955745697
1761417671819660500,1.03866064453125,-0.14044857025146484,0.06799197196960449,0.09511074423789978
1761417671836481300,1.055481201171875,-0.1911935806274414,0.0900200605392456,0.08968879282474518
1761417671853305000,1.07230517578125,-0.15547847747802734,0.09798979759216309,0.1020713597536087
1761417671870131200,1.089131103515625,-0.06185150146484375,0.10622775554656982,0.11675292253494263
1761417671886954200,1.105954345703125,0.03057861328125,0.09754669666290283,0.12937617301940918
1761417671903777000,1.122777099609375,0.07871437072753906,0.07674932479858398,0.10072003304958344
1761417671920603000,1.139602783203125,0.0676717758178711,0.07539916038513184,0.0754140317440033
1761417671937424400,1.15642431640625,0.023369789123535156,0.08469343185424805,0.07239878177642822
1761417671954249200,1.173249267578125,-0.07556724548339844,0.0991889238357544,0.06484755128622055
1761417671971088600,1.190088623046875,-0.12299537658691406,0.10652482509613037,0.07343950122594833
1761417671987909600,1.20690966796875,-0.13533878326416016,0.13471436500549316,0.10424505919218063
1761417672004721700,1.2237216796875,-0.07331562042236328,0.12997102737426758,0.13023754954338074
1761417672021553700,1.2405537109375,0.012224197387695312,0.11166739463806152,0.13139012455940247
1761417672038383600,1.257383544921875,0.06672191619873047,0.07968485355377197,0.11291958391666412
1761417672055203800,1.274203857421875,0.05494880676269531,0.07628285884857178,0.08335878700017929
1761417672072041500,1.29104150390625,0.004216194152832031,0.05885660648345947,0.0643131285905838
1761417672088870100,1.3078701171875,-0.05675697326660156,0.07418012619018555,0.05722402408719063
1761417672105702000,1.324701904296875,-0.10364723205566406,0.07000482082366943,0.06318989396095276
1761417672122514000,1.341513916015625,-0.10889053344726562,0.06377732753753662,0.08709092438220978
1761417672139336700,1.358336669921875,-0.08446311950683594,0.04901707172393799,0.09776301681995392
1761417672156144000,1.37514404296875,-0.049839019775390625,0.042868614196777344,0.12259244918823242
1761417672172984800,1.39198486328125,-0.030536651611328125,0.042307376861572266,0.1253027617931366
1761417672189794800,1.408794921875,-0.05133628845214844,0.0454944372177124,0.10663679987192154
1761417672206630100,1.425630126953125,-0.11339950561523438,0.05362594127655029,0.08591244369745255
1761417672223458000,1.4424580078125,-0.143310546875,0.06112325191497803,0.0533459335565567
1761417672240280000,1.459280029296875,-0.12404251098632812,0.049608588218688965,0.03290850296616554
1761417672257104100,1.476104248046875,-0.08176898956298828,0.04287910461425781,0.044718947261571884
1761417672273910300,1.49291015625,-0.01732349395751953,0.042478084564208984,0.07606219500303268
1761417672290747600,1.50974755859375,-0.047393798828125,0.031792640686035156,0.0918489620089531
1761417672307561700,1.526561767578125,-0.1430215835571289,0.05358541011810303,0.0489942766726017
1761417672324385800,1.5433857421875,-0.2330760955810547,0.07548761367797852,0.012981381267309189
1761417672341208600,1.56020849609375,-0.22514057159423828,0.06294775009155273,-0.002160843461751938
1761417672358029300,1.577029296875,-0.14624595642089844,0.05329716205596924,0.012629721313714981
1761417672374860300,1.5938603515625,-0.10633468627929688,0.04212021827697754,0.05904417857527733
1761417672391682300,1.610682373046875,-0.06435871124267578,0.04234480857849121,0.07117895036935806
1761417672408502800,1.627502685546875,-0.0634603500366211,0.0436246395111084,0.05419507250189781
1761417672425321000,1.644321044921875,-0.09205245971679688,0.03618133068084717,0.03619576618075371
1761417672442137900,1.661137939453125,-0.09801292419433594,0.029194355010986328,0.022826019674539566
1761417672458976300,1.677976318359375,-0.1030426025390625,-0.00044476985931396484,0.02515989914536476
1761417672475794000,1.6947939453125,-0.08833503723144531,0.009899497032165527,0.04543662071228027
1761417672492641000,1.71164111328125,-0.11019420623779297,0.030179619789123535,0.06601592898368835
1761417672509444000,1.728444091796875,-0.12468147277832031,0.04015207290649414,0.07696177065372467
1761417672526285000,1.74528515625,-0.07088375091552734,0.03293204307556152,0.10426194965839386
1761417672543108000,1.762108154296875,0.020946502685546875,0.02303481101989746,0.10898974537849426
1761417672559916000,1.778916015625,0.07918357849121094,0.01299905776977539,0.10506896674633026
1761417672576756500,1.795756591796875,0.08341789245605469,0.015745878219604492,0.08555448055267334
1761417672593576400,1.812576416015625,0.013306617736816406,0.028698325157165527,0.08589112758636475
1761417672610391000,1.82939111328125,-0.05350971221923828,0.05961799621582031,0.0679166316986084
1761417672627224300,1.846224365234375,-0.11216259002685547,0.08936703205108643,0.054119668900966644
1761417672644055300,1.86305517578125,-0.14736080169677734,0.08803689479827881,0.0758262574672699
1761417672660876300,1.879876220703125,-0.13858413696289062,0.08973371982574463,0.11458265781402588
1761417672677682200,1.89668212890625,-0.1474456787109375,0.09759521484375,0.13647937774658203
1761417672694519300,1.913519287109375,-0.13576602935791016,0.09713685512542725,0.14016596972942352
1761417672711350500,1.9303505859375,-0.11510944366455078,0.09408819675445557,0.1400545835494995
1761417672728171300,1.947171142578125,-0.1182098388671875,0.0995478630065918,0.14425364136695862
1761417672744982000,1.96398193359375,-0.11808395385742188,0.10698962211608887,0.13451917469501495
1761417672761805600,1.9808056640625,-0.10827255249023438,0.09853172302246094,0.1310238540172577
1761417672778642000,1.997641845703125,-0.05707550048828125,0.08352971076965332,0.13167762756347656
1761417672795462700,2.014462646484375,-0.00177001953125,0.06824195384979248,0.09951270371675491
1761417672812275500,2.031275390625,0.0467987060546875,0.0549168586730957,0.07348296046257019
1761417672829100800,2.048100830078125,0.06271076202392578,0.03862917423248291,0.07482635974884033
1761417672845922300,2.06492236328125,0.026304244995117188,0.05554485321044922,0.07474087923765182
1761417672862748000,2.081747802734375,-0.02242755889892578,0.06495153903961182,0.07257143408060074
1761417672879570700,2.09857080078125,-0.029227256774902344,0.0651785135269165,0.0925448015332222
1761417672896395500,2.1153955078125,-0.03362560272216797,0.06193745136260986,0.10922007262706757
1761417672913228800,2.132228759765625,-0.007381439208984375,0.055893659591674805,0.1162935420870781
1761417672930038300,2.149038330078125,-0.04059314727783203,0.05441451072692871,0.14028184115886688
1761417672946866000,2.165865966796875,-0.0882577896118164,0.06304454803466797,0.12527957558631897
1761417672963693600,2.182693603515625,-0.12312126159667969,0.0754932165145874,0.11754846572875977
1761417672980531500,2.199531494140625,-0.12953853607177734,0.08960175514221191,0.1197444424033165
1761417672997352400,2.2163525390625,-0.14835071563720703,0.08615505695343018,0.14677582681179047
1761417673014175200,2.23317529296875,-0.16182422637939453,0.07354927062988281,0.1489866077899933
1761417673031004000,2.25000390625,-0.12635040283203125,0.07153797149658203,0.1365886777639389
1761417673047822600,2.266822509765625,-0.0714101791381836,0.0559694766998291,0.11844416707754135
1761417673064647200,2.283647216796875,-0.07428264617919922,0.05947113037109375,0.06574127078056335
1761417673081489000,2.300489013671875,-0.0941324234008789,0.06140315532684326,0.056996993720531464
1761417673098294800,2.317294677734375,-0.10494232177734375,0.07786476612091064,0.09803446382284164
1761417673115118000,2.3341181640625,-0.11147212982177734,0.08354306221008301,0.10611370950937271
1761417673131938000,2.35093798828125,-0.13402271270751953,0.08405864238739014,0.07044529169797897
1761417673148769300,2.367769287109375,-0.14990615844726562,0.08815908432006836,0.0377788320183754
1761417673165573400,2.384573486328125,-0.08956623077392578,0.08708047866821289,0.04372352361679077
1761417673182409500,2.401409423828125,0.015157699584960938,0.07318520545959473,0.06611521542072296
1761417673199241700,2.41824169921875,0.10649299621582031,0.08240854740142822,0.05916779860854149
1761417673216025900,2.43502587890625,0.09082889556884766,0.08161759376525879,0.02184699848294258
1761417673232895000,2.45189501953125,0.04721832275390625,0.07139623165130615,0.0008680517785251141
1761417673249712600,2.468712646484375,-0.0021314620971679688,0.054993391036987305,0.04861181601881981
1761417673266502400,2.48550244140625,0.010632514953613281,0.049790024757385254,0.09749925136566162
1761417673283339000,2.502339111328125,-0.019675254821777344,0.07174301147460938,0.1136738657951355
1761417673300163300,2.519163330078125,-0.09093189239501953,0.08864247798919678,0.08008377254009247
1761417673316982500,2.535982421875,-0.16359519958496094,0.10024046897888184,0.05159608647227287
1761417673333818400,2.552818359375,-0.1714792251586914,0.08440494537353516,0.039655040949583054
1761417673350634000,2.569634033203125,-0.15341758728027344,0.06932544708251953,0.06943738460540771
1761417673367461000,2.586461181640625,-0.1565723419189453,0.0857088565826416,0.09292226284742355
1761417673384285200,2.60328515625,-0.17901611328125,0.09347474575042725,0.09093523025512695
1761417673401109800,2.62010986328125,-0.1687765121459961,0.09244406223297119,0.08360055834054947
1761417673417919700,2.636919677734375,-0.14098358154296875,0.08682501316070557,0.07839588820934296
1761417673434757000,2.653757080078125,-0.07335281372070312,0.07905733585357666,0.06383027881383896
1761417673451577000,2.6705771484375,0.013890266418457031,0.05778634548187256,0.049615781754255295
1761417673468426000,2.687426025390625,0.014284133911132812,0.040607333183288574,0.03491538017988205
1761417673485239800,2.70423974609375,0.011127471923828125,0.05006074905395508,0.012392155826091766
1761417673502068200,2.721068115234375,0.006928443908691406,0.058696866035461426,0.012519679963588715
1761417673518886400,2.737886474609375,-0.027205467224121094,0.06695699691772461,0.034579165279865265
1761417673535708400,2.75470849609375,-0.060524940490722656,0.06499886512756348,0.04854458197951317
1761417673552545800,2.7715458984375,-0.1208648681640625,0.054266929626464844,0.04039314389228821
1761417673569344500,2.788344482421875,-0.1339740753173828,0.04793810844421387,0.046573441475629807
1761417673586184700,2.805184814453125,-0.09591102600097656,0.05250537395477295,0.07310023903846741
1761417673603009300,2.82200927734375,-0.061598777770996094,0.04538917541503906,0.08584809303283691
1761417673619832600,2.83883251953125,-0.0680093765258789,0.059110045433044434,0.07500036060810089
1761417673636656000,2.85565625,-0.1564788818359375,0.05725359916687012,0.08892732858657837
1761417673653476900,2.872476806640625,-0.20058345794677734,0.07851815223693848,0.08452127873897552
1761417673670300200,2.889300048828125,-0.16813945770263672,0.05633652210235596,0.10364200174808502
1761417673687127300,2.906127197265625,-0.12385845184326172,0.03580343723297119,0.10450726002454758
1761417673703952000,2.922951904296875,-0.054953575134277344,0.04100847244262695,0.08172093331813812
1761417673720773000,2.939773193359375,-0.034514427185058594,0.027597546577453613,0.06488171964883804
1761417673737573400,2.956573486328125,0.0021009445190429688,0.024112820625305176,0.06387994438409805
1761417673754405600,2.973405517578125,0.05460166931152344,0.026627302169799805,0.061743512749671936
1761417673771239200,2.9902392578125,0.065887451171875,0.025615811347961426,0.057306014001369476
1761417673788061200,3.007061279296875,0.030820846557617188,0.01749098300933838,0.06752494722604752
1761417673804881200,3.023881103515625,0.006011009216308594,0.03126966953277588,0.037324897944927216
1761417673821691000,3.04069091796875,0.0032215118408203125,0.04182016849517822,0.04601423442363739
1761417673838512600,3.0575126953125,-0.010248184204101562,0.04026293754577637,0.051425836980342865
1761417673855355000,3.07435498046875,-0.056466102600097656,0.044354915618896484,0.06258877366781235
1761417673872173000,3.091173095703125,-0.08636093139648438,0.04334533214569092,0.04322157800197601
1761417673889004000,3.108004150390625,-0.11497974395751953,0.032561302185058594,0.05521981418132782
1761417673905822500,3.124822509765625,-0.1343545913696289,0.044699907302856445,0.06045124679803848
1761417673922647000,3.14164697265625,-0.19956207275390625,0.07773995399475098,0.03738519176840782
1761417673939472000,3.158471923828125,-0.23941421508789062,0.11559522151947021,0.03222290426492691
1761417673956295700,3.175295654296875,-0.18720722198486328,0.1115189790725708,0.006897717714309692
1761417673973129000,3.19212890625,-0.06209278106689453,0.06798088550567627,-0.01685895398259163
1761417673989943600,3.208943603515625,0.01813983917236328,0.04444122314453125,-0.02599675953388214
1761417674006758400,3.22575830078125,0.01838397979736328,0.023905277252197266,0.056785911321640015
1761417674023603500,3.242603515625,-0.017858505249023438,0.08332228660583496,0.13646768033504486
1761417674040433200,3.25943310546875,-0.013444900512695312,0.11562597751617432,0.1796443611383438
1761417674057244400,3.276244384765625,-0.014177322387695312,0.07758569717407227,0.1540652960538864
1761417674074076200,3.293076171875,-0.012000083923339844,0.04708206653594971,0.06519366055727005
1761417674090899200,3.309899169921875,-0.07105731964111328,0.06948065757751465,0.0028610508888959885
1761417674107703600,3.32670361328125,-0.055113792419433594,0.06605291366577148,0.028258295729756355
1761417674124529400,3.343529296875,-0.026375770568847656,0.06587469577789307,0.08357009291648865
1761417674141344800,3.3603447265625,-0.030794143676757812,0.07646739482879639,0.08719916641712189
1761417674158182400,3.377182373046875,-0.07790088653564453,0.10059666633605957,0.0975201427936554
1761417674175018200,3.394018310546875,-0.07636260986328125,0.055739402770996094,0.09783443808555603
1761417674191822300,3.410822265625,-0.06728935241699219,0.07187318801879883,0.11548984050750732
1761417674208671000,3.4276708984375,-0.10558414459228516,0.07981419563293457,0.11378831416368484
1761417674225489700,3.44448974609375,-0.15384197235107422,0.11100113391876221,0.08349832892417908
1761417674242304000,3.461303955078125,-0.19286632537841797,0.11013901233673096,0.09748896211385727
1761417674259135000,3.478135009765625,-0.1443490982055664,0.06624507904052734,0.13952858746051788
1761417674275931400,3.494931396484375,-0.07635498046875,0.051199913024902344,0.13364927470684052
1761417674292770600,3.5117705078125,-0.08036327362060547,0.06028449535369873,0.08421917259693146
1761417674309598700,3.5285986328125,-0.09760093688964844,0.053168654441833496,0.0380551815032959
1761417674326415000,3.5454150390625,-0.08636760711669922,0.05445408821105957,0.05662968382239342
1761417674343234300,3.562234375,-0.05608558654785156,0.05606496334075928,0.051539771258831024
1761417674360065800,3.579065673828125,-0.03372764587402344,0.03689992427825928,0.0159086175262928
1761417674376890600,3.595890625,-0.02794170379638672,0.03546428680419922,0.004976503551006317
1761417674393713700,3.612713623046875,-0.009688377380371094,0.034854888916015625,0.02420530840754509
1761417674410522000,3.629522216796875,-0.03929424285888672,0.03241157531738281,0.05678100511431694
1761417674427349200,3.646349365234375,-0.03396415710449219,0.028791069984436035,0.046388883143663406
1761417674444187100,3.663187255859375,-0.0007467269897460938,0.04784977436065674,0.024556927382946014
1761417674461007000,3.680007080078125,-0.0013608932495117188,0.034688711166381836,0.034290995448827744
1761417674477817900,3.69681787109375,-0.015822410583496094,0.05541718006134033,0.04542866721749306
1761417674494645500,3.7136455078125,-0.09998893737792969,0.04377579689025879,0.0519501268863678
1761417674511468500,3.730468505859375,-0.19660186767578125,0.06250166893005371,0.0683649405837059
1761417674528293400,3.74729345703125,-0.22482776641845703,0.07909154891967773,0.05426062270998955
1761417674545131000,3.764131103515625,-0.1924877166748047,0.07355666160583496,0.03096187859773636
1761417674561950500,3.780950439453125,-0.1264810562133789,0.06765258312225342,0.0010567307472229004
1761417674578774000,3.79777392578125,-0.07784461975097656,0.024002671241760254,0.010914172977209091
1761417674595578600,3.81457861328125,-0.020929336547851562,0.025935769081115723,0.051359787583351135
1761417674612427500,3.831427490234375,0.009196281433105469,0.014731645584106445,0.1300378143787384
1761417674629246700,3.848246826171875,0.011323928833007812,0.026785969734191895,0.15066567063331604
1761417674646088400,3.86508837890625,-0.04609394073486328,0.05682730674743652,0.10166281461715698
1761417674662908200,3.881908203125,-0.11608314514160156,0.07740211486816406,0.06035206839442253
1761417674679737900,3.89873779296875,-0.17284584045410156,0.0619814395904541,0.051089540123939514
1761417674696539100,3.9155390625,-0.12906742095947266,0.05253124237060547,0.08642657101154327
1761417674713375500,3.93237548828125,-0.0771331787109375,0.041182875633239746,0.14310669898986816
1761417674730208000,3.9492080078125,-0.019334793090820312,0.031048059463500977,0.1555377095937729
1761417674747011800,3.96601171875,-0.016716957092285156,0.05538666248321533,0.12829367816448212
1761417674763848000,3.982847900390625,-0.04208850860595703,0.043712615966796875,0.13280662894248962
1761417674780661800,3.999661865234375,-0.05921363830566406,0.03589522838592529,0.1428195834159851
1761417674797492700,4.01649267578125,-0.053139686584472656,0.05118715763092041,0.08458282053470612
1761417674814296600,4.033296630859375,-0.06275653839111328,0.04015457630157471,0.03422977030277252
1761417674831132400,4.05013232421875,-0.06618309020996094,0.025591731071472168,-0.005188904702663422
1761417674847938600,4.0669384765625,-0.09016704559326172,0.030234575271606445,0.014717191457748413
1761417674864783600,4.08378369140625,-0.08526992797851562,0.05900895595550537,0.057801224291324615
1761417674881606000,4.10060595703125,-0.0072269439697265625,0.061586737632751465,0.10161466151475906
1761417674898427600,4.117427734375,0.02041912078857422,0.04615283012390137,0.11775917559862137
1761417674915252200,4.134252197265625,-0.049109458923339844,0.048862576484680176,0.10839883983135223
1761417674932088600,4.151088623046875,-0.1570291519165039,0.0531771183013916,0.12387457489967346
1761417674948907300,4.1679072265625,-0.23214149475097656,0.06619143486022949,0.14269594848155975
1761417674965730600,4.18473046875,-0.17949199676513672,0.09317624568939209,0.13887880742549896
1761417674982567400,4.2015673828125,-0.06142711639404297,0.058263421058654785,0.1434873789548874
1761417674999384000,4.218384033203125,-0.006595611572265625,0.03355574607849121,0.12051042914390564
1761417675016192500,4.235192626953125,-0.02264404296875,0.015108823776245117,0.07506373524665833
1761417675033032700,4.25203271484375,-0.08406257629394531,0.009563446044921875,0.029858313500881195
1761417675049856500,4.2688564453125,-0.09061431884765625,0.009684324264526367,0.030225874856114388
1761417675066684200,4.28568408203125,-0.023687362670898438,0.008370280265808105,0.057159628719091415
1761417675083477000,4.30247705078125,-0.00510406494140625,0.011393308639526367,0.07366785407066345
1761417675100326700,4.31932666015625,-0.02666187286376953,0.007200956344604492,0.07491463422775269
1761417675117152000,4.336152099609375,-0.0827798843383789,0.03578066825866699,0.03856777399778366
1761417675133967600,4.352967529296875,-0.07221317291259766,0.0357896089553833,0.03471437096595764
1761417675150806800,4.369806884765625,-0.07261371612548828,0.007469773292541504,0.06882353872060776
1761417675167587800,4.386587890625,-0.06187629699707031,0.032042503356933594,0.07674437761306763
1761417675184432000,4.40343212890625,-0.1249990463256836,0.05111503601074219,0.0944146141409874
1761417675201256000,4.420255859375,-0.1175241470336914,0.05245673656463623,0.10988295078277588
1761417675218074400,4.437074462890625,-0.12769222259521484,0.05679500102996826,0.11955186724662781
1761417675234892500,4.453892578125,-0.12358283996582031,0.0700075626373291,0.09857642650604248
1761417675251716000,4.470716064453125,-0.1245889663696289,0.05995631217956543,0.0569302998483181
1761417675268539600,4.48753955078125,-0.1074972152709961,0.04188799858093262,0.029371365904808044
1761417675285365500,4.504365478515625,-0.10527610778808594,0.03319275379180908,0.03604268282651901
1761417675302187500,4.5211875,-0.10611152648925781,0.03536689281463623,0.06581620872020721
1761417675319012600,4.5380126953125,-0.06936454772949219,0.04182696342468262,0.0915864035487175
1761417675335833300,4.554833251953125,-0.019942283630371094,0.04671359062194824,0.07152941823005676
1761417675352660000,4.571659912109375,-0.012089729309082031,0.03950846195220947,0.03645092621445656
1761417675369481000,4.58848095703125,-0.06505966186523438,0.02909564971923828,0.0020426250994205475
1761417675386307300,4.605307373046875,-0.08165836334228516,0.03778481483459473,-0.04539021477103233
1761417675403129600,4.622129638671875,-0.0854024887084961,0.032454848289489746,-0.05097247287631035
1761417675419955500,4.63895556640625,-0.055207252502441406,0.025645732879638672,-0.013398103415966034
1761417675436777200,4.655777099609375,-0.0070476531982421875,0.053522467613220215,-0.01233990490436554
1761417675453601300,4.672601318359375,0.0012264251708984375,0.03769099712371826,-0.0010522864758968353
1761417675470425300,4.68942529296875,0.012852668762207031,0.05488026142120361,0.043199602514505386
1761417675487249400,4.70624951171875,-0.01604461669921875,0.06042361259460449,0.08006097376346588
1761417675504071400,4.723071533203125,-0.07065963745117188,0.09254837036132812,0.06943263113498688
1761417675520896800,4.739896728515625,-0.08707618713378906,0.09870386123657227,0.05719097703695297
1761417675537719800,4.7567197265625,-0.041939735412597656,0.07816684246063232,0.06877560913562775
1761417675554560000,4.77356005859375,-0.018756866455078125,0.08557248115539551,0.07777546346187592
1761417675571373800,4.790373779296875,-0.06521129608154297,0.09545481204986572,0.08667564392089844
1761417675588204500,4.80720458984375,-0.14147472381591797,0.10385525226593018,0.0767398402094841
1761417675605024500,4.8240244140625,-0.11202526092529297,0.11933290958404541,0.08994315564632416
1761417675621855500,4.84085546875,-0.10026264190673828,0.09809422492980957,0.13787980377674103
1761417675638675200,4.85767529296875,-0.10448741912841797,0.10829150676727295,0.1253512054681778
1761417675655517000,4.874516845703125,-0.09727001190185547,0.1217566728591919,0.11208076030015945
1761417675672332300,4.891332275390625,-0.062186241149902344,0.09626102447509766,0.09257137775421143
1761417675689165600,4.90816552734375,-0.008313179016113281,0.06598961353302002,0.054286494851112366
1761417675705984300,4.924984375,0.1018056869506836,0.035938262939453125,0.0354420505464077
1761417675722808600,4.94180859375,0.14408588409423828,0.0052520036697387695,0.018818344920873642
1761417675739627500,4.95862744140625,0.04561901092529297,0.02185237407684326,0.019442599266767502
1761417675756443600,4.975443603515625,-0.10068988800048828,0.0440673828125,0.04999302327632904
1761417675773262000,4.992261962890625,-0.1728668212890625,0.03966796398162842,0.04938288778066635
1761417675790093300,5.00909326171875,-0.17857074737548828,0.03889036178588867,0.029577376320958138
1761417675806913300,5.025913330078125,-0.1929636001586914,0.03991389274597168,0.025628767907619476
1761417675823737900,5.04273779296875,-0.16551685333251953,0.02817702293395996,0.06283419579267502
1761417675840560600,5.059560546875,-0.09249210357666016,0.004240632057189941,0.054451629519462585
1761417675857385200,5.07638525390625,-0.05706501007080078,-0.013425707817077637,0.004671265371143818
1761417675874208500,5.09320849609375,-0.05572319030761719,-0.0036214590072631836,0.0006304867565631866
1761417675891033000,5.110033203125,-0.10190868377685547,0.013032674789428711,0.0384017676115036
1761417675907873000,5.126873046875,-0.13467693328857422,0.02420628070831299,0.055368371307849884
1761417675924688000,5.14368798828125,-0.1278390884399414,0.035389065742492676,0.04644264280796051
1761417675941517300,5.160517333984375,-0.07893848419189453,0.02844703197479248,0.018666038289666176
1761417675958339600,5.177339599609375,-0.03370189666748047,0.03775322437286377,0.024403467774391174
1761417675975165200,5.194165283203125,-0.06149768829345703,0.03034067153930664,0.035365987569093704
1761417675991986400,5.210986328125,-0.06098365783691406,0.03856945037841797,0.06315691769123077
1761417676008816000,5.227816162109375,-0.004431724548339844,0.04959094524383545,0.07630626112222672
1761417676025631700,5.2446318359375,0.01291656494140625,0.049260735511779785,0.0609322190284729
1761417676042465500,5.261465576171875,-0.06060218811035156,0.06768763065338135,0.008607150055468082
1761417676059257300,5.27825732421875,-0.120391845703125,0.08398056030273438,-0.021565929055213928
1761417676076098800,5.295098876953125,-0.1264667510986328,0.09608066082000732,0.019987154752016068
1761417676092929300,5.31192919921875,-0.06089973449707031,0.07940113544464111,0.06736944615840912
1761417676109754600,5.328754638671875,0.0034770965576171875,0.09276759624481201,0.06981972604990005
1761417676126583600,5.34558349609375,-0.0013456344604492188,0.10241472721099854,0.04778994619846344
1761417676143368000,5.362367919921875,-0.057036399841308594,0.09478461742401123,0.045614391565322876
1761417676160227600,5.3792275390625,-0.09431076049804688,0.0943305492401123,0.07430603355169296
1761417676177050600,5.396050537109375,-0.044852256774902344,0.08852052688598633,0.10445098578929901
1761417676193875000,5.412875,0.018207550048828125,0.07015514373779297,0.12408711761236191
1761417676210698500,5.429698486328125,0.00472259521484375,0.06625580787658691,0.14168782532215118
1761417676227523000,5.446523193359375,-0.048035621643066406,0.08349823951721191,0.1262940615415573
1761417676244329000,5.463328857421875,-0.12648296356201172,0.07745325565338135,0.10792925953865051
1761417676261156600,5.480156494140625,-0.1051645278930664,0.08394503593444824,0.1083790585398674
1761417676277980000,5.49697998046875,-0.07033824920654297,0.06591522693634033,0.13949210941791534
1761417676294804500,5.513804443359375,-0.10578250885009766,0.04825901985168457,0.10969141870737076
1761417676311625200,5.530625244140625,-0.16449356079101562,0.042549729347229004,0.059834737330675125
1761417676328453600,5.54745361328125,-0.17426109313964844,0.029384732246398926,0.03614473715424538
1761417676345276400,5.5642763671875,-0.10785198211669922,0.007741093635559082,0.03133901581168175
1761417676362094300,5.58109423828125,-0.08069038391113281,-0.0003409385681152344,0.03935494273900986
1761417676378925800,5.59792578125,-0.12829017639160156,0.0033693313598632812,0.02884909324347973
1761417676395746000,5.61474609375,-0.1258859634399414,0.007113218307495117,0.05172959715127945
1761417676412587300,5.631587158203125,-0.09888458251953125,0.009179234504699707,0.033858779817819595
1761417676429409000,5.648408935546875,-0.0638885498046875,0.008309483528137207,-0.007511951494961977
1761417676446215200,5.665215087890625,-0.02410602569580078,-0.020103096961975098,-0.0061379363760352135
1761417676463055600,5.6820556640625,-0.021717071533203125,-0.0017828941345214844,0.012777525931596756
1761417676479853600,5.698853515625,-0.06299591064453125,0.026133060455322266,0.02096947468817234
1761417676496704300,5.715704345703125,-0.10068225860595703,0.050249338150024414,0.028708109632134438
1761417676513522200,5.732522216796875,-0.08214187622070312,0.06608104705810547,0.025189712643623352
1761417676530355000,5.74935498046875,0.014313697814941406,0.0573725700378418,0.04099361598491669
1761417676547153400,5.7661533203125,0.08017921447753906,0.057517409324645996,0.07523079216480255
1761417676564003000,5.783003173828125,0.06187248229980469,0.08349967002868652,0.08903047442436218
1761417676580822000,5.799822021484375,0.004025459289550781,0.06525588035583496,0.09767003357410431
1761417676597625600,5.81662548828125,-0.014126777648925781,0.06271672248840332,0.11765480786561966
1761417676614469600,5.8334697265625,-0.037522315979003906,0.08798396587371826,0.1483418047428131
1761417676631298000,5.850298095703125,-0.0628976821899414,0.11060607433319092,0.1627386212348938
1761417676648115200,5.867115234375,-0.06805610656738281,0.10481154918670654,0.15314316749572754
1761417676664943600,5.883943603515625,-0.05312919616699219,0.11862146854400635,0.14430025219917297
1761417676681762800,5.9007626953125,-0.06070899963378906,0.08698141574859619,0.1581459492444992
1761417676698591700,5.917591796875,-0.042366981506347656,0.05128347873687744,0.14521431922912598
1761417676715412200,5.934412109375,-0.0033168792724609375,0.045349955558776855,0.08907264471054077
1761417676732233500,5.9512333984375,-0.005741119384765625,0.04308605194091797,0.0619359090924263
1761417676749041700,5.968041748046875,-0.03582954406738281,0.06770813465118408,0.01136840134859085
1761417676765870800,5.984870849609375,-0.10608577728271484,0.07296538352966309,-0.030387267470359802
1761417676782693600,6.001693603515625,-0.1657695770263672,0.08596587181091309,-0.02304522693157196
1761417676799518200,6.018518310546875,-0.19728851318359375,0.08282017707824707,0.02163884788751602
1761417676816328400,6.035328369140625,-0.18222904205322266,0.0810849666595459,0.06982368230819702
1761417676833166000,6.052166015625,-0.16148757934570312,0.07807815074920654,0.06014890968799591
1761417676849988600,6.068988525390625,-0.09714221954345703,0.07546544075012207,0.023982152342796326
1761417676866810400,6.085810302734375,-0.08011722564697266,0.073006272315979,0.003535360097885132
1761417676883657000,6.102656982421875,-0.08998489379882812,0.07516288757324219,0.001218654215335846
1761417676900475000,6.119474853515625,-0.07450485229492188,0.08122336864471436,-0.00575680285692215
1761417676917298200,6.136298095703125,-0.021663665771484375,0.050565361976623535,-0.008512362837791443
1761417676934122200,6.153122314453125,0.02111053466796875,0.03947484493255615,0.0021737143397331238
1761417676950945300,6.1699453125,0.054973602294921875,0.027274608612060547,0.006820008158683777
1761417676967770600,6.1867705078125,0.06092357635498047,0.03253304958343506,-0.018536292016506195
1761417676984592600,6.203592529296875,-0.009759902954101562,0.04257667064666748,-0.030232228338718414
1761417677001417700,6.220417724609375,-0.06737613677978516,0.04627883434295654,-0.03398805484175682
1761417677018236200,6.237236083984375,-0.09301185607910156,0.027692079544067383,-0.013085946440696716
1761417677035061500,6.2540615234375,-0.08369064331054688,0.0178372859954834,0.024947278201580048
1761417677051884000,6.270884033203125,-0.073577880859375,0.0266571044921875,0.04054766148328781
1761417677068720400,6.287720458984375,-0.10807132720947266,0.023995399475097656,0.03978189826011658
1761417677085519600,6.30451953125,-0.14452552795410156,0.02533400058746338,0.02135767787694931
1761417677102360600,6.321360595703125,-0.1681079864501953,0.026204586029052734,0.037790704518556595
1761417677119181300,6.338181396484375,-0.1423797607421875,0.028913378715515137,0.07135538756847382
1761417677136009000,6.355009033203125,-0.12176990509033203,0.01948702335357666,0.09344346821308136
1761417677152835000,6.3718349609375,-0.09200763702392578,0.006911635398864746,0.08510616421699524
1761417677169655300,6.3886552734375,-0.07847213745117188,0.012660741806030273,0.058046746999025345
1761417677186462200,6.405462158203125,-0.045639991760253906,0.00013768672943115234,0.036649566143751144
1761417677203303000,6.422302978515625,-0.013744354248046875,-0.02808225154876709,0.052186161279678345
1761417677220126200,6.439126220703125,-0.02776336669921875,-0.022015094757080078,0.07977241277694702
1761417677236934100,6.45593408203125,-0.11009502410888672,0.020912766456604004,0.06817567348480225
1761417677253764900,6.472764892578125,-0.18737506866455078,0.05258190631866455,0.03810784965753555
1761417677270587400,6.48958740234375,-0.17435073852539062,0.03649616241455078,0.035511404275894165
1761417677287407900,6.506407958984375,-0.06549263000488281,0.0032771825790405273,0.051922984421253204
1761417677304231700,6.523231689453125,-0.013735771179199219,0.007350444793701172,0.04565070569515228
1761417677321042200,6.540042236328125,0.010441780090332031,0.01665341854095459,0.03352491185069084
1761417677337881600,6.556881591796875,-0.060428619384765625,0.011945486068725586,0.05083555355668068
1761417677354703000,6.573703125,-0.13254547119140625,0.02726113796234131,0.08378282189369202
1761417677371547600,6.590547607421875,-0.1623239517211914,0.05229806900024414,0.09203159809112549
1761417677388357000,6.607357177734375,-0.13761520385742188,0.058435916900634766,0.08310181647539139
1761417677405193200,6.624193115234375,-0.07041168212890625,0.054955244064331055,0.10572576522827148
1761417677422012000,6.641011962890625,0.009168624877929688,0.03578996658325195,0.13795311748981476
1761417677438836500,6.65783642578125,0.06904983520507812,0.042447686195373535,0.11505977064371109
1761417677455665700,6.674665771484375,0.05135059356689453,0.05310845375061035,0.09077877551317215
1761417677472464400,6.69146435546875,-0.017769813537597656,0.04239034652709961,0.057551510632038116
1761417677489307000,6.708306884765625,-0.06430530548095703,0.042685866355895996,0.05223339796066284
1761417677506120700,6.72512060546875,-0.08794784545898438,0.06879568099975586,0.0765918642282486
1761417677522954800,6.741954833984375,-0.10389518737792969,0.06401360034942627,0.08391711115837097
1761417677539778800,6.75877880859375,-0.12731456756591797,0.06169092655181885,0.046997494995594025
1761417677556602600,6.7756025390625,-0.15938568115234375,0.050246238708496094,0.029845833778381348
1761417677573422600,6.792422607421875,-0.16533565521240234,0.05100548267364502,0.04482092708349228
1761417677590253600,6.809253662109375,-0.12454700469970703,0.047396302223205566,0.06458677351474762
1761417677607080200,6.826080078125,-0.09691143035888672,0.0548403263092041,0.04981181398034096
1761417677623897900,6.84289794921875,-0.08810043334960938,0.0475316047668457,0.039723314344882965
1761417677640722200,6.85972216796875,-0.1358814239501953,0.050418972969055176,0.024656884372234344
1761417677657540400,6.876540283203125,-0.16759967803955078,0.043715834617614746,0.013614453375339508
1761417677674365000,6.893364990234375,-0.1336841583251953,0.04296684265136719,0.0226127952337265
1761417677691197200,6.910197265625,-0.012284278869628906,0.017835259437561035,0.04828602820634842
1761417677708017400,6.927017333984375,0.07885360717773438,-0.010655760765075684,0.04474775865674019
1761417677724822800,6.94382275390625,0.07005500793457031,-0.004059791564941406,0.0015418380498886108
1761417677741651000,6.96065087890625,0.01861572265625,0.009542465209960938,-0.022435728460550308
1761417677758465300,6.97746533203125,-0.08163070678710938,0.016274333000183105,-0.021655172109603882
1761417677775302000,6.994302001953125,-0.15804672241210938,0.02786707878112793,-0.003892377018928528
1761417677792109000,7.011109130859375,-0.16736507415771484,0.037892818450927734,0.021555490791797638
1761417677808946000,7.02794580078125,-0.14548015594482422,0.05063486099243164,0.0510900542140007
1761417677825766100,7.04476611328125,-0.1200094223022461,0.05806326866149902,0.05254296958446503
1761417677842597000,7.06159716796875,-0.07081794738769531,0.05053830146789551,0.042529694736003876
1761417677859417900,7.07841796875,-0.04166603088378906,0.04869842529296875,0.042760420590639114
1761417677876236000,7.095236083984375,-0.04833984375,0.05970728397369385,0.055425338447093964
1761417677893080300,7.112080322265625,-0.08640098571777344,0.06904458999633789,0.07719627022743225
1761417677909882400,7.12888232421875,-0.10571861267089844,0.08267486095428467,0.09628544747829437
1761417677926709800,7.145709716796875,-0.05971240997314453,0.07408928871154785,0.09641074389219284
1761417677943534800,7.162534912109375,-0.0283355712890625,0.05246376991271973,0.06332245469093323
1761417677960360000,7.17935986328125,-0.03569602966308594,0.05508065223693848,0.055060964077711105
1761417677977179000,7.196178955078125,-0.09605598449707031,0.06333589553833008,0.07037704437971115
1761417677993995000,7.2129951171875,-0.09577465057373047,0.05904698371887207,0.06883376091718674
1761417678010819800,7.22981982421875,-0.0670318603515625,0.06193423271179199,0.08069407939910889
1761417678027644000,7.246643798828125,-0.041388511657714844,0.052413344383239746,0.0743861049413681
1761417678044467500,7.263467529296875,-0.060901641845703125,0.038765549659729004,0.05793192610144615
1761417678061305000,7.28030517578125,-0.0944375991821289,0.05486094951629639,0.025330211967229843
1761417678078127400,7.29712744140625,-0.08503150939941406,0.060607075691223145,0.011549243703484535
1761417678094950000,7.313949951171875,-0.05232524871826172,0.0608978271484375,0.0421857014298439
1761417678111770000,7.33077001953125,-0.04360389709472656,0.058809518814086914,0.09269843250513077
1761417678128599600,7.347599609375,-0.062247276306152344,0.07110786437988281,0.11836196482181549
1761417678145422000,7.364422119140625,-0.05962371826171875,0.06847274303436279,0.07809500396251678
1761417678162265000,7.38126513671875,-0.06377983093261719,0.06973493099212646,0.04211881756782532
1761417678179067000,7.39806689453125,-0.054535865783691406,0.07132399082183838,0.03566792607307434
1761417678195891700,7.4148916015625,-0.06584358215332031,0.06886684894561768,0.035663895308971405
1761417678212712200,7.431712158203125,-0.08292293548583984,0.06457841396331787,0.020533792674541473
1761417678229540600,7.44854052734375,-0.05484771728515625,0.04387819766998291,0.02161303721368313
1761417678246365000,7.465364990234375,-0.012188911437988281,0.02989661693572998,0.024335673078894615
1761417678263174700,7.482174560546875,-0.027939796447753906,0.03339266777038574,0.032441768795251846
1761417678280012300,7.49901220703125,-0.07208633422851562,0.044907331466674805,0.037321433424949646
1761417678296832500,7.51583251953125,-0.12108516693115234,0.07074558734893799,0.021182995289564133
1761417678313663200,7.532663330078125,-0.1303701400756836,0.06761777400970459,0.028561709448695183
1761417678330483000,7.54948291015625,-0.08632087707519531,0.054618120193481445,0.02385902777314186
1761417678347324700,7.56632470703125,-0.08107852935791016,0.04543805122375488,0.022500978782773018
1761417678364140800,7.583140869140625,-0.10473823547363281,0.043012142181396484,0.019462281838059425
1761417678380972800,7.599972900390625,-0.15168476104736328,0.05435609817504883,0.03353189677000046
1761417678397775600,7.616775634765625,-0.12938404083251953,0.06756055355072021,0.017245950177311897
1761417678414612200,7.6336123046875,-0.09447479248046875,0.057701826095581055,0.004887506365776062
1761417678431428900,7.650428955078125,-0.04443073272705078,0.03604912757873535,-0.002300303429365158
1761417678448268300,7.667268310546875,-0.035289764404296875,0.032348036766052246,0.006805360317230225
1761417678465087500,7.68408740234375,-0.00275421142578125,0.044436097145080566,0.014278062619268894
1761417678481911300,7.700911376953125,-0.0183563232421875,0.05127310752868652,0.010615338571369648
1761417678498720300,7.71772021484375,-0.008023262023925781,0.047504425048828125,0.008453027345240116
1761417678515558100,7.73455810546875,0.00865936279296875,0.028311729431152344,-0.003127024509012699
1761417678532383500,7.751383544921875,0.022711753845214844,0.025144219398498535,0.012436256743967533
1761417678549207000,7.76820703125,-0.026964187622070312,0.03947007656097412,0.03331705182790756
1761417678566030000,7.785030029296875,-0.09355449676513672,0.044288039207458496,0.0459754653275013
1761417678582854400,7.8018544921875,-0.14043331146240234,0.05906057357788086,0.055431995540857315
1761417678599699000,7.818698974609375,-0.1323986053466797,0.05505633354187012,0.049005746841430664
1761417678616502300,7.835502197265625,-0.101409912109375,0.04737412929534912,0.05342727154493332
1761417678633301800,7.8523017578125,-0.07679939270019531,0.027343034744262695,0.07887868583202362
1761417678650154000,7.869154052734375,-0.058228492736816406,0.015027046203613281,0.08747100085020065
1761417678666955800,7.885955810546875,-0.11176490783691406,0.033603787422180176,0.07356568425893784
1761417678683797500,7.902797607421875,-0.17685604095458984,0.03392529487609863,0.031938571482896805
1761417678700614700,7.91961474609375,-0.19430160522460938,0.03080284595489502,0.022262580692768097
1761417678717433900,7.936433837890625,-0.1506938934326172,0.026897072792053223,0.04487574100494385
1761417678734232800,7.95323291015625,-0.0718851089477539,0.05143022537231445,0.04832078143954277
1761417678751067400,7.9700673828125,-0.029645919799804688,0.035414934158325195,0.059245117008686066
1761417678767889400,7.986889404296875,-0.004638671875,0.021088123321533203,0.03952052444219589
1761417678784714000,8.0037138671875,0.013432502746582031,0.01943206787109375,0.008491010405123234
1761417678801536000,8.020535888671875,0.020234107971191406,0.03007805347442627,-0.027151279151439667
1761417678818361600,8.037361572265626,0.04665184020996094,0.042565107345581055,-0.025772420689463615
1761417678835184400,8.054184326171875,0.03724193572998047,0.04018425941467285,0.022373082116246223
1761417678852010000,8.071010009765626,-0.00005245208740234375,0.044227004051208496,0.07625116407871246
1761417678868833300,8.087833251953125,-0.09117317199707031,0.04636406898498535,0.09182266891002655
1761417678885657000,8.104656982421876,-0.1334218978881836,0.06519269943237305,0.06256122887134552
1761417678902480000,8.12147998046875,-0.11730575561523438,0.07007813453674316,0.05063643306493759
1761417678919304000,8.138303955078126,-0.07508563995361328,0.051349520683288574,0.06870803236961365
1761417678936126700,8.155126708984374,-0.07069587707519531,0.058393120765686035,0.09310800582170486
1761417678952951800,8.171951904296876,-0.10682868957519531,0.051834821701049805,0.08904711157083511
1761417678969775600,8.188775634765625,-0.17063140869140625,0.043726205825805664,0.05719049274921417
1761417678986599700,8.205599609375,-0.18073558807373047,0.04112231731414795,0.03637661784887314
1761417679003422200,8.222422119140624,-0.1397848129272461,0.0447385311126709,0.03495083004236221
1761417679020252200,8.239252197265625,-0.06653976440429688,0.028142333030700684,0.026162443682551384
1761417679037097700,8.25609765625,-0.02521991729736328,0.026628613471984863,0.014947442337870598
1761417679053905400,8.272905517578126,0.007756233215332031,0.011815905570983887,-0.00028100423514842987
1761417679070731500,8.2897314453125,0.008349418640136719,0.006409883499145508,-0.012522226199507713
1761417679087554300,8.30655419921875,0.009746551513671875,0.0137556791305542,-0.0014575310051441193
1761417679104377600,8.323377685546875,-0.021245956420898438,0.021984219551086426,0.018942125141620636
1761417679121191700,8.340191650390626,-0.06873607635498047,0.023288488388061523,0.030321940779685974
1761417679138042000,8.3570419921875,-0.09914112091064453,0.03916060924530029,0.03053116239607334
1761417679154874600,8.37387451171875,-0.08206558227539062,0.04959285259246826,0.046820029616355896
1761417679171682000,8.39068212890625,-0.05724048614501953,0.04352080821990967,0.07161901891231537
1761417679188498700,8.407498779296875,-0.043369293212890625,0.024777770042419434,0.08501163125038147
1761417679205316900,8.42431689453125,-0.06708335876464844,0.029741406440734863,0.06475125253200531
1761417679222145000,8.44114501953125,-0.08970260620117188,0.0533292293548584,0.055469319224357605
1761417679238968000,8.457968017578125,-0.08386707305908203,0.05224907398223877,0.06399929523468018
1761417679255792600,8.474792724609374,-0.07546710968017578,0.03787803649902344,0.058618489652872086
1761417679272613600,8.491613525390624,-0.048949241638183594,0.0283358097076416,0.037356503307819366
1761417679289441500,8.508441650390624,0.004424095153808594,0.03254973888397217,0.021864507347345352
1761417679306263300,8.52526318359375,0.012209892272949219,0.02471446990966797,0.03996703773736954
1761417679323105300,8.542105224609376,-0.005728721618652344,0.02821660041809082,0.049168866127729416
1761417679339920600,8.558920654296875,-0.0770273208618164,0.044558048248291016,0.05087550729513168
1761417679356752400,8.57575244140625,-0.11034011840820312,0.03597545623779297,0.03606493026018143
1761417679373568300,8.592568359375,-0.08535575866699219,0.04285991191864014,0.012925315648317337
1761417679390400500,8.609400390625,-0.0626220703125,0.040596961975097656,0.03491464629769325
1761417679407229000,8.62622900390625,-0.0301513671875,0.02048647403717041,0.07048912346363068
1761417679424042800,8.643042724609375,-0.008143424987792969,0.014830946922302246,0.08086031675338745
1761417679440867800,8.659867919921876,-0.0033855438232421875,0.020444750785827637,0.04755518585443497
1761417679457675300,8.67667529296875,-0.0115203857421875,0.01646602153778076,0.009299952536821365
1761417679474491600,8.69349169921875,-0.0706167221069336,-0.0061342716217041016,0.024846773594617844
1761417679491334700,8.710334716796876,-0.11521530151367188,0.01025700569152832,0.07056716084480286
1761417679508148500,8.7271484375,-0.1418600082397461,0.05394101142883301,0.07983458787202835
1761417679524975400,8.743975341796874,-0.14672183990478516,0.04301941394805908,0.045069336891174316
1761417679541793800,8.760793701171876,-0.1121053695678711,0.017981648445129395,-0.002917371690273285
1761417679558611000,8.77761083984375,-0.050271034240722656,-0.01327824592590332,-0.04189607873558998
1761417679575444000,8.79444384765625,-0.007042884826660156,-0.00977480411529541,-0.06136158108711243
1761417679592281300,8.81128125,-0.028525352478027344,-0.011203885078430176,0.0033145397901535034
1761417679609108700,8.828108642578124,-0.06180000305175781,-0.004101276397705078,0.04266583174467087
1761417679625925000,8.844925048828125,-0.062399864196777344,0.015496134757995605,0.0262896791100502
1761417679642755000,8.861755126953126,-0.0429229736328125,0.01468348503112793,0.03278134763240814
1761417679659566300,8.87856640625,-0.05277442932128906,0.015111923217773438,0.056040048599243164
1761417679676395800,8.895395751953124,-0.05265522003173828,0.026597261428833008,0.06875559687614441
1761417679693204000,8.912203857421876,-0.04691028594970703,0.03793632984161377,0.07482309639453888
1761417679710038300,8.929038330078125,-0.051116943359375,0.03864717483520508,0.07281293720006943
1761417679726858800,8.945858642578125,-0.09219741821289062,0.01624143123626709,0.09420353174209595
1761417679743681500,8.962681640625,-0.1844186782836914,0.03643143177032471,0.08534266799688339
1761417679760506000,8.979506103515625,-0.26534175872802734,0.07073843479156494,0.06765713542699814
1761417679777326000,8.996326171875,-0.2770729064941406,0.061357855796813965,0.04887983947992325
1761417679794157000,9.013156982421876,-0.22441577911376953,0.08228433132171631,0.014632977545261383
1761417679810994200,9.029994140625,-0.12023735046386719,0.05986642837524414,0.012145988643169403
1761417679827798800,9.046798828125,-0.06220817565917969,0.030695796012878418,0.014955922961235046
1761417679844638200,9.06363818359375,-0.06743431091308594,0.02666652202606201,0.0008635222911834717
1761417679861463600,9.080463623046874,-0.10541057586669922,0.04793906211853027,-0.017044879496097565
1761417679878285600,9.09728564453125,-0.11952400207519531,0.058597445487976074,-0.02890133112668991
1761417679895108000,9.114108154296876,-0.10196781158447266,0.04839670658111572,-0.030509013682603836
1761417679911927800,9.130927734375,-0.03534889221191406,0.04602468013763428,-0.03533802181482315
1761417679928766000,9.147765869140626,-0.0004062652587890625,0.04537343978881836,-0.035469330847263336
1761417679945581300,9.164581298828125,-0.00030803680419921875,0.032486796379089355,-0.023416798561811447
1761417679962401000,9.181401123046875,-0.008516311645507812,0.03826916217803955,-0.028679057955741882
1761417679979226000,9.19822607421875,-0.008754730224609375,0.031299710273742676,-0.022868487983942032
1761417679996033500,9.215033447265625,-0.048583984375,0.022109627723693848,-0.01859506219625473
1761417680012880100,9.231880126953126,-0.06442451477050781,0.03892254829406738,-0.01866135746240616
1761417680029696000,9.248696044921875,-0.06159400939941406,0.056021690368652344,0.010352171957492828
1761417680046528300,9.2655283203125,-0.10463333129882812,0.037709951400756836,0.04433860629796982
1761417680063316500,9.28231640625,-0.12622356414794922,0.051220059394836426,0.07213252782821655
1761417680080171000,9.2991708984375,-0.1576700210571289,0.038675665855407715,0.05662120506167412
1761417680096987600,9.315987548828126,-0.13586807250976562,0.03824043273925781,0.008124824613332748
1761417680113819400,9.3328193359375,-0.06617069244384766,0.04095053672790527,0.022960778325796127
1761417680130643200,9.349643310546876,0.018955230712890625,-0.04651844501495361,0.04356486722826958
1761417680147466200,9.36646630859375,0.030248641967773438,-0.0024405717849731445,-0.03187261521816254
1761417680164287700,9.383287841796875,-0.0027008056640625,0.02743816375732422,-0.015136189758777618
1761417680181099800,9.400099853515625,-0.09906291961669922,0.01966238021850586,0.07018963992595673
1761417680197925000,9.416925048828125,-0.15755558013916016,0.06093943119049072,0.07460691034793854
1761417680214747600,9.43374755859375,-0.1783590316772461,0.07469284534454346,0.06858815252780914
1761417680231572200,9.450572265625,-0.18562602996826172,0.07219362258911133,0.07560333609580994
1761417680248395800,9.467395751953125,-0.08734798431396484,0.015805363655090332,0.10332805663347244
1761417680265219800,9.4842197265625,0.03869152069091797,0.02636551856994629,0.09674685448408127
1761417680282043100,9.501043212890625,0.02173328399658203,0.051387906074523926,0.07623113691806793
