time,seconds_elapsed,z,y,x
1761411690893716700,0.143716796875,0.04337143152952194,-0.09285151958465576,-0.0832303911447525
1761411690910539000,0.1605390625,0.046273041516542435,-0.1134682223200798,-0.07131851464509964
1761411690927382500,0.177382568359375,0.054367005825042725,-0.1059851199388504,-0.0403171069920063
1761411690944177700,0.194177734375,0.05192354694008827,-0.09224065393209457,0.013439035043120384
1761411690960983800,0.21098388671875,0.0455094613134861,-0.06734789162874222,0.046731192618608475
1761411690977826000,0.227825927734375,0.04596760869026184,-0.029474247246980667,0.0354301854968071
1761411690994674400,0.24467431640625,0.0403171069920063,-0.004123340360820293,0.006108652334660292
1761411691011490800,0.26149072265625,0.03741549700498581,0.013897184282541275,-0.024129176512360573
1761411691028319500,0.278319580078125,0.038179077208042145,0.01725694350898266,-0.038637228310108185
1761411691045138000,0.295137939453125,0.03420845419168472,0.004581489134579897,-0.032070424407720566
1761411691061959000,0.311958984375,0.030543262138962746,-0.01466076634824276,-0.02535090781748295
1761411691078795500,0.32879541015625,0.030695978552103043,-0.00733038317412138,-0.018478672951459885
1761411691095607300,0.345607177734375,0.028099801391363144,0.008246680721640587,-0.009162978269159794
1761411691112429600,0.3624296875,0.02428189292550087,0.017562376335263252,0.0074830991216003895
1761411691129253400,0.37925341796875,0.01466076634824276,0.013133603148162365,0.009773843921720982
1761411691146075400,0.396075439453125,0.008857546374201775,0.011301007121801376,-0.007177666760981083
1761411691162899000,0.41289892578125,0.00931569468230009,0.02015855349600315,-0.021074850112199783
1761411691179707600,0.429707763671875,0.01191187184303999,0.03833179548382759,-0.02076941914856434
1761411691196545300,0.446545166015625,0.006108652334660292,0.03130684420466423,-0.012522737495601177
1761411691213342700,0.4633427734375,-0.00045814894838258624,0.0032070425804704428,-0.005345070734620094
1761411691230174500,0.480174560546875,-0.001679879380390048,-0.025656340643763542,-0.003359758760780096
1761411691247017200,0.497017333984375,0.0074830991216003895,-0.02015855349600315,-0.00809396430850029
1761411691263797000,0.513796875,0.01771509274840355,-0.00809396430850029,-0.01114829070866108
1761411691280640500,0.530640625,0.026572637259960175,0.001527163083665073,-0.010079276748001575
1761411691297469000,0.547468994140625,0.031154127791523933,0.0039706239476799965,-0.0010690141934901476
1761411691314293800,0.564293701171875,0.03329215571284294,0.008246680721640587,0.012980886735022068
1761411691331111000,0.58111083984375,0.03481931984424591,0.008246680721640587,0.020463986322283745
1761411691347929600,0.5979296875,0.03833179548382759,-0.001679879380390048,0.014355333521962166
1761411691364773000,0.614773193359375,0.040164388716220856,-0.0065668015740811825,0.012675453908741474
1761411691381599000,0.631598876953125,0.03649919852614403,-0.010690141469240189,0.027183502912521362
1761411691398402000,0.648402099609375,0.033139441162347794,-0.015882495790719986,0.039248090237379074
1761411691415218200,0.66521826171875,0.03039054572582245,-0.020311269909143448,0.03375030308961868
1761411691432039400,0.682039306640625,0.02626720629632473,-0.013439035043120384,0.01572977937757969
1761411691448873700,0.698873779296875,0.01863138936460018,-0.010537425056099892,0.006108652334660292
1761411691465696800,0.71569677734375,0.004123340360820293,-0.016035212203860283,0.00855211354792118
1761411691482509600,0.732509521484375,-0.0010690141934901476,-0.019089538604021072,0.007941247895359993
1761411691499359700,0.74935986328125,0.001679879380390048,-0.00855211354792118,0.007941247895359993
1761411691516160000,0.766159912109375,0.005650503560900688,-0.006872233934700489,0.005497787147760391
1761411691532985600,0.782985595703125,0.010231993161141872,-0.00855211354792118,0.010842857882380486
1761411691549824500,0.799824462890625,0.014355333521962166,-0.020005837082862854,0.016798794269561768
1761411691566642000,0.816641845703125,0.015882495790719986,-0.018478672951459885,0.02871066704392433
1761411691583461000,0.833461181640625,0.013897184282541275,-0.01542434748262167,0.03405573591589928
1761411691600302600,0.850302490234375,0.01466076634824276,-0.014966198243200779,0.032070424407720566
1761411691617115600,0.86711572265625,0.01664607785642147,-0.02229658141732216,0.021380282938480377
1761411691633922600,0.883922607421875,0.016340645030140877,-0.02535090781748295,0.013439035043120384
1761411691650748000,0.900747802734375,0.012828170321881771,-0.04352414980530739,0.007635815534740686
1761411691667571200,0.9175712890625,0.013286318629980087,-0.0633772686123848,0.0032070425804704428
1761411691684394000,0.93439404296875,0.0074830991216003895,-0.08964447677135468,-0.0003054326225537807
1761411691701213700,0.951213623046875,-0.0009162978967651725,-0.09346238523721695,-0.001679879380390048
1761411691718043400,0.96804345703125,-0.008704829961061478,-0.08368854224681854,-0.009010262787342072
1761411691734866000,0.984865966796875,-0.013133603148162365,-0.04642575979232788,-0.018325956538319588
1761411691751702800,1.001702880859375,-0.012064588256180286,0.001679879380390048,-0.030085112899541855
1761411691768510700,1.0185107421875,-0.007177666760981083,0.037110064178705215,-0.03481931984424591
1761411691785329200,1.0353291015625,-0.008704829961061478,0.025045474991202354,-0.03955352306365967
1761411691802154200,1.052154296875,-0.00809396430850029,0.007941247895359993,-0.026114489883184433
1761411691818956000,1.0689560546875,-0.005955935921519995,-0.0024434609804302454,-0.005955935921519995
1761411691835801000,1.085801025390625,0.00045814894838258624,-0.02474004216492176,0.00855211354792118
1761411691852625200,1.102625244140625,0.012675453908741474,-0.023976460099220276,0.014049900695681572
1761411691869442800,1.11944287109375,0.02229658141732216,-0.005650503560900688,0.016951510682702065
1761411691886264300,1.136264404296875,0.025961773470044136,-0.002138028386980295,0.0025961773935705423
1761411691903092000,1.153092041015625,0.024129176512360573,0.00855211354792118,-0.019394971430301666
1761411691919914200,1.169914306640625,0.009926560334861279,0.01572977937757969,-0.02779436856508255
1761411691936737300,1.1867373046875,-0.00931569468230009,0.00015271631127689034,-0.022449297830462456
1761411691953572400,1.203572265625,-0.025045474991202354,-0.0065668015740811825,-0.01725694350898266
1761411691970378800,1.220378662109375,-0.02932153269648552,-0.0074830991216003895,-0.023365596309304237
1761411691987227100,1.23722705078125,-0.02535090781748295,-0.015271631069481373,-0.029016099870204926
1761411692004042800,1.254042724609375,-0.01817324012517929,-0.020463986322283745,-0.02779436856508255
1761411692020863700,1.27086376953125,-0.013744467869400978,-0.024434609338641167,-0.01618792861700058
1761411692037688000,1.28768798828125,-0.014202617108821869,-0.02886338345706463,-0.007024950347840786
1761411692054511000,1.304510986328125,-0.014508049935102463,-0.016035212203860283,-0.001679879380390048
1761411692071314000,1.32131396484375,-0.015882495790719986,0.010537425056099892,-0.00855211354792118
1761411692088141300,1.338141357421875,-0.016035212203860283,0.04444044828414917,-0.01725694350898266
1761411692104968700,1.35496875,-0.018478672951459885,0.03634648025035858,-0.022449297830462456
1761411692121782000,1.371781982421875,-0.017409659922122955,0.007941247895359993,-0.019089538604021072
1761411692138609200,1.388609130859375,-0.01710422709584236,-0.006872233934700489,0.0029016099870204926
1761411692155431700,1.405431640625,-0.009926560334861279,-0.01618792861700058,0.019394971430301666
1761411692172255700,1.422255859375,-0.0009162978967651725,-0.031612277030944824,0.021380282938480377
1761411692189066200,1.439066162109375,0.004123340360820293,-0.026572637259960175,0.01466076634824276
1761411692205896400,1.455896484375,0.0029016099870204926,-0.01817324012517929,0.009010262787342072
1761411692222712800,1.472712890625,-0.0010690141934901476,-0.011759156361222267,0.008857546374201775
1761411692239538000,1.489537841796875,-0.0012217304902151227,-0.006108652334660292,0.001832595793530345
1761411692256359400,1.506359375,0.0006108652451075613,0.002138028386980295,-0.0032070425804704428
1761411692273182500,1.523182373046875,0,-0.004428773187100887,-0.0007635815418325365
1761411692290002200,1.540002197265625,-0.0027488935738801956,-0.014813481830060482,0.007635815534740686
1761411692306828800,1.556828857421875,-0.003817907767370343,-0.015577063895761967,0.01237002108246088
1761411692323650800,1.57365087890625,-0.0012217304902151227,-0.007788531947880983,0.007941247895359993
1761411692340474600,1.590474609375,-0.00015271631127689034,-0.0039706239476799965,-0.004581489134579897
1761411692357297700,1.607297607421875,-0.0010690141934901476,-0.0027488935738801956,-0.006719517521560192
1761411692374118400,1.624118408203125,-0.005345070734620094,-0.01114829070866108,-0.005192354787141085
1761411692390942200,1.640942138671875,-0.00809396430850029,-0.01618792861700058,0.0007635815418325365
1761411692407770000,1.65777001953125,-0.005650503560900688,-0.01664607785642147,0.0012217304902151227
1761411692424600300,1.674600341796875,0.0013744467869400978,-0.008857546374201775,0.0009162978967651725
1761411692441424100,1.691424072265625,-0.0006108652451075613,-0.0022907445672899485,-0.0013744467869400978
1761411692458246000,1.708245849609375,-0.010842857882380486,0.0003054326225537807,-0.014813481830060482
1761411692475069700,1.725069580078125,-0.020311269909143448,0.01970040425658226,-0.02932153269648552
1761411692491891700,1.7418916015625,-0.03191770985722542,0.03329215571284294,-0.04749477282166481
1761411692508719900,1.758719970703125,-0.027183502912521362,0.032528575509786606,-0.04886921867728233
1761411692525550800,1.77555078125,-0.020616702735424042,0.008857546374201775,-0.02932153269648552
1761411692542371000,1.79237109375,-0.0065668015740811825,-0.00733038317412138,0.004428773187100887
1761411692559192800,1.80919287109375,0.007941247895359993,-0.032070424407720566,0.026572637259960175
1761411692576024800,1.82602490234375,0.017409659922122955,-0.04734205827116966,0.034666601568460464
1761411692592812000,1.84281201171875,0.01664607785642147,-0.044745877385139465,0.032070424407720566
1761411692609666000,1.859666015625,0.01466076634824276,-0.027030786499381065,0.012064588256180286
1761411692626488600,1.876488525390625,0.01572977937757969,0.005955935921519995,-0.019089538604021072
1761411692643311600,1.8933115234375,0.012217304669320583,0.03787364438176155,-0.0403171069920063
1761411692660134700,1.910134765625,0.007788531947880983,0.041233405470848083,-0.029932396486401558
1761411692676957700,1.926957763671875,0.00427605677396059,0.020922135561704636,0.007635815534740686
1761411692693783300,1.943783203125,0.006108652334660292,-0.015271631069481373,0.03573561832308769
1761411692710600700,1.9606005859375,0.013897184282541275,-0.03344487398862839,0.04001167416572571
1761411692727410200,1.97741015625,0.01924225501716137,-0.03145955875515938,0.015882495790719986
1761411692744226000,1.99422607421875,0.017409659922122955,-0.017562376335263252,-0.014508049935102463
1761411692761062400,2.0110625,0.00931569468230009,0.005345070734620094,-0.04184427112340927
1761411692777873700,2.027873779296875,0.001527163083665073,0.030695978552103043,-0.07498370856046677
1761411692794699000,2.044698974609375,-0.0019853119738399982,0.05696318298578262,-0.11071932315826416
1761411692811531500,2.061531494140625,-0.0012217304902151227,0.05757404863834381,-0.11789698898792267
1761411692828346000,2.07834619140625,-0.001679879380390048,0.029932396486401558,-0.08307767659425735
1761411692845193000,2.09519287109375,-0.006872233934700489,0.01038470957428217,-0.03573561832308769
1761411692861992000,2.111991943359375,-0.00855211354792118,0.005955935921519995,-0.011759156361222267
1761411692878818600,2.128818603515625,-0.0039706239476799965,0.01817324012517929,-0.0022907445672899485
1761411692895640800,2.145640869140625,0.007941247895359993,0.038637228310108185,0.001679879380390048
1761411692912459500,2.16245947265625,0.013133603148162365,0.05421429127454758,0.003512475173920393
1761411692929286700,2.17928662109375,0.010079276748001575,0.057879481464624405,0.001527163083665073
1761411692946110200,2.196110107421875,0.007788531947880983,0.028557950630784035,-0.001679879380390048
1761411692962932700,2.2129326171875,0.010537425056099892,0.005955935921519995,-0.006261368747800589
1761411692979761200,2.22976123046875,0.014966198243200779,0.0074830991216003895,-0.00427605677396059
1761411692996596200,2.24659619140625,0.02275473065674305,0.003817907767370343,0
1761411693013419800,2.263419677734375,0.029474247246980667,0.003054326167330146,0.013439035043120384
1761411693030238200,2.28023828125,0.030085112899541855,0.001679879380390048,0.02733621932566166
1761411693047084500,2.29708447265625,0.026114489883184433,-0.004428773187100887,0.03176499158143997
1761411693063880700,2.313880615234375,0.02626720629632473,-0.010231993161141872,0.02733621932566166
1761411693080707800,2.330707763671875,0.02275473065674305,-0.012217304669320583,0.009162978269159794
1761411693097528300,2.3475283203125,0.017562376335263252,0.0022907445672899485,-0.00015271631127689034
1761411693114352600,2.3643525390625,0.0064140851609408855,0.01237002108246088,0.0003054326225537807
1761411693131170600,2.381170654296875,-0.001679879380390048,0.011759156361222267,0.014355333521962166
1761411693148001300,2.398001220703125,-0.0024434609804302454,0.007177666760981083,0.02779436856508255
1761411693164822500,2.414822509765625,0.0013744467869400978,0.001832595793530345,0.030695978552103043
1761411693181627400,2.43162744140625,0.00427605677396059,0.005345070734620094,0.029626963660120964
1761411693198466600,2.448466552734375,0.006108652334660292,0.011759156361222267,0.02932153269648552
1761411693215303400,2.465303466796875,0.003512475173920393,0.022143865004181862,0.03237585723400116
1761411693232095200,2.48209521484375,-0.0006108652451075613,0.02168571576476097,0.037110064178705215
1761411693248919300,2.498919189453125,-0.00427605677396059,0.015271631069481373,0.0403171069920063
1761411693265746400,2.515746337890625,-0.0029016099870204926,0.01572977937757969,0.03588833287358284
1761411693282556200,2.53255615234375,-0.0022907445672899485,0.01466076634824276,0.020616702735424042
1761411693299387000,2.549386962890625,-0.006719517521560192,0.01572977937757969,0.0009162978967651725
1761411693316216600,2.566216552734375,-0.013744467869400978,0.014049900695681572,-0.009010262787342072
1761411693333036500,2.58303662109375,-0.014355333521962166,0.005192354787141085,-0.0032070425804704428
1761411693349855700,2.599855712890625,-0.013439035043120384,0.0003054326225537807,0.01114829070866108
1761411693366677500,2.616677490234375,-0.008857546374201775,-0.012675453908741474,0.017867809161543846
1761411693383507700,2.6335078125,-0.0024434609804302454,-0.010690141469240189,0.017409659922122955
1761411693400324400,2.650324462890625,-0.00015271631127689034,0.001679879380390048,0.004734205547720194
1761411693417148000,2.66714794921875,-0.0025961773935705423,0.012064588256180286,-0.009926560334861279
1761411693433975800,2.683975830078125,-0.00931569468230009,0.005192354787141085,-0.011301007121801376
1761411693450813700,2.700813720703125,-0.01542434748262167,-0.005803219974040985,-0.0025961773935705423
1761411693467632400,2.71763232421875,-0.013439035043120384,-0.0024434609804302454,0.007941247895359993
1761411693484455700,2.73445556640625,-0.00733038317412138,-0.003054326167330146,0.006108652334660292
1761411693501264100,2.75126416015625,-0.0039706239476799965,-0.018478672951459885,0.0039706239476799965
1761411693518102800,2.768102783203125,-0.009621127508580685,-0.04535674303770065,0.001832595793530345
1761411693534923500,2.784923583984375,-0.019853120669722557,-0.05390885844826698,-0.006261368747800589
1761411693551730700,2.801730712890625,-0.022449297830462456,-0.032528575509786606,-0.02076941914856434
1761411693568568800,2.81856884765625,-0.020311269909143448,-0.007788531947880983,-0.032528575509786606
1761411693585393400,2.835393310546875,-0.017867809161543846,-0.001527163083665073,-0.0328340083360672
1761411693602202000,2.8522021484375,-0.012064588256180286,-0.0010690141934901476,-0.021838432177901268
1761411693619039000,2.8690390625,-0.011759156361222267,-0.009010262787342072,-0.00809396430850029
1761411693635847000,2.885846923828125,-0.010995574295520782,-0.016493361443281174,-0.004734205547720194
1761411693652703000,2.902702880859375,-0.013744467869400978,-0.026419922709465027,-0.013286318629980087
1761411693669506800,2.9195068359375,-0.02382374368607998,-0.029474247246980667,-0.026114489883184433
1761411693686328800,2.936328857421875,-0.029932396486401558,-0.007941247895359993,-0.03420845419168472
1761411693703155000,2.953155029296875,-0.029016099870204926,0.0010690141934901476,-0.036193765699863434
1761411693719973000,2.96997314453125,-0.021838432177901268,-0.008399397134780884,-0.03130684420466423
1761411693736785000,2.986784912109375,-0.021838432177901268,-0.01710422709584236,-0.023365596309304237
1761411693753608000,3.00360791015625,-0.01970040425658226,-0.010842857882380486,-0.0039706239476799965
1761411693770430500,3.020430419921875,-0.02367102913558483,-0.0065668015740811825,0.014966198243200779
1761411693787244800,3.037244873046875,-0.02015855349600315,-0.0012217304902151227,0.017867809161543846
1761411693804073200,3.0540732421875,-0.01771509274840355,0.00809396430850029,0.005039638374000788
1761411693820906200,3.07090625,-0.010995574295520782,0.02367102913558483,-0.011301007121801376
1761411693837718500,3.087718505859375,-0.009773843921720982,0.026572637259960175,-0.009773843921720982
1761411693854545400,3.10454541015625,-0.010995574295520782,0.015577063895761967,0.0024434609804302454
1761411693871367700,3.12136767578125,-0.01160643994808197,0.0022907445672899485,0.012675453908741474
1761411693888191000,3.13819091796875,-0.014202617108821869,-0.003817907767370343,0.0065668015740811825
1761411693905013500,3.155013427734375,-0.016493361443281174,-0.0003054326225537807,-0.0029016099870204926
1761411693921847300,3.171847412109375,-0.020463986322283745,0.0025961773935705423,-0.009468411095440388
1761411693938673200,3.188673095703125,-0.021991148591041565,0.006872233934700489,-0.012980886735022068
1761411693955483400,3.2054833984375,-0.02321287989616394,0.017867809161543846,-0.013897184282541275
1761411693972302800,3.222302734375,-0.025503624230623245,0.036041051149368286,-0.014813481830060482
1761411693989133300,3.23913330078125,-0.024587325751781464,0.04199698567390442,-0.01970040425658226
1761411694005973200,3.25597314453125,-0.02275473065674305,0.02672535367310047,-0.019089538604021072
1761411694022752500,3.27275244140625,-0.021532999351620674,-0.002138028386980295,-0.01924225501716137
1761411694039610600,3.289610595703125,-0.018478672951459885,-0.02886338345706463,-0.02229658141732216
1761411694056433700,3.30643359375,-0.00809396430850029,-0.029626963660120964,-0.02321287989616394
1761411694073256200,3.323256103515625,-0.001832595793530345,-0.01970040425658226,-0.021074850112199783
1761411694090079200,3.340079345703125,0.0009162978967651725,-0.003054326167330146,-0.018936822190880775
1761411694106886100,3.35688623046875,-0.001527163083665073,0.009926560334861279,-0.01572977937757969
1761411694123708200,3.373708251953125,-0.006108652334660292,0.009162978269159794,-0.020005837082862854
1761411694140553000,3.390552978515625,-0.010842857882380486,0.01618792861700058,-0.018020525574684143
1761411694157358300,3.4073583984375,-0.013133603148162365,0.022907447069883347,-0.012980886735022068
1761411694174192600,3.424192626953125,-0.008857546374201775,0.01466076634824276,-0.004581489134579897
1761411694191012900,3.441012939453125,-0.005497787147760391,0.013439035043120384,-0.00045814894838258624
1761411694207839000,3.4578388671875,0.0003054326225537807,0.017562376335263252,-0.005192354787141085
1761411694224648700,3.474648681640625,0.004123340360820293,0.00931569468230009,-0.011759156361222267
1761411694241463800,3.4914638671875,0.0007635815418325365,-0.0064140851609408855,-0.012675453908741474
1761411694258294300,3.508294189453125,-0.00427605677396059,-0.00855211354792118,-0.016035212203860283
1761411694275114800,3.52511474609375,-0.008399397134780884,0.004428773187100887,-0.022907447069883347
1761411694291941600,3.541941650390625,-0.010842857882380486,0.010231993161141872,-0.026572637259960175
1761411694308750000,3.55875,-0.010842857882380486,0.011453723534941673,-0.023060163483023643
1761411694325586000,3.5755859375,-0.01114829070866108,0.004581489134579897,-0.017409659922122955
1761411694342408200,3.592408203125,-0.010079276748001575,0.003054326167330146,-0.01924225501716137
1761411694359232800,3.609232666015625,-0.0065668015740811825,0.016035212203860283,-0.016798794269561768
1761411694376054000,3.626053955078125,-0.003054326167330146,0.026114489883184433,-0.008704829961061478
1761411694392869400,3.642869384765625,-0.0024434609804302454,0.02367102913558483,0.001832595793530345
1761411694409683500,3.659683349609375,-0.0010690141934901476,0.02687807008624077,0.006872233934700489
1761411694426523400,3.6765234375,0.002138028386980295,0.027947084978222847,0.00427605677396059
1761411694443343400,3.69334326171875,0.0007635815418325365,0.02367102913558483,0.0074830991216003895
1761411694460167000,3.7101669921875,-0.007177666760981083,0.012675453908741474,0.009926560334861279
1761411694476975600,3.7269755859375,-0.012828170321881771,0.010995574295520782,0.004123340360820293
1761411694493803800,3.7438037109375,-0.011759156361222267,0.007177666760981083,-0.006719517521560192
1761411694510624500,3.76062451171875,-0.00931569468230009,0.013744467869400978,-0.010995574295520782
1761411694527448000,3.777447998046875,-0.00931569468230009,0.020922135561704636,-0.006872233934700489
1761411694544271000,3.79427099609375,-0.012828170321881771,0.018020525574684143,0.0012217304902151227
1761411694561095000,3.811094970703125,-0.01542434748262167,0.00931569468230009,0.010537425056099892
1761411694577915600,3.82791552734375,-0.01618792861700058,-0.007941247895359993,0.015577063895761967
1761411694594754800,3.8447548828125,-0.014813481830060482,-0.01664607785642147,0.008246680721640587
1761411694611574300,3.86157421875,-0.018020525574684143,-0.00733038317412138,-0.008399397134780884
1761411694628386000,3.878385986328125,-0.024892758578062057,0.0007635815418325365,-0.021532999351620674
1761411694645222000,3.895221923828125,-0.028099801391363144,0.020463986322283745,-0.024587325751781464
1761411694662043600,3.912043701171875,-0.025503624230623245,0.03680463135242462,-0.024892758578062057
1761411694678865700,3.92886572265625,-0.02367102913558483,0.03680463135242462,-0.014355333521962166
1761411694695696400,3.9456962890625,-0.022449297830462456,0.0032070425804704428,-0.010231993161141872
1761411694712488400,3.962488525390625,-0.019853120669722557,-0.022907447069883347,-0.014202617108821869
1761411694729334800,3.979334716796875,-0.014813481830060482,-0.027030786499381065,-0.021074850112199783
1761411694746157000,3.996156982421875,-0.0027488935738801956,-0.00855211354792118,-0.020616702735424042
1761411694762980400,4.01298046875,0.006872233934700489,0.008246680721640587,-0.022602014243602753
1761411694779800300,4.02980029296875,0.011453723534941673,0.013591751456260681,-0.01970040425658226
1761411694796629200,4.046629150390625,0.010690141469240189,0.008246680721640587,-0.008704829961061478
1761411694813448700,4.06344873046875,0.008857546374201775,0.001679879380390048,0.009621127508580685
1761411694830272000,4.08027197265625,0.0013744467869400978,-0.010690141469240189,0.014508049935102463
1761411694847094500,4.097094482421875,-0.004581489134579897,-0.020922135561704636,0.0012217304902151227
1761411694863918000,4.11391796875,-0.01114829070866108,-0.01863138936460018,-0.016951510682702065
1761411694880740400,4.130740234375,-0.018478672951459885,-0.006719517521560192,-0.024892758578062057
1761411694897563400,4.1475634765625,-0.02535090781748295,-0.00427605677396059,-0.027641652151942253
1761411694914406700,4.16440673828125,-0.031154127791523933,-0.007941247895359993,-0.035124752670526505
1761411694931215400,4.18121533203125,-0.033139441162347794,-0.009010262787342072,-0.03985895588994026
1761411694948050000,4.1980498046875,-0.02977968007326126,-0.014813481830060482,-0.037110064178705215
1761411694964869000,4.214869140625,-0.024892758578062057,0.003817907767370343,-0.024892758578062057
1761411694981691600,4.231691650390625,-0.023365596309304237,0.013897184282541275,-0.012217304669320583
1761411694998514700,4.2485146484375,-0.019089538604021072,0.010995574295520782,-0.004428773187100887
1761411695015337000,4.2653369140625,-0.016493361443281174,0.008704829961061478,0.003817907767370343
1761411695032144000,4.282143798828125,-0.011453723534941673,0.015271631069481373,0.007635815534740686
1761411695048983300,4.2989833984375,-0.009621127508580685,0.00809396430850029,0.009010262787342072
1761411695065805800,4.315805908203125,-0.008704829961061478,-0.003817907767370343,0.009010262787342072
1761411695082628400,4.33262841796875,-0.009010262787342072,-0.008246680721640587,0.012217304669320583
1761411695099451600,4.34945166015625,-0.012522737495601177,-0.0019853119738399982,0.006261368747800589
1761411695116274200,4.366274169921875,-0.013286318629980087,0.005497787147760391,-0.004428773187100887
1761411695133101300,4.383101318359375,-0.013439035043120384,0.008857546374201775,-0.010079276748001575
1761411695149906000,4.399906005859375,-0.010537425056099892,-0.002138028386980295,-0.005650503560900688
1761411695166726400,4.416726318359375,-0.01038470957428217,-0.0074830991216003895,0.012980886735022068
1761411695183561700,4.433561767578125,-0.014049900695681572,-0.005955935921519995,0.02015855349600315
1761411695200376000,4.4503759765625,-0.009926560334861279,0.00733038317412138,0.01114829070866108
1761411695217194200,4.4671943359375,-0.0074830991216003895,0.02519819140434265,-0.0019853119738399982
1761411695234015500,4.484015380859375,-0.007941247895359993,0.03329215571284294,-0.007941247895359993
1761411695250841000,4.500841064453125,-0.007177666760981083,0.02321287989616394,-0.004428773187100887
1761411695267666700,4.517666748046875,-0.0006108652451075613,0.012522737495601177,0.005497787147760391
1761411695284492000,4.534491943359375,0.0074830991216003895,0.003512475173920393,0.014813481830060482
1761411695301309700,4.551309814453125,0.00809396430850029,-0.028099801391363144,0.009621127508580685
1761411695318138000,4.56813818359375,0.01237002108246088,-0.021380282938480377,-0.001832595793530345
1761411695334958300,4.584958251953125,0.005803219974040985,-0.01863138936460018,-0.018936822190880775
1761411695351780600,4.601780517578125,0.003054326167330146,-0.017867809161543846,-0.026572637259960175
1761411695368601900,4.618601806640625,0.0065668015740811825,-0.004123340360820293,-0.023518312722444534
1761411695385428700,4.6354287109375,0.012980886735022068,-0.006108652334660292,-0.014508049935102463
1761411695402254800,4.6522548828125,0.021074850112199783,-0.023518312722444534,-0.004734205547720194
1761411695419085800,4.6690859375,0.026419922709465027,-0.031001411378383636,0.007788531947880983
1761411695435909400,4.685909423828125,0.025503624230623245,-0.021532999351620674,0.013286318629980087
1761411695452732000,4.70273193359375,0.021074850112199783,-0.02886338345706463,0.0010690141934901476
1761411695469555000,4.719554931640625,0.018325956538319588,-0.03726277872920036,-0.007177666760981083
1761411695486373400,4.736373291015625,0.01664607785642147,-0.029168816283345222,-0.006261368747800589
1761411695503201000,4.753200927734375,0.01542434748262167,-0.010690141469240189,-0.004734205547720194
1761411695520027100,4.770027099609375,0.020616702735424042,-0.002138028386980295,-0.003054326167330146
1761411695536846300,4.786846435546875,0.014966198243200779,-0.010079276748001575,0.0003054326225537807
1761411695553635800,4.8036357421875,0.010537425056099892,-0.00015271631127689034,0.01237002108246088
1761411695570492400,4.820492431640625,-0.00015271631127689034,0.008704829961061478,0.02229658141732216
1761411695587296000,4.8372958984375,-0.012522737495601177,0.01114829070866108,0.016493361443281174
1761411695604123000,4.854122802734375,-0.018020525574684143,0.016951510682702065,0.003817907767370343
1761411695620944100,4.870944091796875,-0.018325956538319588,0.023518312722444534,0.0019853119738399982
1761411695637768200,4.887768310546875,-0.013133603148162365,0.019853120669722557,0.006872233934700489
1761411695654571800,4.90457177734375,-0.00366519158706069,0.017867809161543846,0.015118914656341076
1761411695671403300,4.9214033203125,0.0025961773935705423,0.013439035043120384,0.015271631069481373
1761411695688225000,4.93822509765625,0.005497787147760391,0.006719517521560192,0.0065668015740811825
1761411695705049000,4.955049072265625,0.00809396430850029,0.00015271631127689034,0.0003054326225537807
1761411695721871600,4.97187158203125,0.005345070734620094,-0.012675453908741474,0.005650503560900688
1761411695738695700,4.98869580078125,0.0025961773935705423,-0.01970040425658226,0.014966198243200779
1761411695755517400,5.005517333984375,0.003512475173920393,-0.017867809161543846,0.01114829070866108
1761411695772340000,5.022340087890625,0.004581489134579897,-0.01572977937757969,-0.0003054326225537807
1761411695789163000,5.0391630859375,0.010995574295520782,-0.017867809161543846,-0.005497787147760391
1761411695805986300,5.055986328125,0.018325956538319588,-0.02871066704392433,-0.006872233934700489
1761411695822808600,5.07280859375,0.021838432177901268,-0.027488935738801956,-0.00015271631127689034
1761411695839632100,5.089632080078125,0.020311269909143448,-0.009162978269159794,0.011301007121801376
1761411695856457500,5.10645751953125,0.01664607785642147,-0.004734205547720194,0.01878410577774048
1761411695873290200,5.123290283203125,0.013744467869400978,0.005803219974040985,0.019547687843441963
1761411695890100200,5.140100341796875,0.013133603148162365,0.03695734590291977,0.018478672951459885
1761411695906927400,5.15692724609375,0.014049900695681572,0.03649919852614403,0.020463986322283745
1761411695923758300,5.17375830078125,0.02321287989616394,0.03176499158143997,0.020616702735424042
1761411695940582100,5.19058203125,0.021838432177901268,0.03176499158143997,0.013133603148162365
1761411695957407500,5.207407470703125,0.014202617108821869,0.029016099870204926,-0.001832595793530345
1761411695974241500,5.224241455078125,0.003817907767370343,0.013591751456260681,-0.013286318629980087
1761411695991070000,5.241070068359375,-0.0024434609804302454,0.001527163083665073,-0.014049900695681572
1761411696007881000,5.257880859375,0.00015271631127689034,0.00045814894838258624,-0.014966198243200779
1761411696024701700,5.27470166015625,0.009010262787342072,-0.0027488935738801956,-0.01710422709584236
1761411696041531100,5.29153125,0.01618792861700058,-0.001679879380390048,-0.0039706239476799965
1761411696058357200,5.308357177734375,0.016340645030140877,0,0.009926560334861279
1761411696075199000,5.325198974609375,0.013897184282541275,-0.00366519158706069,0.012217304669320583
1761411696092000500,5.34200048828125,0.0074830991216003895,-0.0074830991216003895,0.001527163083665073
1761411696108803600,5.358803466796875,-0.0009162978967651725,-0.009010262787342072,-0.013133603148162365
1761411696125650700,5.375650634765625,-0.007788531947880983,-0.012217304669320583,-0.022907447069883347
1761411696142470100,5.39247021484375,-0.018936822190880775,-0.02428189292550087,-0.023976460099220276
1761411696159271700,5.409271728515625,-0.028557950630784035,-0.03329215571284294,-0.028557950630784035
1761411696176119600,5.42611962890625,-0.03145955875515938,-0.03573561832308769,-0.03573561832308769
1761411696192931300,5.442931396484375,-0.035582900047302246,-0.03329215571284294,-0.035124752670526505
1761411696209750000,5.45975,-0.04077525436878204,-0.015577063895761967,-0.03084869496524334
1761411696226552300,5.47655224609375,-0.04642575979232788,-0.00733038317412138,-0.022907447069883347
1761411696243390700,5.493390625,-0.046273041516542435,0.0032070425804704428,-0.016951510682702065
1761411696260216600,5.510216552734375,-0.04092797264456749,0.011759156361222267,-0.011759156361222267
1761411696277041700,5.527041748046875,-0.030237829312682152,0.014508049935102463,-0.010690141469240189
1761411696293848800,5.543848876953125,-0.019089538604021072,0.00366519158706069,-0.011759156361222267
1761411696310683100,5.56068310546875,-0.014202617108821869,-0.007788531947880983,-0.012980886735022068
1761411696327507200,5.577507080078125,-0.01542434748262167,-0.010537425056099892,-0.01725694350898266
1761411696344330800,5.594330810546875,-0.014966198243200779,-0.00809396430850029,-0.023518312722444534
1761411696361150700,5.611150634765625,-0.01664607785642147,0.009773843921720982,-0.012064588256180286
1761411696377996500,5.62799658203125,-0.016951510682702065,0.02275473065674305,0.00015271631127689034
1761411696394813000,5.64481298828125,-0.007788531947880983,0.025961773470044136,0.007941247895359993
1761411696411636200,5.66163623046875,0.0039706239476799965,0.024434609338641167,0.00931569468230009
1761411696428477200,5.678477294921875,0.01664607785642147,0.021991148591041565,0.012675453908741474
1761411696445283000,5.695282958984375,0.023365596309304237,0.012522737495601177,0.01817324012517929
1761411696462104300,5.712104248046875,0.028557950630784035,0.00809396430850029,0.01970040425658226
1761411696478900700,5.728900634765625,0.02733621932566166,-0.0013744467869400978,0.013897184282541275
1761411696495750000,5.74575,0.02275473065674305,-0.007635815534740686,0.006108652334660292
1761411696512577300,5.762577392578125,0.016035212203860283,-0.007177666760981083,0.001527163083665073
1761411696529395700,5.779395751953125,0.00931569468230009,-0.0065668015740811825,-0.0019853119738399982
1761411696546211800,5.7962119140625,0.00427605677396059,-0.007635815534740686,-0.012217304669320583
1761411696563048400,5.81304833984375,0.003054326167330146,-0.009162978269159794,-0.02015855349600315
1761411696579865000,5.829864990234375,0.00427605677396059,-0.020311269909143448,-0.02428189292550087
1761411696596680400,5.846680419921875,0.0025961773935705423,-0.01771509274840355,-0.011759156361222267
1761411696613517300,5.863517333984375,-0.007024950347840786,-0.020005837082862854,-0.0010690141934901476
1761411696630333400,5.88033349609375,-0.013286318629980087,-0.025656340643763542,-0.015118914656341076
1761411696647156500,5.897156494140625,-0.013744467869400978,-0.01924225501716137,-0.037110064178705215
1761411696663985000,5.91398486328125,-0.01114829070866108,-0.009468411095440388,-0.03527746722102165
1761411696680777200,5.930777099609375,-0.005039638374000788,0.001679879380390048,-0.00809396430850029
1761411696697612500,5.947612548828125,0.0024434609804302454,0.004581489134579897,0.017409659922122955
1761411696714433800,5.964433837890625,0.009468411095440388,0.0027488935738801956,0.02626720629632473
1761411696731243500,5.981243408203125,0.009621127508580685,-0.0012217304902151227,0.02428189292550087
1761411696748079600,5.99807958984375,0.003817907767370343,-0.00855211354792118,0.024129176512360573
1761411696764902100,6.014902099609375,-0.003512475173920393,-0.006872233934700489,0.023976460099220276
1761411696781725400,6.031725341796875,-0.007788531947880983,0.0007635815418325365,0.017867809161543846
1761411696798544400,6.04854443359375,-0.010537425056099892,0.01114829070866108,0.005803219974040985
1761411696815358200,6.065358154296875,-0.012217304669320583,0.01572977937757969,0.00427605677396059
1761411696832193500,6.082193603515625,-0.015118914656341076,0.005955935921519995,0.01863138936460018
1761411696849016800,6.099016845703125,-0.01572977937757969,-0.007941247895359993,0.02886338345706463
1761411696865881300,6.11588134765625,-0.016493361443281174,-0.0027488935738801956,0.02580905705690384
1761411696882660000,6.13266015625,-0.018020525574684143,0.024587325751781464,0.022449297830462456
1761411696899495200,6.1494951171875,-0.02275473065674305,0.03237585723400116,0.02321287989616394
1761411696916326700,6.16632666015625,-0.018325956538319588,0.02779436856508255,0.02519819140434265
1761411696933145000,6.18314501953125,-0.01237002108246088,0.02275473065674305,0.018325956538319588
1761411696949963800,6.1999638671875,-0.0012217304902151227,0.028405234217643738,0.00733038317412138
1761411696966796300,6.21679638671875,0.00045814894838258624,0.03894266113638878,0.0074830991216003895
1761411696983612700,6.23361279296875,-0.00733038317412138,0.043676864355802536,0.018325956538319588
1761411697000436000,6.25043603515625,-0.011453723534941673,0.03390302136540413,0.023365596309304237
1761411697017259800,6.267259765625,-0.009010262787342072,0.019394971430301666,0.018325956538319588
1761411697034084900,6.2840849609375,-0.0027488935738801956,0.021838432177901268,0.00366519158706069
1761411697050904600,6.300904541015625,0.008246680721640587,0.035124752670526505,0.001832595793530345
1761411697067722000,6.317721923828125,0.012675453908741474,0.027488935738801956,0.004428773187100887
1761411697084554200,6.33455419921875,0.015577063895761967,0.007788531947880983,0.011453723534941673
1761411697101373400,6.35137353515625,0.016798794269561768,0.001832595793530345,0.016798794269561768
1761411697118196500,6.368196533203125,0.017409659922122955,0.013744467869400978,0.012675453908741474
1761411697135019500,6.38501953125,0.016035212203860283,0.01664607785642147,0.002138028386980295
1761411697151842300,6.40184228515625,0.01466076634824276,0.018478672951459885,-0.003359758760780096
1761411697168658200,6.418658203125,0.012980886735022068,0.01466076634824276,-0.004886921960860491
1761411697185478000,6.435477783203125,0.014355333521962166,0.010690141469240189,-0.004581489134579897
1761411697202296800,6.452296875,0.00733038317412138,-0.0013744467869400978,-0.009010262787342072
1761411697219120000,6.4691201171875,0.003512475173920393,-0.012828170321881771,-0.01878410577774048
1761411697235931100,6.48593115234375,0.005497787147760391,-0.01924225501716137,-0.029474247246980667
1761411697252777200,6.502777099609375,0.00809396430850029,-0.021532999351620674,-0.03191770985722542
1761411697269591800,6.519591796875,-0.00045814894838258624,-0.01725694350898266,-0.024587325751781464
1761411697286411500,6.53641162109375,-0.013897184282541275,-0.016493361443281174,-0.01725694350898266
1761411697303219000,6.553218994140625,-0.017562376335263252,-0.016340645030140877,-0.01664607785642147
1761411697320048600,6.570048583984375,-0.01710422709584236,-0.006719517521560192,-0.015577063895761967
1761411697336879900,6.5868798828125,-0.016493361443281174,0.004734205547720194,-0.020005837082862854
1761411697353716700,6.603716796875,-0.015118914656341076,0.009621127508580685,-0.020005837082862854
1761411697370526700,6.620526611328125,-0.013744467869400978,0.005955935921519995,-0.010995574295520782
1761411697387347500,6.637347412109375,-0.01237002108246088,-0.003054326167330146,-0.001527163083665073
1761411697404185600,6.654185546875,-0.014813481830060482,-0.00045814894838258624,0.007788531947880983
1761411697421008000,6.6710078125,-0.018936822190880775,0.0010690141934901476,0.005345070734620094
1761411697437800700,6.68780078125,-0.016493361443281174,-0.001832595793530345,-0.004428773187100887
1761411697454654700,6.70465478515625,-0.012522737495601177,-0.001679879380390048,-0.010079276748001575
1761411697471477000,6.72147705078125,-0.012217304669320583,0.0003054326225537807,-0.010079276748001575
1761411697488300500,6.738300537109375,-0.013439035043120384,-0.006261368747800589,-0.004123340360820293
1761411697505122800,6.755122802734375,-0.019853120669722557,-0.018020525574684143,0.0006108652451075613
1761411697521945600,6.771945556640625,-0.02275473065674305,-0.016340645030140877,0.001527163083665073
1761411697538768400,6.788768310546875,-0.026572637259960175,0.00045814894838258624,0.0019853119738399982
1761411697555591700,6.805591796875,-0.02519819140434265,0.018325956538319588,-0.00427605677396059
1761411697572419000,6.822419189453125,-0.019853120669722557,0.026114489883184433,-0.012828170321881771
1761411697589229300,6.839229248046875,-0.01725694350898266,0.025961773470044136,-0.007788531947880983
1761411697606062600,6.8560625,-0.017562376335263252,0.01237002108246088,0.004886921960860491
1761411697622876400,6.87287646484375,-0.017409659922122955,-0.006108652334660292,0.01924225501716137
1761411697639708400,6.88970849609375,-0.015271631069481373,-0.005955935921519995,0.018020525574684143
1761411697656553000,6.906552978515625,-0.010079276748001575,0.005039638374000788,0.0024434609804302454
1761411697673335600,6.92333544921875,-0.007635815534740686,0.004123340360820293,-0.016035212203860283
1761411697690158800,6.940158935546875,-0.00931569468230009,0.00366519158706069,-0.024129176512360573
1761411697706983000,6.95698291015625,-0.010231993161141872,0.003359758760780096,-0.012828170321881771
1761411697723796200,6.973796142578125,-0.007788531947880983,-0.0003054326225537807,0.0009162978967651725
1761411697740628700,6.990628662109375,-0.0010690141934901476,-0.0022907445672899485,0.003054326167330146
1761411697757452500,7.00745263671875,0.005955935921519995,-0.004734205547720194,0.0012217304902151227
1761411697774274600,7.024274658203125,0.009010262787342072,-0.0029016099870204926,0.0013744467869400978
1761411697791082000,7.04108203125,0.006261368747800589,-0.003054326167330146,-0.001832595793530345
1761411697807923200,7.057923095703125,0.005192354787141085,-0.0003054326225537807,-0.0065668015740811825
1761411697824730600,7.074730712890625,0.001832595793530345,-0.006261368747800589,-0.011453723534941673
1761411697841571000,7.091571044921875,-0.0012217304902151227,-0.010842857882380486,-0.014355333521962166
1761411697858373600,7.10837353515625,-0.005955935921519995,-0.024892758578062057,-0.01863138936460018
1761411697875209000,7.125208984375,-0.004886921960860491,-0.036193765699863434,-0.020922135561704636
1761411697892048600,7.142048583984375,-0.0039706239476799965,-0.02932153269648552,-0.017562376335263252
1761411697908877300,7.158877197265625,-0.0074830991216003895,-0.02367102913558483,-0.016493361443281174
1761411697925668000,7.175668212890625,-0.021074850112199783,-0.03756821155548096,-0.022602014243602753
1761411697942502100,7.192502197265625,-0.029016099870204926,-0.03878994286060333,-0.025656340643763542
1761411697959323600,7.20932373046875,-0.030085112899541855,-0.02519819140434265,-0.02687807008624077
1761411697976144000,7.226143798828125,-0.02122756652534008,-0.012522737495601177,-0.019853120669722557
1761411697992959200,7.242959228515625,-0.01664607785642147,0.007941247895359993,0.00045814894838258624
1761411698009783300,7.259783203125,-0.010537425056099892,0.007941247895359993,0.019394971430301666
1761411698026609000,7.27660888671875,-0.0074830991216003895,-0.0009162978967651725,0.03130684420466423
1761411698043426300,7.29342626953125,-0.009010262787342072,-0.0009162978967651725,0.028557950630784035
1761411698060250600,7.310250732421875,-0.01237002108246088,0.0007635815418325365,0.019853120669722557
1761411698077074700,7.32707470703125,-0.01924225501716137,-0.012675453908741474,0.01160643994808197
1761411698093898000,7.34389794921875,-0.02275473065674305,-0.01771509274840355,0.005650503560900688
1761411698110719000,7.360718994140625,-0.02626720629632473,-0.0039706239476799965,0.004123340360820293
1761411698127558100,7.37755810546875,-0.031154127791523933,-0.0027488935738801956,0.002138028386980295
1761411698144377900,7.3943779296875,-0.031154127791523933,-0.010231993161141872,0.0064140851609408855
1761411698161198300,7.4111982421875,-0.03390302136540413,-0.024434609338641167,0.007635815534740686
1761411698178026500,7.428026611328125,-0.03191770985722542,-0.02229658141732216,0.005192354787141085
1761411698194834200,7.444834228515625,-0.029168816283345222,-0.018936822190880775,-0.0012217304902151227
1761411698211666200,7.461666259765625,-0.023976460099220276,-0.006108652334660292,-0.003817907767370343
1761411698228492500,7.478492431640625,-0.02428189292550087,-0.0022907445672899485,0.0003054326225537807
1761411698245318100,7.495318115234375,-0.02015855349600315,-0.005650503560900688,0.00855211354792118
1761411698262139000,7.512138916015625,-0.007024950347840786,-0.017409659922122955,0.012980886735022068
1761411698278960600,7.528960693359375,0.00427605677396059,-0.033597588539123535,0.020616702735424042
1761411698295784200,7.5457841796875,0.013591751456260681,-0.022602014243602753,0.02779436856508255
1761411698312607200,7.562607177734375,0.014202617108821869,-0.007024950347840786,0.030543262138962746
1761411698329447200,7.579447265625,0.009621127508580685,0.0012217304902151227,0.017562376335263252
1761411698346266000,7.59626611328125,0.00809396430850029,0.011301007121801376,-0.004886921960860491
1761411698363090000,7.61308984375,0.0065668015740811825,0.016798794269561768,-0.01237002108246088
1761411698379894800,7.629894775390625,0.007941247895359993,0.015271631069481373,-0.001832595793530345
1761411698396735500,7.646735595703125,0.009468411095440388,-0.0010690141934901476,0.009621127508580685
1761411698413576400,7.663576416015625,0.011453723534941673,-0.013133603148162365,0.008246680721640587
1761411698430356000,7.68035595703125,0.01038470957428217,-0.02428189292550087,0.0027488935738801956
1761411698447212000,7.6972119140625,0.00366519158706069,-0.016951510682702065,0.005497787147760391
1761411698464028400,7.7140283203125,-0.007788531947880983,0.01542434748262167,0.003054326167330146
1761411698480847000,7.73084716796875,-0.016951510682702065,0.03787364438176155,-0.002138028386980295
1761411698497653800,7.74765380859375,-0.019547687843441963,0.03894266113638878,-0.008704829961061478
1761411698514494700,7.76449462890625,-0.01970040425658226,0.039706241339445114,-0.0065668015740811825
1761411698531297000,7.781297119140625,-0.018325956538319588,0.03375030308961868,-0.0010690141934901476
1761411698548145000,7.798144775390625,-0.01466076634824276,0.012980886735022068,0.0013744467869400978
1761411698564964400,7.81496435546875,-0.01160643994808197,0.003359758760780096,-0.003359758760780096
1761411698581769700,7.831769775390625,-0.012217304669320583,0.0064140851609408855,-0.014966198243200779
1761411698598597000,7.84859716796875,-0.013439035043120384,0.006108652334660292,-0.02321287989616394
1761411698615419600,7.865419677734375,-0.00733038317412138,-0.006108652334660292,-0.024892758578062057
1761411698632247800,7.882247802734375,0.011301007121801376,-0.013591751456260681,-0.022602014243602753
1761411698649063400,7.8990634765625,0.024892758578062057,-0.01878410577774048,-0.015882495790719986
1761411698665889500,7.9158896484375,0.027183502912521362,-0.021074850112199783,0.0006108652451075613
1761411698682712800,7.932712890625,0.01863138936460018,-0.019394971430301666,0.01572977937757969
1761411698699533300,7.949533203125,0.012675453908741474,-0.005192354787141085,0.013897184282541275
1761411698716355600,7.96635546875,0.009162978269159794,0.01924225501716137,0.005955935921519995
1761411698733178600,7.9831787109375,0.005650503560900688,0.040164388716220856,-0.0022907445672899485
1761411698750001400,8.00000146484375,0.004734205547720194,0.04108068719506264,-0.0027488935738801956
1761411698766824400,8.016824462890625,0.010690141469240189,0.024434609338641167,0.002138028386980295
1761411698783647200,8.033647216796876,0.014966198243200779,-0.005345070734620094,0.005955935921519995
1761411698800459300,8.050459228515624,0.014813481830060482,-0.03084869496524334,0.009468411095440388
1761411698817277700,8.067277587890626,0.013744467869400978,-0.02672535367310047,0.0039706239476799965
1761411698834108700,8.084108642578125,0.01664607785642147,0.0012217304902151227,-0.01817324012517929
1761411698850935000,8.10093505859375,0.020463986322283745,0.03420845419168472,-0.041233405470848083
1761411698867780900,8.11778076171875,0.024129176512360573,0.045204028487205505,-0.04688390716910362
1761411698884597800,8.13459765625,0.031612277030944824,0.030237829312682152,-0.024587325751781464
1761411698901421300,8.15142138671875,0.04199698567390442,0.003054326167330146,-0.005955935921519995
1761411698918239500,8.168239501953124,0.05345070734620094,-0.018325956538319588,-0.00427605677396059
1761411698935054600,8.1850546875,0.06230825558304787,-0.023365596309304237,-0.01466076634824276
1761411698951889700,8.2018896484375,0.061391957104206085,-0.02687807008624077,-0.025503624230623245
1761411698968708400,8.218708251953124,0.054825156927108765,-0.02474004216492176,-0.03405573591589928
1761411698985524200,8.235524169921876,0.04596760869026184,-0.014508049935102463,-0.03481931984424591
1761411699002359000,8.252359130859375,0.04444044828414917,-0.004734205547720194,-0.027488935738801956
1761411699019150300,8.269150390625,0.047189339995384216,0.00366519158706069,-0.011301007121801376
1761411699035997000,8.285996826171875,0.04963280260562897,0.006719517521560192,0.004428773187100887
1761411699052800000,8.302800048828125,0.04596760869026184,0.005497787147760391,0.01572977937757969
1761411699069611800,8.31961181640625,0.038026362657547,-0.001679879380390048,0.01618792861700058
1761411699086475500,8.3364755859375,0.03237585723400116,0.0006108652451075613,0.007177666760981083
1761411699103292000,8.3532919921875,0.024129176512360573,0.008246680721640587,-0.006261368747800589
1761411699120122000,8.3701220703125,0.018478672951459885,0.010995574295520782,-0.009010262787342072
1761411699136926200,8.38692626953125,0.020005837082862854,0.012980886735022068,-0.00015271631127689034
1761411699153734700,8.403734619140625,0.025961773470044136,0.01237002108246088,0.01710422709584236
1761411699170568200,8.420568115234374,0.03084869496524334,0.013439035043120384,0.03634648025035858
1761411699187383600,8.437383544921875,0.028405234217643738,-0.001527163083665073,0.034666601568460464
1761411699204206800,8.454206787109374,0.017867809161543846,-0.007941247895359993,0.01710422709584236
1761411699221029000,8.471029052734375,0.010537425056099892,0.004581489134579897,-0.00015271631127689034
1761411699237852700,8.487852783203126,0.009162978269159794,0.021991148591041565,-0.0032070425804704428
1761411699254675000,8.504675048828124,0.01878410577774048,0.041233405470848083,0.009621127508580685
1761411699271498800,8.521498779296875,0.026572637259960175,0.02886338345706463,0.033139441162347794
1761411699288320800,8.53832080078125,0.033597588539123535,0.014049900695681572,0.05146539583802223
1761411699305144600,8.55514453125,0.0377209298312664,0.0064140851609408855,0.05757404863834381
1761411699321965800,8.5719658203125,0.031001411378383636,0.00366519158706069,0.04596760869026184
1761411699338789000,8.5887890625,0.024434609338641167,0.008399397134780884,0.017562376335263252
1761411699355612700,8.60561279296875,0.012675453908741474,0.020463986322283745,-0.005955935921519995
1761411699372440600,8.622440673828125,0.003359758760780096,0.03145955875515938,-0.019394971430301666
1761411699389270500,8.6392705078125,-0.0003054326225537807,0.02382374368607998,-0.021074850112199783
1761411699406093600,8.656093505859374,0.0032070425804704428,0.012522737495601177,-0.008857546374201775
1761411699422916000,8.672916015625,0.005192354787141085,-0.001527163083665073,-0.0010690141934901476
1761411699439746300,8.689746337890625,0.006108652334660292,-0.010842857882380486,0.0007635815418325365
1761411699456562000,8.70656201171875,0.0027488935738801956,-0.01038470957428217,0.0010690141934901476
1761411699473388500,8.723388427734376,0.0012217304902151227,0,0.00427605677396059
1761411699490221300,8.74022119140625,0.0006108652451075613,0.0039706239476799965,-0.005497787147760391
1761411699507044600,8.757044677734376,0.00427605677396059,0.00427605677396059,-0.01664607785642147
1761411699523850500,8.7738505859375,0.00931569468230009,-0.0029016099870204926,-0.011759156361222267
1761411699540690400,8.7906904296875,0.012064588256180286,-0.006108652334660292,0.006261368747800589
1761411699557498000,8.807498046875,0.008704829961061478,-0.008857546374201775,0.014355333521962166
1761411699574301400,8.824301513671875,0.006261368747800589,-0.01924225501716137,0.0039706239476799965
1761411699591154400,8.841154541015625,0.005803219974040985,-0.02382374368607998,-0.008857546374201775
1761411699607986000,8.85798583984375,0.006872233934700489,-0.011453723534941673,-0.013439035043120384
1761411699624804600,8.8748046875,0.005345070734620094,-0.004581489134579897,-0.0064140851609408855
1761411699641610800,8.89161083984375,-0.002138028386980295,-0.01572977937757969,0.004734205547720194
1761411699658433500,8.90843359375,-0.0064140851609408855,-0.03222314268350601,0.01160643994808197
1761411699675249400,8.92524951171875,-0.009773843921720982,-0.03176499158143997,0.016035212203860283
1761411699692082200,8.942082275390625,-0.013439035043120384,-0.028099801391363144,0.023365596309304237
1761411699708905500,8.958905517578126,-0.007635815534740686,0.013591751456260681,0.030237829312682152
1761411699725728000,8.97572802734375,-0.016035212203860283,0.03222314268350601,0.031612277030944824
1761411699742551000,8.992551025390625,-0.01970040425658226,0.02275473065674305,0.026572637259960175
1761411699759373300,9.009373291015624,-0.01191187184303999,0.02015855349600315,0.02871066704392433
1761411699776187600,9.026187744140625,-0.005803219974040985,0.011453723534941673,0.032070424407720566
1761411699793020200,9.043020263671876,0.001679879380390048,-0.00015271631127689034,0.03375030308961868
1761411699809856000,9.05985595703125,-0.00045814894838258624,-0.017409659922122955,0.026572637259960175
1761411699826662100,9.076662109375,-0.0064140851609408855,-0.023976460099220276,0.014355333521962166
1761411699843488800,9.09348876953125,-0.014966198243200779,-0.02168571576476097,0.00015271631127689034
1761411699860330500,9.11033056640625,-0.014813481830060482,-0.013744467869400978,-0.007635815534740686
1761411699877148200,9.127148193359375,-0.015882495790719986,-0.02672535367310047,-0.0065668015740811825
1761411699893970700,9.143970703125,-0.014813481830060482,-0.03222314268350601,0.003359758760780096
1761411699910794200,9.160794189453124,-0.015118914656341076,-0.02382374368607998,0.009773843921720982
1761411699927616000,9.177615966796875,-0.022907447069883347,-0.02886338345706463,0.002138028386980295
1761411699944439600,9.194439453125,-0.03451388701796532,-0.03451388701796532,-0.012675453908741474
1761411699961240800,9.21124072265625,-0.04306599870324135,-0.020616702735424042,-0.021074850112199783
1761411699978088200,9.228088134765626,-0.044135015457868576,0.007024950347840786,-0.024587325751781464
1761411699994912800,9.244912841796875,-0.039095375686883926,0.019547687843441963,-0.02168571576476097
1761411700011710700,9.261710693359374,-0.02932153269648552,0.013439035043120384,-0.008246680721640587
1761411700028528400,9.2785283203125,-0.02321287989616394,-0.006108652334660292,0.005955935921519995
1761411700045385000,9.295385009765624,-0.020005837082862854,-0.004886921960860491,0.018325956538319588
1761411700062199800,9.31219970703125,-0.019394971430301666,0.005955935921519995,0.01618792861700058
1761411700079022300,9.329022216796876,-0.018478672951459885,0.004428773187100887,0.0024434609804302454
1761411700095840300,9.34584033203125,-0.010995574295520782,0.004123340360820293,-0.009926560334861279
1761411700112655400,9.3626552734375,-0.005650503560900688,-0.0012217304902151227,-0.011453723534941673
1761411700129473500,9.3794736328125,-0.001527163083665073,-0.008399397134780884,-0.0012217304902151227
1761411700146300200,9.396300048828126,0.001832595793530345,-0.014966198243200779,0.01038470957428217
1761411700163122200,9.4131220703125,0.003359758760780096,-0.013591751456260681,0.020616702735424042
1761411700179946000,9.429946044921875,-0.0019853119738399982,0.004581489134579897,0.015577063895761967
1761411700196768300,9.446768310546876,-0.00855211354792118,0.013897184282541275,-0.004123340360820293
1761411700213591800,9.463591796875,-0.014966198243200779,0.010690141469240189,-0.028099801391363144
1761411700230414000,9.4804140625,-0.02122756652534008,-0.0007635815418325365,-0.0354301854968071
1761411700247237400,9.4972373046875,-0.024587325751781464,0.001679879380390048,-0.024129176512360573
1761411700264060000,9.514059814453125,-0.02626720629632473,0.016798794269561768,-0.013744467869400978
1761411700280900400,9.530900390625,-0.023518312722444534,0.047189339995384216,-0.008857546374201775
1761411700297719600,9.547719482421876,-0.020311269909143448,0.05665775015950203,-0.004886921960860491
1761411700314542600,9.56454248046875,-0.01970040425658226,0.06536258012056351,-0.0006108652451075613
1761411700331371000,9.58137109375,-0.01771509274840355,0.07971791177988052,0.01771509274840355
1761411700348182800,9.598182861328125,-0.022907447069883347,0.07666359096765518,0.02825251780450344
1761411700365011000,9.615010986328125,-0.0039706239476799965,0.05421429127454758,0.01710422709584236
1761411700381836800,9.6318369140625,0.02229658141732216,0.03436116874217987,0.04734205827116966
1761411700398654000,9.648654052734376,0.024129176512360573,-0.08307767659425735,0.04382958263158798
1761411700415463200,9.665463134765625,0.03726277872920036,-0.07971791177988052,0.03680463135242462
1761411700432301800,9.6823017578125,0.01771509274840355,-0.0630718395113945,-0.024587325751781464
1761411700449128200,9.699128173828125,-0.0019853119738399982,-0.010537425056099892,-0.06688974797725677
1761411700465945900,9.71594580078125,-0.012217304669320583,0.03375030308961868,-0.04841107130050659
