time,seconds_elapsed,z,y,x
1761486763210221800,0.137221923828125,-0.04917465150356293,0.035582900047302246,-0.04917465150356293
1761486763227045600,0.154045654296875,-0.06398813426494598,0.03222314268350601,-0.058184914290905
1761486763243865000,0.170864990234375,-0.06719517707824707,0.01466076634824276,-0.048258353024721146
1761486763260658700,0.18765869140625,-0.051312681287527084,-0.005497787147760391,-0.039706241339445114
1761486763277514200,0.20451416015625,-0.02519819140434265,-0.002138028386980295,-0.03451388701796532
1761486763294346800,0.2213466796875,0.00015271631127689034,0.013286318629980087,-0.016340645030140877
1761486763311148000,0.23814794921875,0.01237002108246088,0.012980886735022068,0.010995574295520782
1761486763327983900,0.25498388671875,0.01237002108246088,-0.009468411095440388,0.027183502912521362
1761486763344807200,0.27180712890625,0.02168571576476097,-0.0010690141934901476,0.040622539818286896
1761486763361619500,0.288619384765625,0.025656340643763542,0.004123340360820293,0.04214970022439957
1761486763378455800,0.305455810546875,0.03130684420466423,-0.0019853119738399982,0.03741549700498581
1761486763395277800,0.32227783203125,0.03191770985722542,-0.01970040425658226,0.022449297830462456
1761486763412110800,0.33911083984375,0.03695734590291977,-0.003817907767370343,0.020005837082862854
1761486763428954400,0.355954345703125,0.03940080851316452,-0.007177666760981083,0.02229658141732216
1761486763445752300,0.37275244140625,0.04489859566092491,-0.01114829070866108,0.019394971430301666
1761486763462607000,0.389607177734375,0.04459316283464432,-0.007177666760981083,0.002138028386980295
1761486763479426000,0.406426025390625,0.045204028487205505,-0.005345070734620094,-0.01542434748262167
1761486763496257500,0.423257568359375,0.039095375686883926,-0.001832595793530345,-0.006719517521560192
1761486763513080000,0.440080078125,0.03329215571284294,0.0025961773935705423,0.02519819140434265
1761486763529903900,0.45690380859375,0.021838432177901268,-0.016340645030140877,0.04993823543190956
1761486763546732800,0.47373291015625,0.012064588256180286,-0.04382958263158798,0.05421429127454758
1761486763563544600,0.490544677734375,0.00045814894838258624,-0.06918048858642578,0.04108068719506264
1761486763580370200,0.5073701171875,-0.001679879380390048,-0.06811147183179855,0.013744467869400978
1761486763597197600,0.524197509765625,0.003817907767370343,-0.03481931984424591,-0.022143865004181862
1761486763614022000,0.54102197265625,0.0009162978967651725,0.00931569468230009,-0.056810468435287476
1761486763630848300,0.55784814453125,-0.02122756652534008,0.010537425056099892,-0.04963280260562897
1761486763647677400,0.574677490234375,-0.04214970022439957,-0.0006108652451075613,-0.02229658141732216
1761486763664515000,0.59151513671875,-0.06154467165470123,-0.02672535367310047,-0.0032070425804704428
1761486763681325800,0.608325927734375,-0.0607810914516449,0.004734205547720194,0.006108652334660292
1761486763698162200,0.625162109375,-0.05192354694008827,0.08200865983963013,0.010690141469240189
1761486763714977500,0.6419775390625,-0.05971207842230797,0.1495092660188675,-0.001527163083665073
1761486763731803100,0.65880322265625,-0.06902777403593063,0.15592335164546967,0.0009162978967651725
1761486763748631300,0.67563134765625,-0.09728029370307922,0.08261952549219131,0.030237829312682152
1761486763765456000,0.692455810546875,-0.12278391420841217,0.0039706239476799965,0.0630718395113945
1761486763782281200,0.70928125,-0.11194105446338654,-0.014966198243200779,0.06673702597618103
1761486763799109400,0.726109375,-0.08185594528913498,0.027488935738801956,0.05390885844826698
1761486763815949300,0.74294921875,-0.05619960278272629,0.08460483700037003,0.05650503560900688
1761486763832773600,0.759773681640625,-0.05390885844826698,0.11209376901388168,0.08628471940755844
1761486763849600000,0.77660009765625,-0.07147123664617538,0.09712757170200348,0.13179416954517365
1761486763866409200,0.7934091796875,-0.12400564551353455,0.06123924255371094,0.18936823308467865
1761486763883250400,0.81025048828125,-0.19562959671020508,0.006872233934700489,0.2379320114850998
1761486763900070100,0.827070068359375,-0.24144448339939117,0.00855211354792118,0.2509129047393799
1761486763916908800,0.84390869140625,-0.23136521875858307,0.08994990587234497,0.19914206862449646
1761486763933729500,0.8607294921875,-0.1814269721508026,0.17150041460990906,0.11255192011594772
1761486763950552800,0.877552734375,-0.13408492505550385,0.19196440279483795,0.04153883829712868
1761486763967377700,0.894377685546875,-0.11835514008998871,0.15424346923828125,0.0019853119738399982
1761486763984220400,0.911220458984375,-0.12660181522369385,0.09987647086381912,-0.0039706239476799965
1761486764001033500,0.928033447265625,-0.1310305893421173,0.04566217586398125,0.00733038317412138
1761486764017854200,0.944854248046875,-0.12003502249717712,0.018325956538319588,0.0354301854968071
1761486764034687700,0.961687744140625,-0.08949175477027893,-0.0029016099870204926,0.0685696229338646
1761486764051492400,0.978492431640625,-0.04596760869026184,-0.0006108652451075613,0.09743300825357437
1761486764068323600,0.995323486328125,-0.004734205547720194,-0.0032070425804704428,0.10659598559141159
1761486764085148000,1.01214794921875,0.015271631069481373,-0.007788531947880983,0.08903361111879349
1761486764101974300,1.028974365234375,0.024892758578062057,-0.013286318629980087,0.0555887371301651
1761486764118799600,1.045799560546875,0.019853120669722557,-0.015882495790719986,0.028405234217643738
1761486764135627300,1.062627197265625,0.011453723534941673,-0.01664607785642147,0.014813481830060482
1761486764152468700,1.07946875,0.019853120669722557,-0.008399397134780884,0.009926560334861279
1761486764169291500,1.09629150390625,0.02825251780450344,-0.01572977937757969,-0.0039706239476799965
1761486764186114000,1.113114013671875,0.046731192618608475,-0.0009162978967651725,-0.014966198243200779
1761486764202935000,1.12993505859375,0.07299839705228806,-0.0065668015740811825,-0.0012217304902151227
1761486764219755000,1.146755126953125,0.08475755155086517,-0.035124752670526505,0.04703662544488907
1761486764236581600,1.16358154296875,0.08048149943351746,-0.06200282275676727,0.10002918541431427
1761486764253394000,1.180393798828125,0.07024950534105301,-0.05803219974040985,0.10949759185314178
1761486764270236400,1.197236328125,0.06185010448098183,-0.16920967400074005,0.03084869496524334
1761486764287072500,1.214072509765625,0.05421429127454758,-0.12110403180122375,-0.04886921867728233
1761486764303899600,1.230899658203125,0.048716504126787186,-0.032528575509786606,-0.09834930300712585
1761486764320724200,1.24772412109375,0.038179077208042145,0.047189339995384216,-0.09453139454126358
1761486764337552000,1.2645517578125,0.03130684420466423,0.07757988572120667,-0.06352998316287994
1761486764354370000,1.2813701171875,0.020922135561704636,0.03481931984424591,-0.04856378585100174
1761486764371191800,1.29819189453125,0.02076941914856434,-0.060475658625364304,-0.04382958263158798
1761486764388024800,1.31502490234375,0.02367102913558483,-0.07559457421302795,-0.02825251780450344
1761486764404854800,1.331854736328125,0.014966198243200779,-0.01114829070866108,-0.014202617108821869
1761486764421667600,1.34866748046875,0.0019853119738399982,0.050243668258190155,-0.0003054326225537807
1761486764438503400,1.36550341796875,-0.005345070734620094,0.06383541971445084,0.007177666760981083
1761486764455335000,1.3823349609375,-0.005955935921519995,0.044135015457868576,0.003359758760780096
1761486764472165400,1.399165283203125,-0.0019853119738399982,-0.0012217304902151227,-0.02122756652534008
1761486764488983800,1.41598388671875,0.014508049935102463,-0.025961773470044136,-0.04398229718208313
1761486764505793500,1.43279345703125,0.02519819140434265,-0.018936822190880775,-0.05604688450694084
1761486764522635800,1.4496357421875,0.029474247246980667,-0.00015271631127689034,-0.055894169956445694
1761486764539445800,1.46644580078125,0.01771509274840355,0.007024950347840786,-0.043676864355802536
1761486764556273400,1.4832734375,0.012522737495601177,0.010690141469240189,-0.012980886735022068
1761486764573100000,1.50010009765625,0.013133603148162365,-0.005650503560900688,0.01771509274840355
1761486764589925400,1.51692529296875,0.02474004216492176,-0.021532999351620674,0.03191770985722542
1761486764606741000,1.533740966796875,0.038026362657547,-0.030695978552103043,0.018020525574684143
1761486764623577600,1.55057763671875,0.05375614017248154,-0.021991148591041565,-0.016035212203860283
1761486764640393700,1.567393798828125,0.06536258012056351,-0.015118914656341076,-0.04306599870324135
1761486764657236700,1.58423681640625,0.06765332818031311,-0.034666601568460464,-0.05849034711718559
1761486764674093000,1.601093017578125,0.06291911751031876,-0.027030786499381065,-0.05146539583802223
1761486764690880800,1.617880859375,0.05360342562198639,-0.00809396430850029,-0.03588833287358284
1761486764707694600,1.634694580078125,0.04153883829712868,-0.009010262787342072,-0.027641652151942253
1761486764724536300,1.651536376953125,0.04444044828414917,-0.019547687843441963,-0.020616702735424042
1761486764741340400,1.66834033203125,0.05971207842230797,-0.04764748737215996,-0.027183502912521362
1761486764758201900,1.685201904296875,0.08246681094169617,-0.060322944074869156,-0.040622539818286896
1761486764775015400,1.702015380859375,0.10186178237199783,-0.05772676691412926,-0.060933809727430344
1761486764791849000,1.718848876953125,0.11499538272619247,-0.05604688450694084,-0.08827003091573715
1761486764817074200,1.74407421875,0.07330382615327835,-0.03298672288656235,-0.07284568250179291
1761486764833919200,1.760919189453125,0.03329215571284294,-0.023976460099220276,-0.02977968007326126
1761486764850720300,1.77772021484375,0.00427605677396059,-0.016798794269561768,0.008857546374201775
1761486764867567000,1.794567138671875,0.014049900695681572,-0.007024950347840786,0.011453723534941673
1761486764884392700,1.811392822265625,0.032681290060281754,0.007177666760981083,-0.006261368747800589
1761486764901188900,1.82818896484375,0.04001167416572571,0.005497787147760391,-0.020463986322283745
1761486764918044700,1.845044677734375,0.029168816283345222,0.0064140851609408855,-0.01771509274840355
1761486764934870500,1.86187060546875,0.013897184282541275,0.009010262787342072,-0.014049900695681572
1761486764951679700,1.8786796875,0.006108652334660292,0.030085112899541855,-0.010231993161141872
1761486764968522500,1.8955224609375,-0.00045814894838258624,0.03695734590291977,-0.007177666760981083
1761486764985348400,1.912348388671875,-0.001832595793530345,0.022602014243602753,-0.014355333521962166
1761486765002158000,1.929157958984375,-0.0019853119738399982,0.019394971430301666,-0.02871066704392433
1761486765019000000,1.946,0.0006108652451075613,0.01710422709584236,-0.03649919852614403
1761486765035809000,1.96280908203125,0.003054326167330146,0.018478672951459885,-0.026419922709465027
1761486765052638500,1.979638427734375,0.004581489134579897,0.02626720629632473,-0.008399397134780884
1761486765069464300,1.99646435546875,0.008399397134780884,0.023365596309304237,0.015882495790719986
1761486765086290200,2.013290283203125,0.016951510682702065,0.01771509274840355,0.02535090781748295
1761486765103103000,2.03010302734375,0.031154127791523933,0.007635815534740686,0.012064588256180286
1761486765119942000,2.04694189453125,0.03726277872920036,0.0039706239476799965,0.0003054326225537807
1761486765136768800,2.063768798828125,0.03039054572582245,-0.012675453908741474,-0.001832595793530345
1761486765153607400,2.080607421875,0.01970040425658226,-0.019547687843441963,-0.00015271631127689034
1761486765170416600,2.097416748046875,0.01970040425658226,-0.014202617108821869,-0.006872233934700489
1761486765187245800,2.114245849609375,0.03222314268350601,0.006719517521560192,-0.008857546374201775
1761486765204069000,2.131069091796875,0.030543262138962746,0.013897184282541275,0.001527163083665073
1761486765220896500,2.147896484375,0.013591751456260681,-0.0039706239476799965,0.016951510682702065
1761486765237724700,2.164724609375,-0.0029016099870204926,-0.021991148591041565,0.020311269909143448
1761486765254531300,2.18153125,-0.010079276748001575,-0.013439035043120384,0.01542434748262167
1761486765271392300,2.198392333984375,-0.012217304669320583,0.01038470957428217,-0.0039706239476799965
1761486765288215800,2.2152158203125,-0.015577063895761967,0.021991148591041565,-0.03237585723400116
1761486765305025000,2.23202490234375,-0.014966198243200779,0.018020525574684143,-0.05314527451992035
1761486765321863000,2.24886279296875,-0.01771509274840355,-0.0006108652451075613,-0.05696318298578262
1761486765338696700,2.26569677734375,-0.021380282938480377,-0.006719517521560192,-0.04917465150356293
1761486765355518500,2.2825185546875,-0.009162978269159794,-0.007941247895359993,-0.04245513305068016
1761486765372344800,2.2993447265625,0.013897184282541275,-0.010231993161141872,-0.033139441162347794
1761486765389170200,2.316170166015625,0.03237585723400116,-0.013897184282541275,-0.014202617108821869
1761486765405996500,2.33299658203125,0.034666601568460464,-0.007635815534740686,0.010231993161141872
1761486765422806000,2.349805908203125,0.023976460099220276,-0.005345070734620094,0.018936822190880775
1761486765439648500,2.3666484375,0.02168571576476097,0.007177666760981083,0.007024950347840786
1761486765456474400,2.383474365234375,0.027183502912521362,0.004123340360820293,-0.008857546374201775
1761486765473300000,2.400300048828125,0.026114489883184433,-0.00733038317412138,-0.01466076634824276
1761486765490128400,2.41712841796875,0.020311269909143448,-0.004734205547720194,-0.016493361443281174
1761486765506972400,2.433972412109375,0.009621127508580685,-0.007788531947880983,-0.018478672951459885
1761486765523760600,2.4507607421875,-0.00366519158706069,-0.012522737495601177,-0.021532999351620674
1761486765540589800,2.46758984375,-0.008246680721640587,0.0007635815418325365,-0.027641652151942253
1761486765557416000,2.484416015625,-0.009621127508580685,0.025656340643763542,-0.03573561832308769
1761486765574244000,2.501244140625,-0.008857546374201775,0.032528575509786606,-0.044745877385139465
1761486765591065300,2.5180654296875,-0.014355333521962166,0.032681290060281754,-0.04932736977934837
1761486765607880400,2.53488037109375,-0.023060163483023643,0.033597588539123535,-0.055283304303884506
1761486765624737000,2.551737060546875,-0.03940080851316452,0.02519819140434265,-0.05345070734620094
1761486765641537800,2.568537841796875,-0.04046982154250145,0.02871066704392433,-0.05009094998240471
1761486765658372000,2.5853720703125,-0.028099801391363144,0.046273041516542435,-0.05803219974040985
1761486765675197200,2.602197265625,-0.020005837082862854,0.04688390716910362,-0.07009678333997726
1761486765692023300,2.619023193359375,-0.013591751456260681,0.03726277872920036,-0.07269296050071716
1761486765708849200,2.63584912109375,-0.005955935921519995,0.002138028386980295,-0.06551529467105865
1761486765725675000,2.652675048828125,0.012675453908741474,-0.02580905705690384,-0.05467243865132332
1761486765742501000,2.669501220703125,0.04260785132646561,-0.04138612002134323,-0.0555887371301651
1761486765759335400,2.68633544921875,0.08338310569524765,-0.046273041516542435,-0.06398813426494598
1761486765776166700,2.703166748046875,0.10949759185314178,-0.049785517156124115,-0.056352317333221436
1761486765792992500,2.719992431640625,0.10934487730264664,-0.056352317333221436,-0.030237829312682152
1761486765809814000,2.73681396484375,0.09040805697441101,-0.07208210229873657,-0.00809396430850029
1761486765826648300,2.7536484375,0.057879481464624405,-0.09315694868564606,-0.014202617108821869
1761486765843470000,2.770469970703125,0.024434609338641167,-0.0809396430850029,-0.03955352306365967
1761486765860296200,2.787296142578125,-0.009162978269159794,-0.05696318298578262,-0.07467827945947647
1761486765877105200,2.804105224609375,-0.02519819140434265,-0.03741549700498581,-0.10293079167604446
1761486765893943800,2.82094384765625,-0.03145955875515938,-0.013744467869400978,-0.11285735666751862
1761486765910777900,2.83777783203125,-0.03878994286060333,-0.0013744467869400978,-0.098502017557621
1761486765927599400,2.854599365234375,-0.05421429127454758,0.0019853119738399982,-0.05757404863834381
1761486765944425500,2.871425537109375,-0.05971207842230797,0.016951510682702065,-0.015271631069481373
1761486765961244400,2.888244384765625,-0.05009094998240471,0.03649919852614403,0.015577063895761967
1761486765978073000,2.905072998046875,-0.032528575509786606,0.03375030308961868,0.028405234217643738
1761486765994907400,2.921907470703125,-0.029168816283345222,0.007177666760981083,0.023365596309304237
1761486766011712500,2.93871240234375,-0.030085112899541855,0.009621127508580685,0.005192354787141085
1761486766028528400,2.9555283203125,-0.027030786499381065,0.027947084978222847,-0.009621127508580685
1761486766045367800,2.972367919921875,-0.028099801391363144,0.03955352306365967,-0.001832595793530345
1761486766062179800,2.989179931640625,-0.027030786499381065,0.04886921867728233,0.018325956538319588
1761486766079021000,3.00602099609375,-0.020922135561704636,0.052381694316864014,0.02779436856508255
1761486766095843000,3.022843017578125,-0.011301007121801376,0.04459316283464432,0.01863138936460018
1761486766112688000,3.039688232421875,0.001679879380390048,0.02275473065674305,0.00855211354792118
1761486766129510100,3.05651025390625,0.013439035043120384,0.009162978269159794,-0.003054326167330146
1761486766146314500,3.073314453125,0.01710422709584236,0.014355333521962166,-0.010995574295520782
1761486766163153400,3.0901533203125,0.011301007121801376,0.026572637259960175,-0.003359758760780096
1761486766179974700,3.106974609375,0.00015271631127689034,0.019853120669722557,0.010537425056099892
1761486766196800500,3.123800537109375,-0.009621127508580685,0.008246680721640587,0.026419922709465027
1761486766213626400,3.14062646484375,-0.020005837082862854,0.005650503560900688,0.01710422709584236
1761486766230439200,3.157439208984375,-0.025045474991202354,0.013439035043120384,-0.005345070734620094
1761486766247291400,3.17429150390625,-0.01710422709584236,0.020463986322283745,-0.014966198243200779
1761486766264121900,3.191121826171875,-0.01160643994808197,0.02321287989616394,-0.009010262787342072
1761486766280927200,3.20792724609375,-0.01237002108246088,0.036193765699863434,0.005497787147760391
1761486766297766000,3.224765869140625,-0.010995574295520782,0.04856378585100174,0.030085112899541855
1761486766314599400,3.241599365234375,-0.007941247895359993,0.02367102913558483,0.060933809727430344
1761486766331406300,3.25840625,0.0013744467869400978,-0.022907447069883347,0.07987063378095627
1761486766348248000,3.275248046875,0.0010690141934901476,-0.05772676691412926,0.07467827945947647
1761486766365072600,3.29207275390625,-0.009010262787342072,-0.04337143152952194,0.04657847434282303
1761486766381899500,3.3088994140625,-0.021074850112199783,0.004581489134579897,0.013133603148162365
1761486766398721000,3.325720947265625,-0.016951510682702065,0.04046982154250145,-0.005955935921519995
1761486766415536400,3.342536376953125,-0.011301007121801376,0.043218716979026794,-0.00045814894838258624
1761486766432361000,3.35936083984375,-0.017562376335263252,0.02015855349600315,0.03145955875515938
1761486766449186600,3.3761865234375,-0.023365596309304237,-0.0074830991216003895,0.06551529467105865
1761486766466012000,3.393011962890625,-0.01572977937757969,-0.012522737495601177,0.07712173461914062
1761486766482845000,3.409844970703125,-0.002138028386980295,-0.005803219974040985,0.06429356336593628
1761486766499657500,3.426657470703125,0.013591751456260681,0.011759156361222267,0.038637228310108185
1761486766516493600,3.44349365234375,0.02474004216492176,0.007635815534740686,0.01725694350898266
1761486766533321200,3.4603212890625,0.030543262138962746,-0.021838432177901268,0.01542434748262167
1761486766550144800,3.477144775390625,0.03329215571284294,-0.03894266113638878,0.02428189292550087
1761486766566970600,3.493970703125,0.024129176512360573,-0.02580905705690384,0.022602014243602753
1761486766583774700,3.510774658203125,0.0027488935738801956,-0.0065668015740811825,0.003512475173920393
1761486766600625000,3.527625,-0.027488935738801956,0.006872233934700489,-0.023060163483023643
1761486766617452800,3.544452880859375,-0.06352998316287994,0.01572977937757969,-0.04917465150356293
1761486766634270700,3.561270751953125,-0.08475755155086517,0.02871066704392433,-0.07131851464509964
1761486766651097600,3.57809765625,-0.0757472887635231,0.028099801391363144,-0.08659014850854874
1761486766667928600,3.594928466796875,-0.046731192618608475,0.015271631069481373,-0.08277224004268646
1761486766684752000,3.611751953125,-0.017409659922122955,-0.0022907445672899485,-0.059864792972803116
1761486766701578200,3.628578125,0.00809396430850029,-0.01618792861700058,-0.02626720629632473
1761486766718403800,3.64540380859375,0.01572977937757969,-0.03375030308961868,0.00366519158706069
1761486766735247000,3.6622470703125,0.009621127508580685,-0.04199698567390442,0.02672535367310047
1761486766752069000,3.679069091796875,0.01160643994808197,-0.03405573591589928,0.04153883829712868
1761486766768891600,3.6958916015625,0.01160643994808197,-0.02168571576476097,0.041233405470848083
1761486766785724700,3.712724609375,0.001527163083665073,0.0025961773935705423,0.02886338345706463
1761486766802546700,3.729546630859375,-0.019089538604021072,0,0.016798794269561768
1761486766819369000,3.746368896484375,-0.026114489883184433,-0.003512475173920393,0.02122756652534008
1761486766836202800,3.76320263671875,-0.02825251780450344,-0.003817907767370343,0.033139441162347794
1761486766853025000,3.78002490234375,-0.035582900047302246,-0.0022907445672899485,0.049785517156124115
1761486766869850600,3.7968505859375,-0.05406157299876213,-0.0029016099870204926,0.06322455406188965
1761486766886679600,3.813679443359375,-0.06750060617923737,-0.007177666760981083,0.0630718395113945
1761486766903502600,3.830502685546875,-0.0685696229338646,-0.0007635815418325365,0.050243668258190155
1761486766920328200,3.847328125,-0.055283304303884506,0.021532999351620674,0.028405234217643738
1761486766937153300,3.8641533203125,-0.039706241339445114,0.035582900047302246,0.016340645030140877
1761486766953981700,3.880981689453125,-0.03329215571284294,0.01725694350898266,0.021991148591041565
1761486766970818600,3.897818603515625,-0.029932396486401558,0.0007635815418325365,0.03756821155548096
1761486766987637800,3.9146376953125,-0.024892758578062057,0.003359758760780096,0.04902193695306778
1761486767004435000,3.93143505859375,-0.02076941914856434,0.0006108652451075613,0.046273041516542435
1761486767021281500,3.948281494140625,-0.01160643994808197,0.009010262787342072,0.030237829312682152
1761486767038095000,3.96509521484375,-0.010079276748001575,0.02367102913558483,0.010079276748001575
1761486767054926600,3.981926513671875,-0.01114829070866108,0.022449297830462456,-0.006108652334660292
1761486767071747800,3.998747802734375,-0.013439035043120384,-0.005955935921519995,-0.008246680721640587
1761486767088573700,4.01557373046875,-0.008246680721640587,-0.021991148591041565,0.005192354787141085
1761486767105411800,4.032411865234375,-0.008399397134780884,-0.025045474991202354,0.012828170321881771
1761486767122219300,4.04921923828125,-0.0039706239476799965,-0.006108652334660292,0.012675453908741474
1761486767139054000,4.06605419921875,0.0027488935738801956,-0.0039706239476799965,0.015118914656341076
1761486767155886600,4.082886474609375,0.006261368747800589,-0.01664607785642147,0.015118914656341076
1761486767172703200,4.099703125,0.004886921960860491,-0.017409659922122955,0.0029016099870204926
1761486767189529000,4.116529052734375,0.011759156361222267,-0.008246680721640587,-0.01924225501716137
1761486767206355000,4.13335498046875,0.003817907767370343,-0.0032070425804704428,-0.02932153269648552
1761486767223194400,4.1501943359375,-0.0064140851609408855,-0.022449297830462456,-0.021380282938480377
1761486767240024300,4.1670244140625,0,-0.039248090237379074,-0.01710422709584236
1761486767256846300,4.183846435546875,0.010231993161141872,-0.052381694316864014,-0.016493361443281174
1761486767273668600,4.200668701171875,0.013591751456260681,-0.07696902006864548,-0.020311269909143448
1761486767290502400,4.21750244140625,0.009773843921720982,-0.09483683109283447,-0.027641652151942253
1761486767307321600,4.234321533203125,0.014355333521962166,-0.0907134860754013,-0.02474004216492176
1761486767324150500,4.251150634765625,0.017867809161543846,-0.07788532227277756,-0.021838432177901268
1761486767340975900,4.267975830078125,0.008246680721640587,-0.07956519722938538,-0.018478672951459885
1761486767357802800,4.284802734375,0.01771509274840355,-0.04841107130050659,0.009926560334861279
1761486767374613800,4.30161376953125,0.029016099870204926,-0.02825251780450344,0.05451972410082817
1761486767391453700,4.31845361328125,0.03634648025035858,-0.021074850112199783,0.09269879758358002
1761486767408276000,4.33527587890625,0.03649919852614403,-0.03344487398862839,0.10262536257505417
1761486767425102000,4.35210205078125,0.028405234217643738,-0.03940080851316452,0.08307767659425735
1761486767441931800,4.368931884765625,0.005650503560900688,-0.01160643994808197,0.044745877385139465
1761486767458741500,4.385741455078125,-0.006719517521560192,0.029932396486401558,0.014966198243200779
1761486767475583000,4.4025830078125,-0.0012217304902151227,0.0659734457731247,0.017409659922122955
1761486767492377000,4.419377197265625,0.009468411095440388,0.07559457421302795,0.04642575979232788
1761486767509223400,4.436223388671875,0.008399397134780884,0.060475658625364304,0.06841690838336945
1761486767526046500,4.45304638671875,0.0064140851609408855,0.046731192618608475,0.06551529467105865
1761486767542873600,4.46987353515625,0.005803219974040985,0.039248090237379074,0.030085112899541855
1761486767559699000,4.486698974609375,0.00366519158706069,0.04108068719506264,-0.04092797264456749
1761486767576524800,4.50352490234375,0.012980886735022068,0.04581489413976669,-0.10064005106687546
1761486767593364500,4.520364501953125,0.029016099870204926,0.029474247246980667,-0.11789698898792267
1761486767610177000,4.537177001953125,0.05406157299876213,0.006108652334660292,-0.10522153973579407
1761486767627002600,4.554002685546875,0.07437284290790558,-0.007177666760981083,-0.07590000331401825
1761486767643828500,4.570828369140625,0.0757472887635231,-0.01878410577774048,-0.048716504126787186
1761486767660641800,4.587641845703125,0.07192938029766083,-0.029016099870204926,-0.031612277030944824
1761486767677480400,4.60448046875,0.0731511116027832,-0.03039054572582245,-0.03176499158143997
1761486767694306000,4.62130615234375,0.06276640295982361,-0.023060163483023643,-0.04108068719506264
1761486767711149600,4.638149658203125,0.05146539583802223,-0.03680463135242462,-0.05910121276974678
1761486767727971800,4.654971923828125,0.04642575979232788,-0.0455094613134861,-0.07376197725534439
1761486767744817000,4.67181689453125,0.04459316283464432,-0.03634648025035858,-0.07987063378095627
1761486767761619500,4.688619384765625,0.046273041516542435,-0.016493361443281174,-0.07651086896657944
1761486767778449400,4.705449462890625,0.04398229718208313,-0.01237002108246088,-0.0630718395113945
1761486767795280000,4.72227978515625,0.035582900047302246,-0.017409659922122955,-0.051312681287527084
1761486767812096000,4.739095947265625,0.02122756652534008,-0.031001411378383636,-0.050243668258190155
1761486767828932600,4.7559326171875,0.01191187184303999,-0.021074850112199783,-0.04963280260562897
1761486767845730800,4.772730712890625,0.005039638374000788,-0.0064140851609408855,-0.04505131021142006
1761486767862583000,4.7895830078125,0.002138028386980295,0,-0.04734205827116966
1761486767879405000,4.806405029296875,-0.002138028386980295,0.013133603148162365,-0.04886921867728233
1761486767896197400,4.823197265625,-0.008857546374201775,0.015882495790719986,-0.04214970022439957
1761486767913056500,4.840056396484375,-0.009621127508580685,0.02229658141732216,-0.019394971430301666
1761486767929883000,4.8568828125,-0.00015271631127689034,0.03390302136540413,-0.005039638374000788
1761486767946708500,4.87370849609375,0.007941247895359993,0.03084869496524334,-0.0012217304902151227
1761486767963533600,4.890533447265625,0.008246680721640587,0.0065668015740811825,-0.004734205547720194
1761486767980344600,4.907344482421875,-0.00045814894838258624,-0.019089538604021072,-0.014202617108821869
1761486767997172500,4.92417236328125,-0.012522737495601177,-0.04199698567390442,-0.024587325751781464
1761486768013995300,4.940995361328125,-0.010231993161141872,-0.03405573591589928,-0.038179077208042145
1761486768030827500,4.95782763671875,0.0065668015740811825,-0.00733038317412138,-0.04108068719506264
1761486768047650300,4.974650390625,0.013744467869400978,-0.010537425056099892,-0.0065668015740811825
1761486768064476400,4.991476318359375,0.010537425056099892,-0.03695734590291977,0.033597588539123535
1761486768081319200,5.008319091796875,0.004734205547720194,-0.050854530185461044,0.06429356336593628
1761486768098124500,5.02512451171875,-0.005345070734620094,-0.034666601568460464,0.07101308554410934
1761486768114941000,5.04194091796875,-0.020463986322283745,0.010690141469240189,0.0630718395113945
1761486768131779800,5.05877978515625,-0.04688390716910362,0.043218716979026794,0.05054909735918045
1761486768148605700,5.075605712890625,-0.06536258012056351,0.05390885844826698,0.0354301854968071
1761486768165431600,5.092431640625,-0.06643159687519073,0.03634648025035858,0.016951510682702065
1761486768182244000,5.109244140625,-0.058948494493961334,0.017867809161543846,0.0024434609804302454
1761486768199100700,5.1261005859375,-0.052228979766368866,-0.0025961773935705423,-0.011301007121801376
1761486768215909000,5.1429091796875,-0.042760565876960754,-0.011759156361222267,-0.02535090781748295
1761486768232747800,5.159747802734375,-0.03130684420466423,0.00045814894838258624,-0.04245513305068016
1761486768249574100,5.17657421875,-0.02275473065674305,0.02428189292550087,-0.060322944074869156
1761486768266401500,5.193401611328125,-0.012828170321881771,0.02626720629632473,-0.05803219974040985
1761486768283226400,5.210226318359375,0.006261368747800589,-0.0029016099870204926,-0.03878994286060333
1761486768300038100,5.2270380859375,0.02428189292550087,-0.04077525436878204,-0.018325956538319588
1761486768316878300,5.24387841796875,0.03695734590291977,-0.059864792972803116,-0.009926560334861279
1761486768333704200,5.2607041015625,0.04917465150356293,-0.06688974797725677,-0.016951510682702065
1761486768350525700,5.277525634765625,0.055894169956445694,-0.05268712714314461,-0.03039054572582245
1761486768367360000,5.294360107421875,0.04092797264456749,-0.025656340643763542,-0.037110064178705215
1761486768384182300,5.311182373046875,0.01924225501716137,-0.006872233934700489,-0.032528575509786606
1761486768401007400,5.32800732421875,0.0064140851609408855,-0.022143865004181862,-0.029474247246980667
1761486768417829600,5.34482958984375,0.0065668015740811825,-0.027183502912521362,-0.028557950630784035
1761486768434687000,5.36168701171875,0.00855211354792118,-0.020922135561704636,-0.025656340643763542
1761486768451484200,5.378484130859375,0.0024434609804302454,-0.01924225501716137,-0.02382374368607998
1761486768468308500,5.39530859375,-0.010537425056099892,-0.025503624230623245,-0.026572637259960175
1761486768485123600,5.41212353515625,-0.025503624230623245,-0.018325956538319588,-0.03649919852614403
1761486768501949400,5.428949462890625,-0.045204028487205505,0.0032070425804704428,-0.04581489413976669
1761486768518779400,5.445779296875,-0.05375614017248154,0.021380282938480377,-0.061391957104206085
1761486768535601400,5.462601318359375,-0.05345070734620094,0.030237829312682152,-0.06902777403593063
1761486768552427300,5.47942724609375,-0.04108068719506264,0.0377209298312664,-0.07223481684923172
1761486768569256400,5.49625634765625,-0.017867809161543846,0.030695978552103043,-0.06185010448098183
1761486768586075400,5.513075439453125,0.0064140851609408855,0.010537425056099892,-0.03833179548382759
1761486768602904800,5.52990478515625,0.02122756652534008,-0.030237829312682152,-0.00427605677396059
1761486768619731000,5.54673095703125,0.030695978552103043,-0.04505131021142006,0.027183502912521362
1761486768636556500,5.563556640625,0.03329215571284294,-0.02871066704392433,0.0354301854968071
1761486768653382700,5.580382568359375,0.02519819140434265,-0.009621127508580685,0.02672535367310047
1761486768670207500,5.59720751953125,0.016951510682702065,0.014508049935102463,0.01572977937757969
1761486768687052300,5.61405224609375,0.01237002108246088,0.029932396486401558,0.0024434609804302454
1761486768703874000,5.6308740234375,0.007941247895359993,0.013439035043120384,-0.013133603148162365
1761486768720700000,5.647699951171875,-0.0032070425804704428,-0.02580905705690384,-0.012675453908741474
1761486768737525800,5.66452587890625,-0.01725694350898266,-0.04902193695306778,0.003359758760780096
1761486768754350800,5.681350830078125,-0.027030786499381065,-0.04535674303770065,0.01038470957428217
1761486768771178200,5.69817822265625,-0.025961773470044136,-0.01618792861700058,0.004734205547720194
1761486768788003300,5.71500341796875,-0.01863138936460018,-0.00427605677396059,-0.005345070734620094
1761486768804829400,5.731829345703125,-0.010231993161141872,-0.005497787147760391,-0.005803219974040985
1761486768821655000,5.748655029296875,-0.0039706239476799965,-0.009468411095440388,0.004123340360820293
1761486768838476300,5.765476318359375,-0.005803219974040985,-0.013897184282541275,0.02535090781748295
1761486768855312600,5.782312744140625,-0.0039706239476799965,-0.019089538604021072,0.05100724846124649
1761486768872132900,5.7991328125,-0.0025961773935705423,-0.023060163483023643,0.06368270516395569
1761486768888959200,5.815959228515625,0.0010690141934901476,-0.02977968007326126,0.06123924255371094
1761486768905782000,5.832781982421875,0.00733038317412138,-0.027488935738801956,0.04764748737215996
1761486768922592800,5.8495927734375,0.01542434748262167,0.003512475173920393,0.0403171069920063
1761486768939441200,5.866441162109375,0.01771509274840355,0.01863138936460018,0.0377209298312664
1761486768956263200,5.88326318359375,0.01863138936460018,0.017562376335263252,0.03985895588994026
1761486768973058600,5.90005859375,0.014049900695681572,0.0006108652451075613,0.03695734590291977
1761486768989900500,5.916900634765625,0.011301007121801376,0.0074830991216003895,0.03436116874217987
1761486769006726400,5.933726318359375,0.013897184282541275,0.020616702735424042,0.02229658141732216
1761486769023552300,5.95055224609375,0.02076941914856434,0.04734205827116966,-0.00366519158706069
1761486769040378000,5.967378173828125,0.03405573591589928,0.03634648025035858,-0.018325956538319588
1761486769057204200,5.984204345703125,0.03405573591589928,0.018020525574684143,-0.0029016099870204926
1761486769074030300,6.0010302734375,0.010231993161141872,-0.009621127508580685,0.03329215571284294
1761486769090856000,6.01785595703125,-0.007941247895359993,-0.009621127508580685,0.048105638474226
1761486769107681800,6.034681884765625,-0.006261368747800589,0.0065668015740811825,0.027183502912521362
1761486769124507600,6.051507568359375,0.009010262787342072,0.010231993161141872,-0.005650503560900688
1761486769141330400,6.068330322265625,0.02932153269648552,0.006261368747800589,-0.01618792861700058
1761486769158162700,6.08516259765625,0.03191770985722542,-0.012064588256180286,0.0065668015740811825
1761486769174987000,6.101987060546875,0.02886338345706463,-0.00855211354792118,0.03298672288656235
1761486769191824600,6.11882470703125,0.020005837082862854,-0.005345070734620094,0.04214970022439957
1761486769208650800,6.135650634765625,0.011301007121801376,-0.0013744467869400978,0.0354301854968071
1761486769225476900,6.152476806640625,0.007635815534740686,0.010690141469240189,0.025503624230623245
1761486769242303000,6.169302978515625,0.008246680721640587,0.02519819140434265,0.028099801391363144
1761486769259128600,6.186128662109375,0.007941247895359993,0.03955352306365967,0.037110064178705215
1761486769275955000,6.202954833984375,0.011301007121801376,0.0529925599694252,0.03451388701796532
1761486769292780800,6.21978076171875,0.013591751456260681,0.06352998316287994,0.01237002108246088
1761486769309599500,6.236599609375,0.004428773187100887,0.06123924255371094,-0.018325956538319588
1761486769326432500,6.2534326171875,0.0019853119738399982,0.05451972410082817,-0.03191770985722542
1761486769343254300,6.270254150390625,0.0039706239476799965,0.039706241339445114,-0.029932396486401558
1761486769360078000,6.287078125,0.010995574295520782,0.03191770985722542,-0.013591751456260681
1761486769376893700,6.303893798828125,0.011759156361222267,0.004886921960860491,0.003512475173920393
1761486769393736000,6.32073583984375,0.012217304669320583,-0.015577063895761967,0.030085112899541855
1761486769410558000,6.337557861328125,0.005345070734620094,-0.03787364438176155,0.04795292019844055
1761486769427375400,6.354375244140625,-0.0012217304902151227,-0.031001411378383636,0.04688390716910362
1761486769444209200,6.371209228515625,-0.005803219974040985,-0.006108652334660292,0.036193765699863434
1761486769461026300,6.3880263671875,-0.021532999351620674,0.018936822190880775,0.025961773470044136
1761486769477851600,6.4048515625,-0.029016099870204926,0.014508049935102463,0.0027488935738801956
1761486769494677200,6.42167724609375,-0.04214970022439957,0.018478672951459885,-0.007788531947880983
1761486769511504100,6.438504150390625,-0.0354301854968071,0.04932736977934837,-0.003817907767370343
1761486769528328400,6.455328369140625,-0.01878410577774048,0.06948592513799667,-0.004886921960860491
1761486769545155000,6.472155029296875,-0.004123340360820293,0.05650503560900688,-0.0007635815418325365
1761486769561981000,6.48898095703125,-0.0010690141934901476,0.02825251780450344,0.0064140851609408855
1761486769578807000,6.50580712890625,-0.007177666760981083,-0.01466076634824276,0.010079276748001575
1761486769595633000,6.5226328125,-0.009621127508580685,-0.04260785132646561,0.00931569468230009
1761486769612455400,6.539455322265625,-0.006872233934700489,-0.03405573591589928,0.009162978269159794
1761486769629272600,6.5562724609375,-0.006108652334660292,-0.02168571576476097,-0.001679879380390048
1761486769646113300,6.57311328125,-0.005497787147760391,-0.021991148591041565,-0.011453723534941673
1761486769662954000,6.5899541015625,-0.006719517521560192,-0.03481931984424591,-0.024892758578062057
1761486769679758300,6.60675830078125,-0.004123340360820293,-0.04688390716910362,-0.04108068719506264
1761486769696596000,6.623595947265625,0.0010690141934901476,-0.04337143152952194,-0.04092797264456749
1761486769713435000,6.640434814453125,0.01038470957428217,-0.025961773470044136,-0.022907447069883347
1761486769730253800,6.65725390625,0.019089538604021072,-0.02871066704392433,-0.001832595793530345
1761486769747080000,6.674079833984375,0.024129176512360573,-0.02672535367310047,0.019394971430301666
1761486769763905500,6.690905517578125,0.02672535367310047,-0.027947084978222847,0.028099801391363144
1761486769780731100,6.707731201171875,0.03405573591589928,-0.021074850112199783,0.023365596309304237
1761486769797542400,6.72454248046875,0.030695978552103043,-0.01542434748262167,0.01771509274840355
1761486769814383000,6.741383056640625,0.023976460099220276,-0.008857546374201775,0.0074830991216003895
1761486769831209000,6.758208984375,0.019089538604021072,-0.004428773187100887,-0.005345070734620094
1761486769848034600,6.77503466796875,0.014813481830060482,-0.01237002108246088,-0.014202617108821869
1761486769864853800,6.791853759765625,0.006719517521560192,-0.017562376335263252,-0.013439035043120384
1761486769881682200,6.80868212890625,0.004886921960860491,-0.0010690141934901476,-0.009773843921720982
1761486769898512600,6.8255126953125,0.014049900695681572,0.023518312722444534,-0.005345070734620094
1761486769915332600,6.84233251953125,0.02168571576476097,0.012675453908741474,-0.0032070425804704428
1761486769932170200,6.859170166015625,0.027183502912521362,-0.018478672951459885,0.001527163083665073
1761486769948973600,6.8759736328125,0.02733621932566166,-0.021838432177901268,0.007941247895359993
1761486769965802500,6.892802490234375,0.01572977937757969,-0.01924225501716137,0.021532999351620674
1761486769982628400,6.90962841796875,0.0029016099870204926,-0.016035212203860283,0.021838432177901268
1761486769999454200,6.9264541015625,-0.002138028386980295,0.003512475173920393,0.005497787147760391
1761486770016280000,6.943280029296875,-0.0013744467869400978,0.011453723534941673,-0.01038470957428217
1761486770033102800,6.960102783203125,-0.002138028386980295,0.011301007121801376,-0.02122756652534008
1761486770049923300,6.97692333984375,-0.011453723534941673,0.006872233934700489,-0.005650503560900688
1761486770066757600,6.993757568359375,-0.016951510682702065,-0.0009162978967651725,0.014966198243200779
1761486770083594000,7.010593994140625,-0.016951510682702065,0.00427605677396059,0.021532999351620674
1761486770100409600,7.02740966796875,-0.010995574295520782,0.007635815534740686,0.0039706239476799965
1761486770117235500,7.0442353515625,-0.0065668015740811825,0.020311269909143448,-0.014508049935102463
1761486770134061300,7.061061279296875,-0.009162978269159794,0.02474004216492176,-0.01237002108246088
1761486770150904300,7.077904296875,-0.011453723534941673,0.013439035043120384,0.006261368747800589
1761486770167727400,7.094727294921875,0.0019853119738399982,0.009468411095440388,0.01878410577774048
1761486770184553200,7.11155322265625,0.014813481830060482,0.0003054326225537807,0.021380282938480377
1761486770201378800,7.12837890625,0.012064588256180286,-0.011453723534941673,0.011759156361222267
1761486770218204400,7.145204345703125,-0.004886921960860491,-0.01878410577774048,-0.00366519158706069
1761486770235030800,7.16203076171875,-0.004428773187100887,-0.004581489134579897,-0.01710422709584236
1761486770251856600,7.178856689453125,0.011759156361222267,0.009621127508580685,-0.019547687843441963
1761486770268688600,7.195688720703125,0.028557950630784035,0.018936822190880775,-0.018325956538319588
1761486770285497900,7.212497802734375,0.03848451003432274,0.009773843921720982,-0.0025961773935705423
1761486770302338000,7.229338134765625,0.04245513305068016,-0.00809396430850029,0.024587325751781464
1761486770319160000,7.24616015625,0.03588833287358284,-0.03375030308961868,0.0403171069920063
1761486770335986200,7.262986083984375,0.02122756652534008,-0.038637228310108185,0.031612277030944824
1761486770352812300,7.279812255859375,0.004734205547720194,-0.024129176512360573,0.007941247895359993
1761486770369637400,7.296637451171875,-0.007788531947880983,0.010079276748001575,-0.010690141469240189
1761486770386463700,7.313463623046875,-0.02382374368607998,0.017562376335263252,-0.015118914656341076
1761486770403289600,7.33028955078125,-0.02626720629632473,0.006108652334660292,-0.01237002108246088
1761486770420115200,7.347115234375,-0.02382374368607998,-0.019089538604021072,-0.018478672951459885
1761486770436937700,7.363937744140625,-0.013591751456260681,-0.02519819140434265,-0.027947084978222847
1761486770453753300,7.38075341796875,-0.01237002108246088,-0.024892758578062057,-0.026114489883184433
1761486770470579200,7.3975791015625,-0.01771509274840355,-0.02932153269648552,-0.012217304669320583
1761486770487405000,7.414405029296875,-0.02519819140434265,-0.020311269909143448,0.0012217304902151227
1761486770504230100,7.431230224609375,-0.02687807008624077,-0.008399397134780884,0.006261368747800589
1761486770521036500,7.44803662109375,-0.017409659922122955,-0.0019853119738399982,-0.005345070734620094
1761486770537883000,7.4648828125,-0.0039706239476799965,0.007177666760981083,-0.014355333521962166
1761486770554708700,7.481708740234375,-0.00045814894838258624,-0.00427605677396059,-0.010842857882380486
1761486770571534600,7.49853466796875,-0.0032070425804704428,-0.020616702735424042,-0.0032070425804704428
1761486770588346000,7.51534619140625,-0.009926560334861279,-0.020311269909143448,-0.0022907445672899485
1761486770605186300,7.532186279296875,-0.013744467869400978,-0.006108652334660292,0.003512475173920393
1761486770622009000,7.549009033203125,-0.017867809161543846,-0.0003054326225537807,0.017409659922122955
1761486770638858500,7.5658583984375,-0.010537425056099892,-0.003359758760780096,0.01817324012517929
1761486770655678200,7.58267822265625,0.0009162978967651725,0.001527163083665073,0.005650503560900688
1761486770672504000,7.599504150390625,0.00427605677396059,0.016340645030140877,-0.007635815534740686
1761486770689325800,7.616325927734375,-0.0065668015740811825,0.033597588539123535,-0.016493361443281174
1761486770706159400,7.633159423828125,-0.02015855349600315,0.04306599870324135,-0.01572977937757969
1761486770722981600,7.649981689453125,-0.021991148591041565,0.024892758578062057,-0.007024950347840786
1761486770739807700,7.666807861328125,-0.005497787147760391,0.00015271631127689034,0.0074830991216003895
1761486770756629500,7.68362939453125,0.010231993161141872,-0.009621127508580685,0.021532999351620674
1761486770773462800,7.700462890625,0.013439035043120384,-0.02229658141732216,0.028099801391363144
1761486770790281200,7.71728125,0.003359758760780096,-0.02871066704392433,0.01710422709584236
1761486770807109400,7.734109375,-0.005650503560900688,-0.02474004216492176,0.0024434609804302454
1761486770823920000,7.750920166015625,0.0013744467869400978,-0.010079276748001575,-0.010231993161141872
1761486770840762600,7.7677626953125,0.01114829070866108,-0.003817907767370343,-0.023976460099220276
1761486770857588500,7.78458837890625,0.007635815534740686,-0.003054326167330146,-0.02168571576476097
1761486770874414300,7.801414306640625,-0.001832595793530345,-0.010537425056099892,-0.006872233934700489
1761486770891224600,7.818224609375,-0.010079276748001575,-0.022602014243602753,0.010995574295520782
1761486770908066600,7.835066650390625,-0.013897184282541275,-0.02779436856508255,0.016035212203860283
1761486770924892000,7.851891845703125,-0.016798794269561768,-0.001679879380390048,0.012064588256180286
1761486770941700600,7.86870068359375,-0.020463986322283745,0.02825251780450344,0.0024434609804302454
1761486770958530000,7.885530029296875,-0.025045474991202354,0.03527746722102165,-0.006719517521560192
1761486770975356000,7.90235595703125,-0.027030786499381065,0.008246680721640587,0
1761486770992181800,7.919181640625,-0.025045474991202354,-0.015882495790719986,0.007788531947880983
1761486771009007600,7.936007568359375,-0.01924225501716137,-0.02367102913558483,0.011301007121801376
1761486771025832400,7.95283251953125,-0.01710422709584236,-0.01466076634824276,0.020463986322283745
1761486771042660400,7.969660400390625,-0.015271631069481373,-0.0064140851609408855,0.020311269909143448
1761486771059492000,7.9864921875,-0.010231993161141872,0.006872233934700489,0.009162978269159794
1761486771076311300,8.003311279296875,-0.011453723534941673,0.006108652334660292,0
1761486771093133800,8.0201337890625,-0.01542434748262167,-0.0012217304902151227,-0.00809396430850029
1761486771109966000,8.036966064453125,-0.014202617108821869,0.002138028386980295,-0.015271631069481373
1761486771126789600,8.05378955078125,-0.009926560334861279,0.005650503560900688,-0.01572977937757969
1761486771143628500,8.070628662109375,-0.004734205547720194,0.006261368747800589,-0.00855211354792118
1761486771160454700,8.08745458984375,0.0019853119738399982,-0.0064140851609408855,0.009773843921720982
1761486771177263900,8.104263916015626,0.013744467869400978,-0.015882495790719986,0.02275473065674305
1761486771194102000,8.12110205078125,0.02382374368607998,-0.013133603148162365,0.02367102913558483
1761486771210935800,8.137935791015625,0.028557950630784035,-0.010995574295520782,0.01970040425658226
1761486771227756800,8.1547568359375,0.03039054572582245,0.004581489134579897,0.020311269909143448
1761486771244583700,8.171583740234375,0.02076941914856434,0.01466076634824276,0.02580905705690384
1761486771261409800,8.188409912109375,0.0065668015740811825,0.010842857882380486,0.024587325751781464
1761486771278235600,8.205235595703124,-0.003817907767370343,0.006108652334660292,0.02168571576476097
1761486771295062300,8.222062255859376,0.0013744467869400978,0.004734205547720194,0.023518312722444534
1761486771311887400,8.238887451171875,0.007941247895359993,0.00366519158706069,0.02626720629632473
1761486771328713500,8.25571337890625,0.0010690141934901476,-0.013897184282541275,0.010079276748001575
1761486771345518800,8.272518798828125,-0.013897184282541275,-0.04352414980530739,-0.02886338345706463
1761486771362369500,8.28936962890625,-0.024587325751781464,-0.03527746722102165,-0.06444628536701202
1761486771379182800,8.306182861328125,-0.02886338345706463,0.0006108652451075613,-0.06352998316287994
1761486771396025300,8.323025390625,-0.023976460099220276,0.01924225501716137,-0.04230241850018501
1761486771412842800,8.3398427734375,-0.00733038317412138,0.013591751456260681,-0.02886338345706463
1761486771429651500,8.3566513671875,-0.005192354787141085,0.004886921960860491,0.0010690141934901476
1761486771446478000,8.37347802734375,-0.006108652334660292,-0.006108652334660292,0.028405234217643738
1761486771463309300,8.390309326171876,-0.0064140851609408855,-0.005192354787141085,0.04077525436878204
1761486771480132600,8.407132568359375,-0.006872233934700489,0.013439035043120384,0.03573561832308769
1761486771496958500,8.42395849609375,-0.005497787147760391,0.030695978552103043,0.020616702735424042
1761486771513789700,8.440789794921875,-0.003817907767370343,0.03237585723400116,0.0025961773935705423
1761486771530610200,8.457610107421875,-0.003817907767370343,-0.00427605677396059,-0.006719517521560192
1761486771547436300,8.474436279296874,0.001679879380390048,-0.02932153269648552,0
1761486771564262000,8.491261962890626,0.004581489134579897,-0.01114829070866108,-0.002138028386980295
1761486771581088300,8.508088134765625,0.0065668015740811825,0.03145955875515938,-0.005345070734620094
1761486771597913900,8.524913818359375,0.005192354787141085,0.03237585723400116,-0.0029016099870204926
1761486771614749700,8.541749755859374,0.004886921960860491,0.0032070425804704428,0.007635815534740686
1761486771631586800,8.5585869140625,0.0003054326225537807,-0.02122756652534008,0.009162978269159794
1761486771648405200,8.5754052734375,0.005192354787141085,0.003512475173920393,0.005192354787141085
1761486771665227500,8.5922275390625,0.008246680721640587,0.02382374368607998,-0.002138028386980295
1761486771682061000,8.60906103515625,0.0022907445672899485,0.028405234217643738,-0.010842857882380486
1761486771698880300,8.62588037109375,-0.007177666760981083,0.02535090781748295,-0.009010262787342072
1761486771715711200,8.642711181640625,-0.010079276748001575,0.02076941914856434,-0.012828170321881771
1761486771732534500,8.659534423828125,-0.0039706239476799965,0.025045474991202354,-0.023365596309304237
1761486771749361000,8.67636083984375,0.0029016099870204926,0.03451388701796532,-0.021991148591041565
1761486771766186800,8.693186767578124,0.009926560334861279,0.03985895588994026,0.0010690141934901476
1761486771783012000,8.71001220703125,0.010079276748001575,0.036041051149368286,0.029016099870204926
1761486771799838000,8.726837890625,0.01817324012517929,0.025961773470044136,0.04459316283464432
1761486771816664000,8.7436640625,0.02275473065674305,0.017562376335263252,0.03848451003432274
1761486771833490000,8.760489990234374,0.024587325751781464,0.019853120669722557,0.02474004216492176
1761486771850315800,8.777315673828125,0.023976460099220276,0.016951510682702065,0.014966198243200779
1761486771867141600,8.7941416015625,0.02886338345706463,0.014355333521962166,0.015577063895761967
1761486771883967700,8.8109677734375,0.02076941914856434,0.00809396430850029,0.01878410577774048
1761486771900793900,8.8277939453125,0.00809396430850029,0.0064140851609408855,0.013133603148162365
1761486771917602600,8.8446025390625,0.001832595793530345,0.01038470957428217,0.0012217304902151227
1761486771934431500,8.861431396484376,0.0039706239476799965,0.009010262787342072,-0.0032070425804704428
1761486771951257300,8.87825732421875,0.013744467869400978,0.015882495790719986,0.004428773187100887
1761486771968083500,8.89508349609375,0.017867809161543846,0.006261368747800589,0.02076941914856434
1761486771984909000,8.911908935546874,0.020463986322283745,-0.004428773187100887,0.027183502912521362
1761486772001735200,8.928735107421875,0.02428189292550087,-0.001679879380390048,0.02519819140434265
1761486772018560800,8.945560791015625,0.017867809161543846,-0.004123340360820293,0.027488935738801956
1761486772035383000,8.962383056640626,0.004581489134579897,-0.023518312722444534,0.027183502912521362
1761486772052212700,8.979212646484376,-0.001679879380390048,-0.023365596309304237,0.023365596309304237
1761486772069035300,8.99603515625,-0.0032070425804704428,-0.003817907767370343,0.01466076634824276
1761486772085867800,9.01286767578125,-0.004886921960860491,0.0065668015740811825,0.007177666760981083
1761486772102707500,9.02970751953125,-0.009162978269159794,0.001679879380390048,0.007941247895359993
1761486772119530500,9.046530517578125,-0.01725694350898266,-0.017409659922122955,0.003512475173920393
1761486772136351700,9.063351806640625,-0.01542434748262167,-0.010231993161141872,-0.00855211354792118
1761486772153182000,9.080181884765626,-0.009621127508580685,0.01237002108246088,-0.006872233934700489
1761486772170008600,9.097008544921875,-0.005192354787141085,0.0074830991216003895,0.010842857882380486
1761486772186833700,9.113833740234375,-0.003054326167330146,-0.007635815534740686,0.0328340083360672
1761486772203655400,9.130655517578125,0.0065668015740811825,-0.010079276748001575,0.04108068719506264
1761486772220489000,9.147489013671875,0.01664607785642147,-0.01572977937757969,0.03955352306365967
1761486772237311500,9.1643115234375,0.01878410577774048,-0.02535090781748295,0.028405234217643738
1761486772254137000,9.18113720703125,0.016340645030140877,-0.010079276748001575,0.02229658141732216
1761486772270962700,9.197962646484376,0.011453723534941673,0.016493361443281174,0.01924225501716137
1761486772287789000,9.2147890625,0.00366519158706069,0.022143865004181862,0.020463986322283745
1761486772304610800,9.23161083984375,-0.003359758760780096,0.016035212203860283,0.017867809161543846
1761486772321442600,9.248442626953125,-0.0029016099870204926,0.01863138936460018,0.01924225501716137
1761486772338263800,9.265263916015625,-0.0064140851609408855,-0.00366519158706069,0.02580905705690384
1761486772355096600,9.2820966796875,-0.010231993161141872,-0.010537425056099892,0.031154127791523933
1761486772371923000,9.2989228515625,-0.014813481830060482,0.0012217304902151227,0.020463986322283745
1761486772388744200,9.315744140625,-0.01710422709584236,0.01863138936460018,0.005497787147760391
1761486772405566500,9.33256640625,-0.011759156361222267,0.024892758578062057,-0.012064588256180286
1761486772422382000,9.349382080078126,0.00045814894838258624,0.029626963660120964,-0.01572977937757969
1761486772439196200,9.366196044921875,0.005345070734620094,0.04734205827116966,-0.014355333521962166
1761486772456033800,9.38303369140625,-0.013897184282541275,0.06123924255371094,0
1761486772472859600,9.399859619140624,-0.025961773470044136,0,0.011301007121801376
1761486772489685500,9.416685546875,-0.005955935921519995,-0.04398229718208313,0.012522737495601177
1761486772506498300,9.433498291015624,0.016951510682702065,-0.003054326167330146,0.016798794269561768
1761486772523336200,9.450336181640624,0.04001167416572571,0.0009162978967651725,0.04245513305068016
1761486772540164400,9.467164306640624,0.058184914290905,-0.04214970022439957,0.05207626149058342
1761486772556989200,9.4839892578125,0.07024950534105301,-0.038637228310108185,0.017562376335263252
1761486772573815000,9.50081494140625,0.07864890247583389,0.01114829070866108,-0.058795779943466187
1761486772590641400,9.517641357421875,0.07528914511203766,0.03451388701796532,-0.12889257073402405
1761486772607480800,9.534480712890625,0.05742133408784866,-0.003359758760780096,-0.1267545372247696
1761486772624306200,9.55130615234375,0.05054909735918045,-0.07177666574716568,-0.060475658625364304
1761486772641132300,9.56813232421875,0.06352998316287994,-0.1189660057425499,0.010537425056099892
