time,seconds_elapsed,z,y,x
1761417670915386600,0.13438671875,0.08903361111879349,0.029626963660120964,0.029932396486401558
1761417670932218600,0.151218505859375,0.09208793938159943,0.058337632566690445,0.02672535367310047
1761417670949054200,0.16805419921875,0.08903361111879349,0.0455094613134861,0.03726277872920036
1761417670965877000,0.184876953125,0.08185594528913498,0.00733038317412138,0.04993823543190956
1761417670982703900,0.201703857421875,0.07681630551815033,-0.02672535367310047,0.048716504126787186
1761417670999508500,0.218508544921875,0.07788532227277756,-0.03237585723400116,0.030085112899541855
1761417671016332800,0.235332763671875,0.08155050873756409,-0.03375030308961868,0.007941247895359993
1761417671033195000,0.252195068359375,0.07513642311096191,-0.03894266113638878,-0.010079276748001575
1761417671049979100,0.268979248046875,0.07757988572120667,-0.039248090237379074,-0.019089538604021072
1761417671066824400,0.285824462890625,0.07849618047475815,-0.035582900047302246,-0.011301007121801376
1761417671083649800,0.30264990234375,0.07849618047475815,-0.021074850112199783,0.010537425056099892
1761417671100462000,0.319462158203125,0.07208210229873657,-0.03176499158143997,0.018478672951459885
1761417671117294000,0.336294189453125,0.06352998316287994,-0.0503963828086853,0.014813481830060482
1761417671134111500,0.353111572265625,0.05726861581206322,-0.04963280260562897,0.001832595793530345
1761417671150926800,0.3699267578125,0.061391957104206085,-0.037110064178705215,-0.009926560334861279
1761417671167758800,0.3867587890625,0.06200282275676727,-0.04001167416572571,-0.02076941914856434
1761417671184593700,0.40359375,0.059406645596027374,-0.04092797264456749,-0.018020525574684143
1761417671201409300,0.4204091796875,0.054825156927108765,-0.02932153269648552,-0.028557950630784035
1761417671218235400,0.4372353515625,0.05910121276974678,0.01191187184303999,-0.0354301854968071
1761417671235053600,0.454053466796875,0.05955936014652252,0.04260785132646561,-0.02474004216492176
1761417671251883300,0.47088330078125,0.05650503560900688,0.024587325751781464,-0.009010262787342072
1761417671268694300,0.4876943359375,0.05314527451992035,-0.020005837082862854,0.0064140851609408855
1761417671285526800,0.50452685546875,0.03894266113638878,-0.04657847434282303,-0.00366519158706069
1761417671302357200,0.521357177734375,0.025045474991202354,-0.026572637259960175,-0.03848451003432274
1761417671319171300,0.53817138671875,0.011301007121801376,0.015118914656341076,-0.06673702597618103
1761417671335974700,0.554974609375,0.0029016099870204926,0.03329215571284294,-0.07116580009460449
1761417671352812000,0.57181201171875,0.003512475173920393,0.024434609338641167,-0.05421429127454758
1761417671369634800,0.588634765625,0.010537425056099892,-0.0012217304902151227,-0.02535090781748295
1761417671386461000,0.6054609375,0.020005837082862854,-0.02687807008624077,0.005650503560900688
1761417671403282700,0.62228271484375,0.02535090781748295,-0.02474004216492176,0.024434609338641167
1761417671420107300,0.639107177734375,0.016798794269561768,-0.027488935738801956,0.021838432177901268
1761417671436930300,0.655930419921875,0.00931569468230009,-0.015118914656341076,0.005345070734620094
1761417671453743600,0.67274365234375,0.002138028386980295,0.0074830991216003895,-0.013133603148162365
1761417671470577700,0.68957763671875,-0.0010690141934901476,0.021838432177901268,-0.020311269909143448
1761417671487402800,0.70640283203125,-0.005345070734620094,0.02779436856508255,-0.001679879380390048
1761417671504215800,0.7232158203125,-0.011301007121801376,0.011453723534941673,0.02076941914856434
1761417671521060900,0.740060791015625,-0.007788531947880983,0.004581489134579897,0.03375030308961868
1761417671537890800,0.756890869140625,-0.00015271631127689034,0.017867809161543846,0.03420845419168472
1761417671554689800,0.773689697265625,0.004886921960860491,0.023060163483023643,0.030085112899541855
1761417671571532300,0.7905322265625,0.0039706239476799965,0.0029016099870204926,0.018936822190880775
1761417671588360400,0.8073603515625,0.004123340360820293,-0.009926560334861279,0.010231993161141872
1761417671605181700,0.824181640625,-0.001679879380390048,-0.025045474991202354,-0.00015271631127689034
1761417671622007300,0.84100732421875,0.0012217304902151227,-0.01924225501716137,-0.011301007121801376
1761417671647260200,0.86626025390625,0.013897184282541275,0.021532999351620674,-0.02275473065674305
1761417671664042500,0.88304248046875,0.02015855349600315,0.030085112899541855,-0.007177666760981083
1761417671680864300,0.8998642578125,0.026114489883184433,0.007788531947880983,0.01160643994808197
1761417671697687300,0.916687255859375,0.029932396486401558,-0.003359758760780096,0.02321287989616394
1761417671714511400,0.933511474609375,0.033139441162347794,0.003512475173920393,0.017562376335263252
1761417671731336000,0.9503359375,0.039248090237379074,-0.00366519158706069,0.00855211354792118
1761417671748157400,0.967157470703125,0.04230241850018501,-0.03176499158143997,0.003817907767370343
1761417671764983000,0.983983154296875,0.04612032696604729,-0.040164388716220856,0.005955935921519995
1761417671781807600,1.0008076171875,0.042760565876960754,-0.041691552847623825,0.019547687843441963
1761417671798629400,1.01762939453125,0.042760565876960754,-0.029932396486401558,0.03787364438176155
1761417671815454000,1.034453857421875,0.03878994286060333,-0.02886338345706463,0.03329215571284294
1761417671832277800,1.05127783203125,0.0403171069920063,-0.01863138936460018,0.0003054326225537807
1761417671849102300,1.068102294921875,0.04352414980530739,0.007177666760981083,-0.03634648025035858
1761417671865925400,1.08492529296875,0.038179077208042145,0.01725694350898266,-0.05619960278272629
1761417671882748000,1.101747802734375,0.02626720629632473,0.008857546374201775,-0.04489859566092491
1761417671899573000,1.118572998046875,0.014508049935102463,-0.011759156361222267,-0.013133603148162365
1761417671916397600,1.1353974609375,0.01710422709584236,-0.025656340643763542,0.02168571576476097
1761417671933219300,1.15221923828125,0.021838432177901268,-0.03451388701796532,0.04917465150356293
1761417671950044400,1.16904443359375,0.02535090781748295,-0.035124752670526505,0.04886921867728233
1761417671966871000,1.18587109375,0.035582900047302246,-0.0027488935738801956,0.02687807008624077
1761417671983715800,1.2027158203125,0.03649919852614403,0.00931569468230009,-0.01191187184303999
1761417672000525300,1.219525390625,0.028405234217643738,0.019547687843441963,-0.040164388716220856
1761417672017354500,1.2363544921875,0.013897184282541275,0.02382374368607998,-0.038026362657547
1761417672034175500,1.253175537109375,0.0027488935738801956,0.022143865004181862,-0.009010262787342072
1761417672050999300,1.269999267578125,0.00015271631127689034,0.0024434609804302454,0.021991148591041565
1761417672067826400,1.286826416015625,0.005345070734620094,0.0024434609804302454,0.04352414980530739
1761417672084661200,1.3036611328125,0.010537425056099892,-0.005650503560900688,0.04581489413976669
1761417672101487600,1.320487548828125,0.01817324012517929,-0.010079276748001575,0.039706241339445114
1761417672118305300,1.33730517578125,0.020463986322283745,-0.00809396430850029,0.033597588539123535
1761417672135132400,1.35413232421875,0.022143865004181862,-0.004428773187100887,0.028405234217643738
1761417672151952000,1.370951904296875,0.018478672951459885,-0.004886921960860491,0.03176499158143997
1761417672168794000,1.387794189453125,0.010537425056099892,0.0006108652451075613,0.04046982154250145
1761417672185600300,1.404600341796875,0.003817907767370343,-0.0013744467869400978,0.04734205827116966
1761417672202430700,1.4214306640625,0.0027488935738801956,0.005345070734620094,0.041691552847623825
1761417672219251200,1.438251220703125,0.00733038317412138,0.0024434609804302454,0.021532999351620674
1761417672236065800,1.455065673828125,0.015118914656341076,0.003359758760780096,-0.0006108652451075613
1761417672252897000,1.47189697265625,0.02733621932566166,0.021838432177901268,-0.013439035043120384
1761417672269718800,1.48871875,0.027488935738801956,0.02229658141732216,-0.009621127508580685
1761417672286550500,1.505550537109375,0.01817324012517929,0.018020525574684143,0.013439035043120384
1761417672303367000,1.522366943359375,0.01466076634824276,0.00931569468230009,0.029932396486401558
1761417672320180500,1.539180419921875,0.013744467869400978,-0.00733038317412138,0.01817324012517929
1761417672337004300,1.55600439453125,0.01817324012517929,-0.012217304669320583,-0.0074830991216003895
1761417672353815800,1.57281591796875,0.027488935738801956,-0.009621127508580685,-0.023976460099220276
1761417672370652000,1.58965185546875,0.03436116874217987,0.006108652334660292,-0.025656340643763542
1761417672387475700,1.606475830078125,0.031001411378383636,0.01878410577774048,-0.01664607785642147
1761417672404294100,1.623294189453125,0.027488935738801956,0.00809396430850029,-0.0007635815418325365
1761417672421121500,1.64012158203125,0.02886338345706463,-0.00855211354792118,0.016035212203860283
1761417672437945900,1.65694580078125,0.03634648025035858,-0.02382374368607998,0.02474004216492176
1761417672454774300,1.673774169921875,0.051312681287527084,-0.013744467869400978,0.03145955875515938
1761417672471593500,1.690593505859375,0.06551529467105865,-0.00733038317412138,0.029932396486401558
1761417672488435000,1.70743505859375,0.07116580009460449,-0.01237002108246088,0.01863138936460018
1761417672505252400,1.72425244140625,0.07620543986558914,-0.0007635815418325365,-0.010842857882380486
1761417672522083800,1.741083740234375,0.07284568250179291,0.02580905705690384,-0.042760565876960754
1761417672538887400,1.757887451171875,0.06841690838336945,0.05543602257966995,-0.05772676691412926
1761417672555723800,1.774723876953125,0.06062837690114975,0.06933320313692093,-0.04734205827116966
1761417672572539100,1.7915390625,0.05849034711718559,0.06765332818031311,-0.022907447069883347
1761417672589374700,1.808374755859375,0.060322944074869156,0.0659734457731247,0.00045814894838258624
1761417672606195500,1.825195556640625,0.06368270516395569,0.05772676691412926,0.018325956538319588
1761417672623027000,1.84202685546875,0.06200282275676727,0.030237829312682152,0.018936822190880775
1761417672639846700,1.8588466796875,0.06261368840932846,0.011301007121801376,0.017562376335263252
1761417672656671000,1.8756708984375,0.05665775015950203,0.0010690141934901476,0.016035212203860283
1761417672673473000,1.89247314453125,0.04535674303770065,-0.001679879380390048,0.005497787147760391
1761417672690322400,1.909322509765625,0.036651913076639175,0.001832595793530345,-0.006872233934700489
1761417672707142000,1.926141845703125,0.028405234217643738,0.010231993161141872,-0.014966198243200779
1761417672723965700,1.942965576171875,0.021532999351620674,0.018478672951459885,-0.020463986322283745
1761417672740772400,1.9597724609375,0.01237002108246088,0.019547687843441963,-0.029474247246980667
1761417672757615600,1.97661572265625,0.001527163083665073,0.01191187184303999,-0.04245513305068016
1761417672774440200,1.993440185546875,-0.004428773187100887,0.019089538604021072,-0.04703662544488907
1761417672791238000,2.01023779296875,-0.0064140851609408855,0.022143865004181862,-0.04153883829712868
1761417672808054500,2.027054443359375,0.0007635815418325365,0.015271631069481373,-0.027030786499381065
1761417672824882700,2.043882568359375,0.005803219974040985,0.007941247895359993,-0.007177666760981083
1761417672841723600,2.0607236328125,0.008246680721640587,0.001832595793530345,0.007177666760981083
1761417672858542600,2.07754248046875,0.013133603148162365,0.001832595793530345,0.008246680721640587
1761417672875366400,2.094366455078125,0.012675453908741474,-0.0025961773935705423,0.005192354787141085
1761417672892174800,2.1111748046875,0.012828170321881771,0.003512475173920393,0.0022907445672899485
1761417672909016000,2.12801611328125,0.009773843921720982,0.0022907445672899485,0.006108652334660292
1761417672925835500,2.14483544921875,0.005192354787141085,0,0.01664607785642147
1761417672942661400,2.161661376953125,-0.0003054326225537807,0.003817907767370343,0.014813481830060482
1761417672959485400,2.1784853515625,-0.00045814894838258624,0.01038470957428217,0.00855211354792118
1761417672976302600,2.195302490234375,-0.0006108652451075613,0.005192354787141085,0.0009162978967651725
1761417672993146400,2.212146484375,-0.005039638374000788,-0.006719517521560192,-0.008246680721640587
1761417673009971500,2.228971435546875,-0.01572977937757969,-0.007024950347840786,-0.01924225501716137
1761417673026779000,2.24577880859375,-0.018478672951459885,0.016798794269561768,-0.027183502912521362
1761417673043606800,2.262606689453125,-0.021380282938480377,0.026114489883184433,-0.02672535367310047
1761417673060441900,2.27944189453125,-0.02168571576476097,0.010995574295520782,-0.010995574295520782
1761417673077259500,2.296259521484375,-0.016340645030140877,-0.015882495790719986,0.0074830991216003895
1761417673094084900,2.3130849609375,-0.017409659922122955,-0.036193765699863434,0.015882495790719986
1761417673110909200,2.3299091796875,-0.02932153269648552,-0.03878994286060333,0.009926560334861279
1761417673127736800,2.34673681640625,-0.03848451003432274,-0.02519819140434265,-0.003359758760780096
1761417673144561400,2.3635615234375,-0.03451388701796532,-0.0012217304902151227,-0.021380282938480377
1761417673161380600,2.380380615234375,-0.024892758578062057,0.017409659922122955,-0.04306599870324135
1761417673178212900,2.397212890625,-0.019394971430301666,0.030695978552103043,-0.045204028487205505
1761417673195032600,2.414032470703125,-0.019853120669722557,0.02275473065674305,-0.02687807008624077
1761417673211848700,2.4308486328125,-0.01664607785642147,-0.01114829070866108,0.0012217304902151227
1761417673228690200,2.447690185546875,-0.009773843921720982,-0.04153883829712868,0.014966198243200779
1761417673245501400,2.46450146484375,0.0029016099870204926,-0.029474247246980667,0.01572977937757969
1761417673262308400,2.481308349609375,0.007788531947880983,0.011759156361222267,0.01542434748262167
1761417673279154700,2.49815478515625,-0.001527163083665073,0.027030786499381065,0.023060163483023643
1761417673295962400,2.51496240234375,-0.009773843921720982,0.01878410577774048,0.026419922709465027
1761417673312772600,2.531772705078125,-0.012217304669320583,0.007635815534740686,0.02015855349600315
1761417673329600000,2.54860009765625,-0.005955935921519995,0.005955935921519995,0.0039706239476799965
1761417673346432000,2.565431884765625,-0.0007635815418325365,0.013133603148162365,0.004123340360820293
1761417673363255800,2.582255859375,-0.004123340360820293,0.006261368747800589,0.006108652334660292
1761417673380081700,2.59908154296875,-0.01466076634824276,-0.0025961773935705423,0.0065668015740811825
1761417673396885500,2.615885498046875,-0.022907447069883347,-0.0022907445672899485,0.0007635815418325365
1761417673413725000,2.632724853515625,-0.02687807008624077,0.005497787147760391,-0.01970040425658226
1761417673430555100,2.64955517578125,-0.027488935738801956,0.031154127791523933,-0.039095375686883926
1761417673447376000,2.6663759765625,-0.020311269909143448,0.052381694316864014,-0.040622539818286896
1761417673464190700,2.683190673828125,-0.01237002108246088,0.059406645596027374,-0.02367102913558483
1761417673481037300,2.700037353515625,0.00045814894838258624,0.05619960278272629,-0.003054326167330146
1761417673497844700,2.7168447265625,0.005803219974040985,0.027947084978222847,0.015118914656341076
1761417673514684700,2.7336845703125,0.002138028386980295,-0.008857546374201775,0.03176499158143997
1761417673531508500,2.750508544921875,-0.004581489134579897,-0.029932396486401558,0.03695734590291977
1761417673548332800,2.767332763671875,-0.005345070734620094,-0.02687807008624077,0.02733621932566166
1761417673565152000,2.784152099609375,0.002138028386980295,0.0010690141934901476,0.008704829961061478
1761417673581984000,2.80098388671875,0.005650503560900688,0.02580905705690384,-0.004428773187100887
1761417673598804000,2.817803955078125,0.0032070425804704428,0.030695978552103043,0.003817907767370343
1761417673615627800,2.834627685546875,-0.0029016099870204926,0.0025961773935705423,0.012522737495601177
1761417673632425500,2.851425537109375,-0.004734205547720194,-0.010690141469240189,0.013286318629980087
1761417673649275400,2.868275390625,-0.00809396430850029,-0.007788531947880983,-0.006719517521560192
1761417673666096600,2.8850966796875,-0.008399397134780884,0.006872233934700489,-0.02779436856508255
1761417673682924800,2.9019248046875,-0.00931569468230009,0.022143865004181862,-0.03588833287358284
1761417673699733200,2.918733154296875,-0.010842857882380486,0.015271631069481373,-0.031001411378383636
1761417673716545000,2.935544921875,-0.00931569468230009,0.0012217304902151227,-0.024434609338641167
1761417673733387000,2.952386962890625,-0.004581489134579897,0.001527163083665073,-0.017562376335263252
1761417673750221300,2.96922119140625,-0.00045814894838258624,0.0019853119738399982,-0.009773843921720982
1761417673767071500,2.986071533203125,0.001832595793530345,0.0012217304902151227,0.001832595793530345
1761417673783849000,3.002848876953125,0.0027488935738801956,0.01191187184303999,0.013897184282541275
1761417673800675600,3.019675537109375,0.006261368747800589,0.013744467869400978,0.01572977937757969
1761417673817490200,3.036490234375,0.00855211354792118,0.0065668015740811825,0.017867809161543846
1761417673834323200,3.0533232421875,0.006719517521560192,-0.004734205547720194,0.02428189292550087
1761417673851150300,3.070150390625,0.0010690141934901476,-0.0013744467869400978,0.02733621932566166
1761417673867971000,3.08697119140625,0.0029016099870204926,0.01038470957428217,0.02015855349600315
1761417673884795000,3.103794921875,0.01038470957428217,0.027030786499381065,0.014049900695681572
1761417673901618700,3.12061865234375,0.01114829070866108,0.028099801391363144,0.014049900695681572
1761417673918442500,3.1374423828125,0.009468411095440388,0.013897184282541275,0.014049900695681572
1761417673935266300,3.154266357421875,0.01237002108246088,-0.014508049935102463,0.006108652334660292
1761417673952103400,3.171103515625,0.020311269909143448,-0.04642575979232788,-0.009010262787342072
1761417673968931600,3.187931640625,0.02932153269648552,-0.0731511116027832,-0.003512475173920393
1761417673985747200,3.204747314453125,0.04398229718208313,-0.07880161702632904,0.02168571576476097
1761417674002574000,3.221573974609375,0.049785517156124115,-0.07757988572120667,0.043676864355802536
1761417674019404500,3.238404541015625,0.039706241339445114,-0.04306599870324135,0.04596760869026184
1761417674036206000,3.2552060546875,0.03497203439474106,-0.007941247895359993,0.027488935738801956
1761417674053046500,3.272046630859375,0.021074850112199783,0.025503624230623245,0.025656340643763542
1761417674069870800,3.288870849609375,0.010842857882380486,0.021991148591041565,0.029168816283345222
1761417674086694100,3.305694091796875,0.012980886735022068,-0.003512475173920393,0.02367102913558483
1761417674103525000,3.322525146484375,0.02977968007326126,-0.0039706239476799965,0.018478672951459885
1761417674120326000,3.339325927734375,0.02932153269648552,-0.005192354787141085,0.024434609338641167
1761417674137150500,3.356150390625,0.017409659922122955,-0.0019853119738399982,0.03497203439474106
1761417674153975600,3.3729755859375,0.015882495790719986,0.00809396430850029,0.03497203439474106
1761417674170817000,3.389817138671875,0.01771509274840355,0.018020525574684143,0.03222314268350601
1761417674187655700,3.40665576171875,0.010842857882380486,0.020616702735424042,0.03527746722102165
1761417674204464600,3.423464599609375,0.005497787147760391,0.02428189292550087,0.03649919852614403
1761417674221270300,3.440270263671875,0.0027488935738801956,0.013286318629980087,0.026114489883184433
1761417674238105600,3.457105712890625,-0.0009162978967651725,0.004428773187100887,-0.001832595793530345
1761417674254935800,3.473935791015625,-0.008399397134780884,0.026419922709465027,-0.024434609338641167
1761417674271749400,3.490749267578125,-0.016340645030140877,0.05207626149058342,-0.023976460099220276
1761417674288569600,3.507569580078125,-0.016951510682702065,0.04841107130050659,-0.019853120669722557
1761417674305390000,3.52439013671875,-0.013133603148162365,0.03191770985722542,-0.015118914656341076
1761417674322214000,3.5412138671875,-0.009162978269159794,0.01542434748262167,-0.010079276748001575
1761417674339035600,3.55803564453125,-0.010995574295520782,0.00427605677396059,-0.008399397134780884
1761417674355850800,3.574850830078125,-0.007024950347840786,-0.0007635815418325365,0
1761417674372685300,3.591685302734375,-0.003054326167330146,-0.00427605677396059,0.012522737495601177
1761417674389496300,3.608496337890625,0.004123340360820293,-0.005955935921519995,0.01771509274840355
1761417674406329600,3.62532958984375,0.0074830991216003895,0.007941247895359993,0.01572977937757969
1761417674423144200,3.642144287109375,0.010231993161141872,0.03436116874217987,0.004886921960860491
1761417674439980500,3.65898046875,0.01466076634824276,0.03878994286060333,0.0029016099870204926
1761417674456802000,3.675802001953125,0.02275473065674305,0.021532999351620674,0.014202617108821869
1761417674473613300,3.69261328125,0.020922135561704636,-0.01542434748262167,0.03726277872920036
1761417674490441700,3.709441650390625,0.01924225501716137,-0.03756821155548096,0.04596760869026184
1761417674507264000,3.726263916015625,0.02168571576476097,-0.017562376335263252,0.03680463135242462
1761417674524089000,3.743089111328125,0.027183502912521362,0.005650503560900688,0.006719517521560192
1761417674540926500,3.759926513671875,0.029016099870204926,0.0074830991216003895,-0.010690141469240189
1761417674557747200,3.776747314453125,0.03420845419168472,-0.019547687843441963,-0.015271631069481373
1761417674574571000,3.793571044921875,0.0507018156349659,-0.0328340083360672,-0.010079276748001575
1761417674591389400,3.810389404296875,0.05772676691412926,-0.024587325751781464,-0.0029016099870204926
1761417674608224000,3.82722412109375,0.0555887371301651,0.001679879380390048,0.007941247895359993
1761417674625037300,3.844037353515625,0.036651913076639175,0.01863138936460018,0.02382374368607998
1761417674641848600,3.8608486328125,0.022602014243602753,0.01970040425658226,0.03237585723400116
1761417674658704000,3.877703857421875,0.020311269909143448,0,0.02428189292550087
1761417674675529000,3.894529052734375,0.02519819140434265,-0.012522737495601177,0.003359758760780096
1761417674692345600,3.911345703125,0.027488935738801956,-0.01970040425658226,-0.020311269909143448
1761417674709165800,3.928165771484375,0.02580905705690384,-0.003054326167330146,-0.027488935738801956
1761417674725985500,3.944985595703125,0.01863138936460018,0.014508049935102463,-0.024434609338641167
1761417674742818800,3.96181884765625,0.006872233934700489,0.005955935921519995,-0.016340645030140877
1761417674759650600,3.978650634765625,0.001679879380390048,0.0039706239476799965,-0.009162978269159794
1761417674776453000,3.995453125,-0.007635815534740686,0.009621127508580685,0.0007635815418325365
1761417674793282300,4.0122822265625,-0.020463986322283745,-0.003054326167330146,0.004886921960860491
1761417674810099200,4.02909912109375,-0.01817324012517929,-0.012217304669320583,0.0010690141934901476
1761417674826931200,4.04593115234375,-0.0013744467869400978,0.0019853119738399982,-0.007941247895359993
1761417674843748400,4.062748291015625,0.01618792861700058,0.014966198243200779,-0.012828170321881771
1761417674860579300,4.079579345703125,0.02382374368607998,0.01572977937757969,-0.015271631069481373
1761417674877398500,4.0963984375,0.021074850112199783,-0.0032070425804704428,-0.004428773187100887
1761417674894223000,4.11322314453125,0.013439035043120384,-0.02886338345706463,0.025045474991202354
1761417674911047200,4.130047119140625,0.006872233934700489,-0.04535674303770065,0.044135015457868576
1761417674927888400,4.146888427734375,0.008399397134780884,-0.031612277030944824,0.032528575509786606
1761417674944705800,4.163705810546875,-0.00015271631127689034,-0.0019853119738399982,-0.001527163083665073
1761417674961535000,4.180534912109375,-0.012064588256180286,0.020311269909143448,-0.0377209298312664
1761417674978339600,4.197339599609375,-0.022602014243602753,0.025961773470044136,-0.04703662544488907
1761417674995179800,4.2141796875,-0.038179077208042145,0.02015855349600315,-0.026114489883184433
1761417675011999500,4.23099951171875,-0.04153883829712868,0.016340645030140877,-0.002138028386980295
1761417675028817000,4.24781689453125,-0.03298672288656235,0.00855211354792118,-0.0012217304902151227
1761417675045652000,4.26465185546875,-0.016798794269561768,0.010690141469240189,-0.009162978269159794
1761417675062474000,4.281473876953125,-0.01160643994808197,0.01114829070866108,-0.009010262787342072
1761417675079278300,4.2982783203125,-0.014049900695681572,0.013897184282541275,-0.001679879380390048
1761417675096115500,4.315115478515625,-0.01970040425658226,0.01863138936460018,0.0065668015740811825
1761417675112947000,4.331947021484375,-0.020311269909143448,0.019089538604021072,0.006872233934700489
1761417675129770200,4.348770263671875,-0.014355333521962166,-0.00015271631127689034,0.0010690141934901476
1761417675146593800,4.36559375,-0.0064140851609408855,-0.0007635815418325365,0.003054326167330146
1761417675163394000,4.38239404296875,-0.005803219974040985,0.003054326167330146,0.005497787147760391
1761417675180231000,4.39923095703125,-0.006261368747800589,0.0012217304902151227,0.0022907445672899485
1761417675197052700,4.416052734375,-0.01237002108246088,0.007177666760981083,-0.008399397134780884
1761417675213876000,4.4328759765625,-0.021838432177901268,0.009010262787342072,-0.013744467869400978
1761417675230684400,4.449684326171875,-0.031001411378383636,0.00366519158706069,-0.01771509274840355
1761417675247512600,4.4665126953125,-0.03420845419168472,-0.014202617108821869,-0.01863138936460018
1761417675264336400,4.48333642578125,-0.026572637259960175,-0.030085112899541855,-0.01466076634824276
1761417675281158700,4.50015869140625,-0.017562376335263252,-0.0354301854968071,-0.011759156361222267
1761417675297984300,4.516984375,-0.009468411095440388,-0.01878410577774048,-0.020616702735424042
1761417675314807600,4.5338076171875,-0.01160643994808197,0.003359758760780096,-0.02687807008624077
1761417675331631900,4.5506318359375,-0.021532999351620674,0.00427605677396059,-0.01878410577774048
1761417675348454100,4.5674541015625,-0.02672535367310047,-0.009162978269159794,-0.006872233934700489
1761417675365278200,4.5842783203125,-0.02733621932566166,-0.010690141469240189,-0.003359758760780096
1761417675382101200,4.601101318359375,-0.019089538604021072,-0.003359758760780096,-0.013591751456260681
1761417675398924800,4.6179248046875,-0.0032070425804704428,0.00015271631127689034,-0.030543262138962746
1761417675415750000,4.63475,0.012828170321881771,0.015882495790719986,-0.03497203439474106
1761417675432574200,4.65157421875,0.015118914656341076,0.0019853119738399982,-0.03451388701796532
1761417675449391000,4.66839111328125,0.02275473065674305,-0.013591751456260681,-0.02229658141732216
1761417675466219800,4.6852197265625,0.02474004216492176,-0.01618792861700058,-0.005955935921519995
1761417675483043800,4.7020439453125,0.017867809161543846,-0.015271631069481373,0.00855211354792118
1761417675499867400,4.718867431640625,0.007635815534740686,-0.017409659922122955,0.008399397134780884
1761417675516691000,4.73569091796875,0.005497787147760391,-0.012980886735022068,-0.00733038317412138
1761417675533515000,4.752514892578125,0.00733038317412138,0.0007635815418325365,-0.015577063895761967
1761417675550342400,4.76934228515625,0.0019853119738399982,-0.00366519158706069,-0.00733038317412138
1761417675567174000,4.786173828125,-0.0013744467869400978,-0.013897184282541275,0.001527163083665073
1761417675584000800,4.803000732421875,-0.003359758760780096,-0.01725694350898266,-0.009926560334861279
1761417675600823000,4.819822998046875,-0.003817907767370343,-0.01038470957428217,-0.023518312722444534
1761417675617633800,4.8366337890625,-0.010079276748001575,-0.010690141469240189,-0.023365596309304237
1761417675634470700,4.853470703125,-0.021074850112199783,-0.009926560334861279,-0.02580905705690384
1761417675651297800,4.8702978515625,-0.028405234217643738,-0.003054326167330146,-0.031612277030944824
1761417675668132000,4.887132080078125,-0.03420845419168472,0.0029016099870204926,-0.036041051149368286
1761417675684956200,4.9039560546875,-0.02932153269648552,0.012828170321881771,-0.037110064178705215
1761417675701779500,4.920779541015625,-0.01664607785642147,0.010842857882380486,-0.01725694350898266
1761417675718603300,4.937603271484375,-0.0039706239476799965,-0.006108652334660292,0.02580905705690384
1761417675735427300,4.95442724609375,0.005345070734620094,-0.022449297830462456,0.055741455405950546
1761417675752234500,4.971234375,0.006872233934700489,-0.01878410577774048,0.05650503560900688
1761417675769060900,4.988060791015625,0.004123340360820293,-0.0022907445672899485,0.0328340083360672
1761417675785885000,5.004885009765625,0.0024434609804302454,0.00366519158706069,0.012522737495601177
1761417675802708500,5.02170849609375,0.003054326167330146,-0.0013744467869400978,-0.0003054326225537807
1761417675819532500,5.038532470703125,-0.00045814894838258624,-0.009162978269159794,-0.013897184282541275
1761417675836356400,5.0553564453125,-0.010079276748001575,-0.01466076634824276,-0.016798794269561768
1761417675853180200,5.07218017578125,-0.00733038317412138,-0.007177666760981083,-0.001527163083665073
1761417675870003700,5.089003662109375,0.0025961773935705423,-0.00931569468230009,0.016798794269561768
1761417675886827800,5.105827880859375,0.009010262787342072,-0.017562376335263252,0.01924225501716137
1761417675903678700,5.1226787109375,0.004428773187100887,-0.006872233934700489,0.00733038317412138
1761417675920472300,5.139472412109375,0.0024434609804302454,0.014813481830060482,-0.00809396430850029
1761417675937314800,5.156314697265625,0.006261368747800589,0.01817324012517929,-0.01970040425658226
1761417675954135800,5.1731357421875,0.00931569468230009,0.001527163083665073,-0.013133603148162365
1761417675970944500,5.189944580078125,0.014049900695681572,-0.007024950347840786,-0.005955935921519995
1761417675987767600,5.206767578125,0.01572977937757969,0.0010690141934901476,-0.00809396430850029
1761417676004608300,5.223608154296875,0.014049900695681572,0.020616702735424042,-0.005039638374000788
1761417676021431800,5.240431884765625,0.007177666760981083,0.01664607785642147,0.00855211354792118
1761417676038239200,5.2572392578125,0.009010262787342072,0.010842857882380486,0.02015855349600315
1761417676055072500,5.274072509765625,0.017409659922122955,-0.006108652334660292,0.013439035043120384
1761417676071907800,5.290907958984375,0.023976460099220276,-0.01191187184303999,-0.004428773187100887
1761417676088729300,5.307729248046875,0.027488935738801956,0.01114829070866108,-0.01664607785642147
1761417676105550800,5.32455078125,0.02168571576476097,0.012522737495601177,-0.008246680721640587
1761417676122374400,5.34137451171875,0.018325956538319588,-0.007941247895359993,0.008399397134780884
1761417676139189800,5.358189697265625,0.018325956538319588,-0.02779436856508255,0.014049900695681572
1761417676156031000,5.375031005859375,0.020463986322283745,-0.022143865004181862,0.004123340360820293
1761417676172829700,5.39182958984375,0.019547687843441963,-0.009621127508580685,-0.007788531947880983
1761417676189657600,5.40865771484375,0.016493361443281174,-0.0032070425804704428,-0.001832595793530345
1761417676206493700,5.42549365234375,0.007635815534740686,0.0019853119738399982,0.01710422709584236
1761417676223317500,5.4423173828125,-0.0039706239476799965,-0.005345070734620094,0.024434609338641167
1761417676240121900,5.459121826171875,-0.010537425056099892,-0.0065668015740811825,0.012828170321881771
1761417676256951300,5.475951416015625,-0.01618792861700058,-0.01191187184303999,-0.004886921960860491
1761417676273775000,5.492775146484375,-0.024129176512360573,-0.01237002108246088,0.0006108652451075613
1761417676290599000,5.509598876953125,-0.03420845419168472,-0.014355333521962166,0.013286318629980087
1761417676307422700,5.526422607421875,-0.03222314268350601,-0.014508049935102463,0.012828170321881771
1761417676324246300,5.543246337890625,-0.022449297830462456,-0.0074830991216003895,-0.0013744467869400978
1761417676341070600,5.560070556640625,-0.013439035043120384,0.0009162978967651725,-0.00855211354792118
1761417676357894100,5.57689404296875,-0.008704829961061478,-0.002138028386980295,0.0007635815418325365
1761417676374718000,5.593718017578125,-0.006261368747800589,-0.012675453908741474,-0.0024434609804302454
1761417676391555600,5.6105556640625,-0.009162978269159794,-0.009926560334861279,-0.014813481830060482
1761417676408382700,5.6273828125,-0.013286318629980087,-0.00366519158706069,-0.02367102913558483
1761417676425201700,5.64420166015625,-0.008857546374201775,-0.01618792861700058,-0.025045474991202354
1761417676442010000,5.661010009765625,0.005039638374000788,-0.023518312722444534,-0.01191187184303999
1761417676458854400,5.6778544921875,0.013744467869400978,-0.024434609338641167,0.0029016099870204926
1761417676475687200,5.694687255859375,0.020311269909143448,-0.016951510682702065,0.005192354787141085
1761417676492495000,5.7114951171875,0.022907447069883347,-0.010690141469240189,-0.003817907767370343
1761417676509305300,5.728305419921875,0.025961773470044136,-0.0029016099870204926,-0.023060163483023643
1761417676526145800,5.745145751953125,0.029016099870204926,-0.007177666760981083,-0.024892758578062057
1761417676542965800,5.7619658203125,0.03084869496524334,-0.021991148591041565,-0.003054326167330146
1761417676559797500,5.778797607421875,0.023060163483023643,-0.04535674303770065,0.020463986322283745
1761417676576617700,5.79561767578125,0.023060163483023643,-0.04046982154250145,0.02382374368607998
1761417676593436700,5.812436767578125,0.028405234217643738,-0.015271631069481373,0.02076941914856434
1761417676610269200,5.829269287109375,0.026419922709465027,0.004123340360820293,0.016493361443281174
1761417676627089200,5.846089111328125,0.016340645030140877,-0.003054326167330146,0.013286318629980087
1761417676643912400,5.862912353515625,0.0032070425804704428,-0.02321287989616394,0.014813481830060482
1761417676660736800,5.87973681640625,-0.009621127508580685,-0.056810468435287476,0.010995574295520782
1761417676677569500,5.896569580078125,-0.01817324012517929,-0.060322944074869156,0.0006108652451075613
1761417676694384000,5.913384033203125,-0.02779436856508255,-0.02015855349600315,-0.006872233934700489
1761417676711208000,5.9302080078125,-0.029626963660120964,0.012675453908741474,-0.006719517521560192
1761417676728031500,5.947031494140625,-0.026419922709465027,0.03084869496524334,0.00733038317412138
1761417676744824600,5.963824462890625,-0.02672535367310047,0.010690141469240189,0.024587325751781464
1761417676761666600,5.98066650390625,-0.018325956538319588,-0.020616702735424042,0.034666601568460464
1761417676778489000,5.997489013671875,-0.00931569468230009,-0.036651913076639175,0.03497203439474106
1761417676795316200,6.014316162109375,-0.005039638374000788,-0.029168816283345222,0.02015855349600315
1761417676812113200,6.031113037109375,-0.008857546374201775,0.0003054326225537807,0.001832595793530345
1761417676828963800,6.0479638671875,-0.01970040425658226,0.019853120669722557,-0.007788531947880983
1761417676845784300,6.064784423828125,-0.02275473065674305,0.022907447069883347,-0.00855211354792118
1761417676862608100,6.081608154296875,-0.023518312722444534,0.0012217304902151227,0.003512475173920393
1761417676879421700,6.098421630859375,-0.02367102913558483,-0.011301007121801376,0.010231993161141872
1761417676896253000,6.1152529296875,-0.024892758578062057,-0.02015855349600315,0.0027488935738801956
1761417676913078300,6.132078369140625,-0.02015855349600315,-0.012828170321881771,-0.001832595793530345
1761417676929916700,6.148916748046875,-0.015577063895761967,-0.0007635815418325365,-0.0006108652451075613
1761417676946741000,6.165740966796875,-0.011301007121801376,0.021532999351620674,0.004428773187100887
1761417676963564800,6.182564697265625,-0.010842857882380486,0.022907447069883347,0.018325956538319588
1761417676980388900,6.199388916015625,-0.005650503560900688,0.02015855349600315,0.029016099870204926
1761417676997211600,6.216211669921875,0,0.00855211354792118,0.028405234217643738
1761417677014037500,6.23303759765625,0.005345070734620094,0,0.02474004216492176
1761417677030860000,6.249860107421875,0.006719517521560192,0.009621127508580685,0.02672535367310047
1761417677047683600,6.26668359375,0.005345070734620094,0.016493361443281174,0.031154127791523933
1761417677064507400,6.28350732421875,0.0019853119738399982,0.013591751456260681,0.036651913076639175
1761417677081327400,6.300327392578125,0.0010690141934901476,0.007177666760981083,0.03375030308961868
1761417677098159000,6.3171591796875,0.007024950347840786,0.003817907767370343,0.026114489883184433
1761417677114979800,6.333979736328125,0.006719517521560192,0.0032070425804704428,0.012980886735022068
1761417677131801900,6.3508017578125,0.003817907767370343,0.008857546374201775,0.001527163083665073
1761417677148626700,6.367626708984375,0.0012217304902151227,0.027030786499381065,-0.005650503560900688
1761417677165450200,6.3844501953125,-0.00015271631127689034,0.024587325751781464,-0.009773843921720982
1761417677182270000,6.40127001953125,0.005039638374000788,0.012217304669320583,-0.004428773187100887
1761417677199102000,6.41810205078125,0.012980886735022068,0,0.010842857882380486
1761417677215905300,6.4349052734375,0.012217304669320583,-0.0009162978967651725,0.03634648025035858
1761417677232728300,6.451728271484375,0.004123340360820293,-0.008857546374201775,0.04581489413976669
1761417677249557500,6.4685576171875,-0.001527163083665073,-0.014355333521962166,0.02275473065674305
1761417677266377200,6.485377197265625,0.0010690141934901476,-0.004123340360820293,-0.011759156361222267
1761417677283203000,6.502203125,0.005497787147760391,0.009926560334861279,-0.02428189292550087
1761417677300027000,6.51902685546875,0.006719517521560192,0.00427605677396059,-0.00931569468230009
1761417677316834800,6.535834716796875,0.008399397134780884,-0.016340645030140877,0.015271631069481373
1761417677333665500,6.55266552734375,0.015118914656341076,-0.024434609338641167,0.030085112899541855
1761417677350498600,6.56949853515625,0.016035212203860283,-0.010537425056099892,0.026419922709465027
1761417677367339300,6.58633935546875,0.011759156361222267,-0.00366519158706069,0.009926560334861279
1761417677384160300,6.60316015625,0.003359758760780096,-0.015882495790719986,-0.0064140851609408855
1761417677400984000,6.619984130859375,0.00045814894838258624,-0.023060163483023643,-0.014508049935102463
1761417677417790700,6.636790771484375,-0.011453723534941673,-0.017867809161543846,-0.009621127508580685
1761417677434631000,6.653630859375,-0.021074850112199783,-0.004123340360820293,0.0032070425804704428
1761417677451455000,6.670455078125,-0.024129176512360573,-0.004734205547720194,0.015577063895761967
1761417677468275500,6.687275390625,-0.019853120669722557,-0.0006108652451075613,0.016951510682702065
1761417677485089500,6.704089599609375,-0.01191187184303999,0.014049900695681572,0.016035212203860283
1761417677501949400,6.720949462890625,-0.009621127508580685,0.01114829070866108,0.01542434748262167
1761417677518750000,6.73775,-0.01664607785642147,0.006108652334660292,0.01542434748262167
1761417677535573800,6.75457373046875,-0.026114489883184433,-0.006872233934700489,0.014813481830060482
1761417677552397600,6.7713974609375,-0.02382374368607998,-0.007788531947880983,0.008399397134780884
1761417677569204700,6.788204833984375,-0.020616702735424042,0.0006108652451075613,-0.003359758760780096
1761417677586045200,6.805045166015625,-0.020463986322283745,0.017409659922122955,-0.010537425056099892
1761417677602870500,6.82187060546875,-0.023976460099220276,0.01618792861700058,-0.007177666760981083
1761417677619691300,6.838691162109375,-0.02733621932566166,-0.002138028386980295,0.008246680721640587
1761417677636507000,6.8555068359375,-0.029474247246980667,-0.02229658141732216,0.012522737495601177
1761417677653323500,6.872323486328125,-0.026419922709465027,-0.021380282938480377,-0.0039706239476799965
1761417677670165200,6.889165283203125,-0.024434609338641167,-0.006108652334660292,-0.027183502912521362
1761417677686988000,6.905988037109375,-0.027641652151942253,0.005955935921519995,-0.038026362657547
1761417677703811600,6.9228115234375,-0.03237585723400116,0.013744467869400978,-0.01878410577774048
1761417677720618800,6.93961865234375,-0.031154127791523933,0.018325956538319588,0.005192354787141085
1761417677737434400,6.956434326171875,-0.024434609338641167,0.014966198243200779,0.019547687843441963
1761417677754268000,6.973267822265625,-0.016493361443281174,0.008246680721640587,0.024434609338641167
1761417677771094500,6.990094482421875,-0.00855211354792118,0.009926560334861279,0.010995574295520782
1761417677787914000,7.0069140625,-0.004428773187100887,0.01924225501716137,-0.006261368747800589
1761417677804744000,7.023743896484375,-0.008704829961061478,0.025045474991202354,-0.02076941914856434
1761417677821564700,7.040564697265625,-0.016951510682702065,0.026572637259960175,-0.028099801391363144
1761417677838388500,7.057388427734375,-0.02015855349600315,0.024129176512360573,-0.025656340643763542
1761417677855220500,7.074220458984375,-0.01466076634824276,0.021074850112199783,-0.014355333521962166
1761417677872049400,7.09104931640625,-0.00931569468230009,0.011301007121801376,-0.004123340360820293
1761417677888877600,7.107877685546875,-0.00809396430850029,0.0064140851609408855,-0.002138028386980295
1761417677905693400,7.124693359375,-0.012675453908741474,0.004734205547720194,-0.005345070734620094
1761417677922505000,7.1415048828125,-0.017867809161543846,0.014966198243200779,-0.012217304669320583
1761417677939329300,7.158329345703125,-0.02015855349600315,0.018020525574684143,-0.00855211354792118
1761417677956152600,7.175152587890625,-0.013591751456260681,0.01466076634824276,0.0019853119738399982
1761417677972977200,7.19197705078125,-0.012980886735022068,0.0074830991216003895,0.0012217304902151227
1761417677989787400,7.208787353515625,-0.014813481830060482,0.007024950347840786,-0.007941247895359993
1761417678006614500,7.225614501953125,-0.020463986322283745,0.006719517521560192,-0.011301007121801376
1761417678023437600,7.2424375,-0.02382374368607998,0.01038470957428217,-0.00931569468230009
1761417678040262700,7.2592626953125,-0.025656340643763542,0.014508049935102463,-0.0019853119738399982
1761417678057100800,7.276100830078125,-0.01863138936460018,0.015271631069481373,-0.0010690141934901476
1761417678073921800,7.292921875,-0.010079276748001575,0.0012217304902151227,-0.007788531947880983
1761417678090745000,7.3097451171875,-0.0039706239476799965,-0.01725694350898266,-0.005192354787141085
1761417678107569200,7.326569091796875,-0.007635815534740686,-0.015882495790719986,0.004581489134579897
1761417678124392400,7.343392333984375,-0.020005837082862854,-0.0025961773935705423,0.009621127508580685
1761417678141217300,7.36021728515625,-0.027641652151942253,0.00855211354792118,0.004886921960860491
1761417678158045000,7.377044921875,-0.02535090781748295,0.006719517521560192,0.0009162978967651725
1761417678174873000,7.393873046875,-0.022602014243602753,-0.00015271631127689034,-0.0025961773935705423
1761417678191702300,7.410702392578125,-0.021532999351620674,-0.012980886735022068,0.003817907767370343
1761417678208526300,7.4275263671875,-0.020616702735424042,-0.03237585723400116,0.010231993161141872
1761417678225335600,7.44433544921875,-0.016035212203860283,-0.04046982154250145,0.019853120669722557
1761417678242159600,7.46115966796875,-0.013439035043120384,-0.044135015457868576,0.03390302136540413
1761417678258980000,7.47797998046875,-0.007788531947880983,-0.023060163483023643,0.04138612002134323
1761417678275796700,7.494796630859375,-0.006719517521560192,0.0027488935738801956,0.02886338345706463
1761417678292630800,7.511630859375,-0.009621127508580685,0.013133603148162365,0.0019853119738399982
1761417678309454600,7.52845458984375,-0.011759156361222267,0.022143865004181862,-0.01771509274840355
1761417678326278700,7.545278564453125,-0.016493361443281174,0.015577063895761967,-0.019089538604021072
1761417678343119400,7.562119384765625,-0.018325956538319588,0.0009162978967651725,-0.00931569468230009
1761417678359939800,7.57893994140625,-0.01710422709584236,-0.007788531947880983,0.0012217304902151227
1761417678376764000,7.595763916015625,-0.016035212203860283,0.00427605677396059,-0.0007635815418325365
1761417678393583900,7.612583984375,-0.017867809161543846,0.007024950347840786,-0.013897184282541275
1761417678410415000,7.6294150390625,-0.01863138936460018,0.003817907767370343,-0.024129176512360573
1761417678427232300,7.646232177734375,-0.015577063895761967,0.005955935921519995,-0.027183502912521362
1761417678444061400,7.6630615234375,-0.009926560334861279,0.01863138936460018,-0.024129176512360573
1761417678460865800,7.67986572265625,-0.0074830991216003895,0.018020525574684143,-0.01878410577774048
1761417678477689900,7.69668994140625,-0.007635815534740686,0.008857546374201775,-0.013744467869400978
1761417678494527000,7.71352685546875,-0.008704829961061478,0.0009162978967651725,-0.009010262787342072
1761417678511357400,7.730357421875,-0.001527163083665073,0.008704829961061478,-0.0019853119738399982
1761417678528178000,7.747177978515625,0.00427605677396059,0.011301007121801376,0.01160643994808197
1761417678545001500,7.76400146484375,0.004581489134579897,0.001527163083665073,0.018020525574684143
1761417678561813200,7.780813232421875,0.006108652334660292,0.0027488935738801956,0.017867809161543846
1761417678578632400,7.797632568359375,0.005192354787141085,0.005955935921519995,0.007177666760981083
1761417678595478000,7.81447802734375,0.00366519158706069,0.004123340360820293,-0.006108652334660292
1761417678612276700,7.83127685546875,0.0010690141934901476,-0.005497787147760391,-0.007635815534740686
1761417678629116000,7.848115966796875,0.003359758760780096,-0.00366519158706069,-0.004123340360820293
1761417678645972000,7.864971923828125,0.0007635815418325365,0.004581489134579897,0.009926560334861279
1761417678662764000,7.881763916015625,-0.004428773187100887,0.0024434609804302454,0.016340645030140877
1761417678679596300,7.89859619140625,-0.004886921960860491,0.0032070425804704428,0.005955935921519995
1761417678696416000,7.915416015625,0.0012217304902151227,0.006872233934700489,-0.014508049935102463
1761417678713223200,7.93222314453125,0.006719517521560192,0.014508049935102463,-0.026114489883184433
1761417678730031000,7.949031005859375,0.001832595793530345,-0.006108652334660292,-0.022143865004181862
1761417678746863900,7.96586376953125,-0.008704829961061478,-0.030085112899541855,-0.014508049935102463
1761417678763685000,7.98268505859375,-0.016340645030140877,-0.023518312722444534,-0.011453723534941673
1761417678780509200,7.99950927734375,-0.014202617108821869,0.00015271631127689034,-0.009162978269159794
1761417678797332700,8.016332763671874,-0.0012217304902151227,0.010079276748001575,-0.007788531947880983
1761417678814158000,8.033157958984376,0.013439035043120384,-0.005039638374000788,-0.0009162978967651725
1761417678830979600,8.0499794921875,0.02275473065674305,-0.019394971430301666,0.014049900695681572
1761417678847804700,8.0668046875,0.018478672951459885,-0.021532999351620674,0.032070424407720566
1761417678864628200,8.083628173828124,0.007941247895359993,-0.008246680721640587,0.032070424407720566
1761417678881451300,8.100451171875,0.0032070425804704428,0.01237002108246088,0.011759156361222267
1761417678898274800,8.11727490234375,0.004886921960860491,0.023060163483023643,-0.009621127508580685
1761417678915098000,8.13409814453125,0.004428773187100887,0.01664607785642147,-0.010231993161141872
1761417678931923500,8.15092333984375,-0.00366519158706069,0.0009162978967651725,0.0003054326225537807
1761417678948746200,8.167746337890625,-0.013439035043120384,-0.010842857882380486,0.010842857882380486
1761417678965569800,8.18456982421875,-0.015118914656341076,-0.0029016099870204926,0.009621127508580685
1761417678982397400,8.2013974609375,-0.012828170321881771,0.0065668015740811825,-0.00427605677396059
1761417678999218400,8.218218505859374,-0.010537425056099892,0.0022907445672899485,-0.020005837082862854
1761417679016035300,8.235035400390625,-0.011759156361222267,-0.003512475173920393,-0.025961773470044136
1761417679032882700,8.251882568359376,-0.011453723534941673,-0.004123340360820293,-0.01924225501716137
1761417679049698600,8.268698486328125,-0.00809396430850029,-0.007788531947880983,-0.01237002108246088
1761417679066516000,8.285515869140625,-0.00045814894838258624,-0.008704829961061478,-0.0032070425804704428
1761417679083336000,8.3023359375,0.008704829961061478,-0.004886921960860491,0.005039638374000788
1761417679100173000,8.319173095703125,0.01038470957428217,-0.009010262787342072,0.014813481830060482
1761417679116994300,8.335994384765625,0.014049900695681572,-0.0010690141934901476,0.01191187184303999
1761417679133840100,8.352840087890625,0.013744467869400978,-0.00015271631127689034,0.002138028386980295
1761417679150654500,8.369654541015626,0.01237002108246088,-0.004428773187100887,-0.003817907767370343
1761417679167478800,8.386478759765625,0.0039706239476799965,-0.016035212203860283,-0.0039706239476799965
1761417679184302000,8.403302001953126,-0.001832595793530345,-0.010231993161141872,0.0019853119738399982
1761417679201116400,8.420116455078125,-0.0065668015740811825,-0.001527163083665073,0.010231993161141872
1761417679217940000,8.43693994140625,-0.0064140851609408855,-0.004123340360820293,0.006719517521560192
1761417679234763300,8.45376318359375,-0.009926560334861279,-0.015118914656341076,0.00045814894838258624
1761417679251587000,8.470587158203125,-0.010995574295520782,-0.00809396430850029,-0.005345070734620094
1761417679268411100,8.4874111328125,-0.008246680721640587,0.004581489134579897,-0.012980886735022068
1761417679285235000,8.50423486328125,-0.002138028386980295,0.0064140851609408855,-0.009926560334861279
1761417679302058500,8.52105859375,0.001832595793530345,-0.0039706239476799965,0.003817907767370343
1761417679318886000,8.537885986328124,-0.0025961773935705423,-0.013591751456260681,0.025045474991202354
1761417679335720000,8.554719970703125,-0.008246680721640587,-0.021532999351620674,0.030237829312682152
1761417679352544000,8.5715439453125,-0.0064140851609408855,-0.010231993161141872,0.021380282938480377
1761417679369367300,8.5883671875,-0.0019853119738399982,-0.012064588256180286,0.010842857882380486
1761417679386191400,8.60519140625,0.002138028386980295,-0.020005837082862854,0.0032070425804704428
1761417679403027700,8.62202783203125,-0.0025961773935705423,-0.015882495790719986,0.0039706239476799965
1761417679419837000,8.6388369140625,-0.00931569468230009,-0.00015271631127689034,0.008857546374201775
1761417679436663000,8.6556630859375,-0.010995574295520782,0.007024950347840786,0.014966198243200779
1761417679453482000,8.67248193359375,-0.004886921960860491,-0.007024950347840786,0.020005837082862854
1761417679470310400,8.689310302734375,0.007024950347840786,-0.014813481830060482,0.027488935738801956
1761417679487122400,8.706122314453125,0.010079276748001575,-0.010842857882380486,0.029474247246980667
1761417679503942400,8.7229423828125,-0.003359758760780096,-0.02275473065674305,0.020922135561704636
1761417679520768000,8.73976806640625,-0.019853120669722557,-0.03130684420466423,0.003054326167330146
1761417679537578500,8.75657861328125,-0.02168571576476097,-0.025045474991202354,-0.009773843921720982
1761417679554413000,8.7734130859375,-0.01191187184303999,-0.01542434748262167,-0.007635815534740686
1761417679571241700,8.79024169921875,0.0025961773935705423,-0.02474004216492176,0.008704829961061478
1761417679588080000,8.807080078125,0.01237002108246088,-0.033139441162347794,0.020005837082862854
1761417679604901000,8.823901123046875,0.009926560334861279,-0.01572977937757969,0.019394971430301666
1761417679621724200,8.84072412109375,0.005497787147760391,-0.0039706239476799965,0.013133603148162365
1761417679638548700,8.857548828125,0.006108652334660292,-0.0022907445672899485,0.0027488935738801956
1761417679655349800,8.874349853515625,0.008246680721640587,0.0022907445672899485,-0.0039706239476799965
1761417679672198400,8.891198486328125,0.00733038317412138,0.012675453908741474,-0.008246680721640587
1761417679689003500,8.90800341796875,0.005039638374000788,0.007788531947880983,-0.0064140851609408855
1761417679705829600,8.92482958984375,0.0024434609804302454,-0.0019853119738399982,0.003359758760780096
1761417679722653400,8.9416533203125,0.001832595793530345,-0.00366519158706069,0.020463986322283745
1761417679739477200,8.958477294921876,-0.00366519158706069,-0.0022907445672899485,0.02825251780450344
1761417679756301000,8.975301025390625,-0.0074830991216003895,0.00045814894838258624,0.009773843921720982
1761417679773124900,8.992124755859376,-0.00855211354792118,0.019089538604021072,-0.01618792861700058
1761417679789948400,9.008948486328125,-0.01160643994808197,0.01817324012517929,-0.03787364438176155
1761417679806775800,9.02577587890625,-0.007788531947880983,0.00427605677396059,-0.04077525436878204
1761417679823605800,9.042605712890625,-0.013897184282541275,-0.019547687843441963,-0.021532999351620674
1761417679840420900,9.0594208984375,-0.011759156361222267,-0.01878410577774048,-0.005955935921519995
1761417679857258000,9.076258056640626,-0.006261368747800589,-0.007788531947880983,-0.006719517521560192
1761417679874080800,9.093080810546875,0.0024434609804302454,0.003512475173920393,-0.01924225501716137
1761417679890878700,9.109878662109375,0.006261368747800589,0.004581489134579897,-0.03084869496524334
1761417679907712800,9.126712646484375,0.007788531947880983,0.0010690141934901476,-0.02871066704392433
1761417679924552700,9.143552734375,0.005345070734620094,-0.013439035043120384,-0.021074850112199783
1761417679941364200,9.1603642578125,0.007024950347840786,-0.00931569468230009,-0.010537425056099892
1761417679958183200,9.17718310546875,0.007635815534740686,-0.002138028386980295,-0.006719517521560192
1761417679975024400,9.1940244140625,0.012064588256180286,0.005497787147760391,-0.007024950347840786
1761417679991842000,9.210842041015624,0.016035212203860283,0.01817324012517929,-0.007635815534740686
1761417680008677000,9.227677001953126,0.021074850112199783,0.028405234217643738,-0.009773843921720982
1761417680025478400,9.244478515625,0.01970040425658226,0.012522737495601177,-0.009773843921720982
1761417680042319000,9.261319091796874,0.018325956538319588,0.015882495790719986,-0.004734205547720194
1761417680059149300,9.2781494140625,0.00931569468230009,0.02168571576476097,-0.01618792861700058
1761417680075993900,9.294993896484375,0.00045814894838258624,0.04352414980530739,-0.030543262138962746
1761417680092788500,9.31178857421875,-0.0007635815418325365,0.05619960278272629,-0.04306599870324135
1761417680109616400,9.328616455078125,0.005192354787141085,0.04734205827116966,-0.04642575979232788
1761417680126437600,9.345437744140625,0.006261368747800589,0.05467243865132332,-0.007024950347840786
1761417680143240700,9.36224072265625,0.0024434609804302454,0.009773843921720982,0.055283304303884506
1761417680160085500,9.37908544921875,0.012675453908741474,-0.05772676691412926,0.07467827945947647
1761417680176906200,9.39590625,0.016798794269561768,-0.04902193695306778,0.05619960278272629
1761417680193719600,9.412719482421876,0.013591751456260681,-0.005192354787141085,0.008399397134780884
1761417680210548000,9.4295478515625,0.016340645030140877,0.02535090781748295,-0.04489859566092491
1761417680227367200,9.4463671875,0.015271631069481373,0.03634648025035858,-0.08994990587234497
1761417680244190700,9.463190673828125,0.010690141469240189,0.04948008432984352,-0.0988074541091919
1761417680261014500,9.4800146484375,0.010537425056099892,0.02825251780450344,-0.05100724846124649
1761417680277826800,9.496826904296874,0.005192354787141085,-0.04046982154250145,0.015271631069481373
1761417680294665500,9.51366552734375,0.0012217304902151227,-0.07620543986558914,0.03375030308961868
