time,seconds_elapsed,z,y,x
1761486908579965700,0.144965576171875,-0.020463986322283745,-0.0328340083360672,0.010231993161141872
1761486908596662800,0.161662841796875,-0.01725694350898266,-0.01664607785642147,0.024434609338641167
1761486908613496300,0.178496337890625,-0.006719517521560192,0.007635815534740686,0.023518312722444534
1761486908630337300,0.195337158203125,0.014049900695681572,0.03222314268350601,0.023518312722444534
1761486908647136800,0.21213671875,0.03955352306365967,0.01771509274840355,0.03436116874217987
1761486908663980000,0.22897998046875,0.054367005825042725,-0.022449297830462456,0.043676864355802536
1761486908680794000,0.245794189453125,0.05360342562198639,-0.03741549700498581,0.04352414980530739
1761486908697615000,0.262614990234375,0.04948008432984352,-0.0328340083360672,0.038637228310108185
1761486908714453200,0.279453369140625,0.04612032696604729,-0.016493361443281174,0.04260785132646561
1761486908731286500,0.29628662109375,0.04092797264456749,0.012675453908741474,0.05711590126156807
1761486908748093000,0.313093017578125,0.036193765699863434,0.036651913076639175,0.06429356336593628
1761486908764940500,0.3299404296875,0.0377209298312664,0.02428189292550087,0.05772676691412926
1761486908781752800,0.3467529296875,0.039706241339445114,-0.013133603148162365,0.04444044828414917
1761486908798584800,0.363584716796875,0.038026362657547,-0.021991148591041565,0.04382958263158798
1761486908815411200,0.3804111328125,0.03985895588994026,-0.04535674303770065,0.037110064178705215
1761486908832222700,0.39722265625,0.051770828664302826,-0.043218716979026794,0.030085112899541855
1761486908849058000,0.41405810546875,0.0630718395113945,-0.03237585723400116,0.03451388701796532
1761486908865891000,0.43089111328125,0.06383541971445084,-0.03130684420466423,0.04841107130050659
1761486908882713000,0.447713134765625,0.062460970133543015,-0.04535674303770065,0.05971207842230797
1761486908899534300,0.464534423828125,0.07437284290790558,-0.04230241850018501,0.06612616032361984
1761486908916364000,0.481364013671875,0.1033889427781105,-0.024434609338641167,0.07864890247583389
1761486908933173000,0.498173095703125,0.1394299864768982,0.001832595793530345,0.10399980843067169
1761486908949999000,0.5149990234375,0.17562375962734222,-0.003359758760780096,0.11026117950677872
1761486908966836500,0.53183642578125,0.20952677726745605,0.04505131021142006,0.09834930300712585
1761486908983670500,0.54867041015625,0.2171625941991806,0.03344487398862839,0.08414668589830399
1761486909000491500,0.565491455078125,0.16019940376281738,-0.04398229718208313,0.10735956579446793
1761486909017317400,0.5823173828125,0.08811730891466141,-0.10461067408323288,0.16203200817108154
1761486909034142700,0.599142822265625,0.046731192618608475,-0.09941831976175308,0.20830504596233368
1761486909050968800,0.61596875,0.03741549700498581,-0.07223481684923172,0.20494529604911804
1761486909067794000,0.6327939453125,0.06230825558304787,0.02321287989616394,0.17928895354270935
1761486909084616000,0.649615966796875,0.09575312584638596,0.1359175145626068,0.1690569519996643
1761486909101428700,0.6664287109375,0.11927144229412079,0.16401731967926025,0.18127426505088806
1761486909118256000,0.683256103515625,0.12751811742782593,0.1342376321554184,0.23060162365436554
1761486909135082500,0.70008251953125,0.1508837193250656,0.14156801998615265,0.26481008529663086
1761486909151908400,0.716908447265625,0.19043724238872528,0.10751228034496307,0.23945917189121246
1761486909168733700,0.733733642578125,0.22143864631652832,0.09162978827953339,0.22281309962272644
1761486909185559300,0.750559326171875,0.21471913158893585,0.078343465924263,0.22846360504627228
1761486909202401800,0.76740185546875,0.18799377977848053,0.07422012835741043,0.22937989234924316
1761486909219224600,0.784224609375,0.17119498550891876,0.06536258012056351,0.18707747757434845
1761486909236050000,0.8010498046875,0.1408044397830963,0.06780604273080826,0.1459967941045761
1761486909252884000,0.817884033203125,0.10965031385421753,0.0806342139840126,0.13515393435955048
1761486909269698000,0.834697998046875,0.08994990587234497,0.11010845750570297,0.1463022232055664
1761486909286529300,0.851529296875,0.07987063378095627,0.14523321390151978,0.1408044397830963
1761486909303349800,0.868349853515625,0.08109235763549805,0.13607023656368256,0.07376197725534439
1761486909320177700,0.885177734375,0.09422596544027328,0.04642575979232788,-0.02321287989616394
1761486909337002500,0.90200244140625,0.09834930300712585,-0.03039054572582245,-0.08964447677135468
1761486909353829000,0.9188291015625,0.09376781433820724,-0.08017606288194656,-0.11239920556545258
1761486909370654200,0.935654296875,0.06322455406188965,-0.11575896292924881,-0.11514809727668762
1761486909387463200,0.952463134765625,0.02015855349600315,-0.1540907621383667,-0.09987647086381912
1761486909404300800,0.96930078125,0.0010690141934901476,-0.1609629988670349,-0.06933320313692093
1761486909421135400,0.98613525390625,0.017562376335263252,-0.14294247329235077,-0.040622539818286896
1761486909437951200,1.002951171875,0.05406157299876213,-0.10644327104091644,-0.03222314268350601
1761486909454787000,1.019787109375,0.08277224004268646,-0.08857546001672745,-0.06780604273080826
1761486909471607000,1.03660693359375,0.09040805697441101,-0.12538009881973267,-0.11071932315826416
1761486909488429800,1.053429931640625,0.06551529467105865,-0.15974126756191254,-0.09651670604944229
1761486909505262800,1.070262939453125,0.017562376335263252,-0.16844609379768372,-0.05665775015950203
1761486909522083800,1.087083740234375,-0.02321287989616394,-0.16249015927314758,-0.036041051149368286
1761486909538910200,1.10391015625,-0.03756821155548096,-0.12400564551353455,-0.053297992795705795
1761486909555731500,1.1207314453125,-0.027641652151942253,-0.08414668589830399,-0.08338310569524765
1761486909572565000,1.13756494140625,-0.006261368747800589,-0.04963280260562897,-0.09804387390613556
1761486909589369900,1.154369873046875,0.00733038317412138,-0.05345070734620094,-0.08597928285598755
1761486909606198000,1.171197998046875,0.0029016099870204926,-0.060475658625364304,-0.04993823543190956
1761486909623024400,1.1880244140625,-0.008246680721640587,-0.03726277872920036,-0.024129176512360573
1761486909639847200,1.20484716796875,-0.013897184282541275,-0.02580905705690384,-0.022449297830462456
1761486909656675000,1.221675048828125,-0.02122756652534008,-0.01878410577774048,-0.02428189292550087
1761486909673500200,1.238500244140625,-0.02122756652534008,0.005650503560900688,-0.03833179548382759
1761486909690343400,1.255343505859375,-0.014355333521962166,0.01664607785642147,-0.06154467165470123
1761486909707161600,1.27216162109375,-0.02580905705690384,-0.0025961773935705423,-0.0809396430850029
1761486909723978500,1.288978515625,-0.04657847434282303,-0.021380282938480377,-0.09086620807647705
1761486909740814600,1.305814697265625,-0.05925392732024193,-0.020311269909143448,-0.07360926270484924
1761486909757644300,1.322644287109375,-0.06398813426494598,-0.011453723534941673,-0.0354301854968071
1761486909774467800,1.3394677734375,-0.06979135423898697,-0.02687807008624077,-0.007788531947880983
1761486909791293200,1.356293212890625,-0.06291911751031876,-0.03145955875515938,-0.002138028386980295
1761486909808120800,1.373120849609375,-0.0503963828086853,-0.03405573591589928,-0.013286318629980087
1761486909824925400,1.389925537109375,-0.04505131021142006,-0.027183502912521362,-0.03222314268350601
1761486909841748700,1.406748779296875,-0.04795292019844055,-0.005955935921519995,-0.04734205827116966
1761486909858595300,1.42359521484375,-0.05253441259264946,0.010537425056099892,-0.05146539583802223
1761486909875411000,1.440410888671875,-0.05146539583802223,0.013439035043120384,-0.039706241339445114
1761486909892246800,1.457246826171875,-0.048716504126787186,0.004886921960860491,-0.026114489883184433
1761486909909072100,1.474072021484375,-0.04153883829712868,-0.006261368747800589,-0.012828170321881771
1761486909925875700,1.490875732421875,-0.033139441162347794,-0.01466076634824276,0.001832595793530345
1761486909942718000,1.507718017578125,-0.021074850112199783,-0.013591751456260681,0.013439035043120384
1761486909959554300,1.52455419921875,-0.0029016099870204926,-0.008246680721640587,0.007635815534740686
1761486909976374000,1.5413740234375,0.007941247895359993,-0.009468411095440388,-0.007024950347840786
1761486909993199900,1.558199951171875,0.005192354787141085,-0.0025961773935705423,-0.017409659922122955
1761486910010021000,1.575021240234375,-0.005192354787141085,0.0025961773935705423,-0.027947084978222847
1761486910026856700,1.591856689453125,-0.019089538604021072,0.020922135561704636,-0.038179077208042145
1761486910043674600,1.608674560546875,-0.02382374368607998,0.015271631069481373,-0.03497203439474106
1761486910060502500,1.62550244140625,-0.038179077208042145,-0.001832595793530345,-0.020922135561704636
1761486910077309700,1.642309814453125,-0.04153883829712868,-0.01572977937757969,-0.016493361443281174
1761486910094140000,1.659139892578125,-0.030237829312682152,-0.003359758760780096,-0.01817324012517929
1761486910110964700,1.67596484375,-0.02015855349600315,0.004581489134579897,-0.020005837082862854
1761486910127777300,1.69277734375,-0.02122756652534008,-0.01160643994808197,-0.016035212203860283
1761486910144616000,1.709615966796875,-0.030543262138962746,-0.03588833287358284,-0.003054326167330146
1761486910161441800,1.72644189453125,-0.0403171069920063,-0.0507018156349659,0.010690141469240189
1761486910178270700,1.743270751953125,-0.040164388716220856,-0.04764748737215996,0.011301007121801376
1761486910195104800,1.760104736328125,-0.04108068719506264,-0.06582073122262955,-0.005497787147760391
1761486910211930400,1.776930419921875,-0.0403171069920063,-0.07727445662021637,-0.023976460099220276
1761486910228757800,1.7937578125,-0.0507018156349659,-0.07452555745840073,-0.0328340083360672
1761486910245569800,1.81056982421875,-0.07024950534105301,-0.07147123664617538,-0.036193765699863434
1761486910262388500,1.827388427734375,-0.09453139454126358,-0.05009094998240471,-0.036651913076639175
1761486910279233800,1.84423388671875,-0.10674870014190674,-0.028557950630784035,-0.036193765699863434
1761486910296060200,1.86106005859375,-0.11499538272619247,-0.013133603148162365,-0.03390302136540413
1761486910312865000,1.877864990234375,-0.11178833991289139,0.0006108652451075613,-0.02321287989616394
1761486910329715000,1.89471484375,-0.09407325088977814,-0.005345070734620094,-0.014049900695681572
1761486910346532400,1.911532470703125,-0.06673702597618103,-0.007024950347840786,-0.014355333521962166
1761486910363350000,1.92835009765625,-0.05192354694008827,-0.00855211354792118,-0.01466076634824276
1761486910380187400,1.9451875,-0.05971207842230797,-0.01771509274840355,-0.021074850112199783
1761486910397013200,1.96201318359375,-0.07269296050071716,-0.02367102913558483,-0.03985895588994026
1761486910413822500,1.978822509765625,-0.08032877743244171,-0.020311269909143448,-0.05864306539297104
1761486910430664200,1.995664306640625,-0.07437284290790558,-0.020005837082862854,-0.05803219974040985
1761486910447468500,2.012468505859375,-0.05497787147760391,-0.024434609338641167,-0.046273041516542435
1761486910464320000,2.029320068359375,-0.030695978552103043,-0.003054326167330146,-0.044287730008363724
1761486910481140500,2.046140380859375,-0.016798794269561768,0.013133603148162365,-0.029168816283345222
1761486910497931000,2.062930908203125,-0.022449297830462456,0.0032070425804704428,-0.005192354787141085
1761486910514795300,2.079795166015625,-0.031154127791523933,-0.024892758578062057,0.00015271631127689034
1761486910531617300,2.0966171875,-0.030543262138962746,-0.025656340643763542,-0.004123340360820293
1761486910548423200,2.113423095703125,-0.03237585723400116,-0.024129176512360573,-0.01160643994808197
1761486910565255200,2.130255126953125,-0.04077525436878204,-0.02015855349600315,-0.01771509274840355
1761486910582086100,2.147086181640625,-0.050854530185461044,-0.004123340360820293,-0.020463986322283745
1761486910598905900,2.16390576171875,-0.05268712714314461,0.008857546374201775,-0.014355333521962166
1761486910615731500,2.1807314453125,-0.04764748737215996,0.004123340360820293,-0.00855211354792118
1761486910632557300,2.197557373046875,-0.04230241850018501,-0.003512475173920393,-0.005497787147760391
1761486910649382700,2.214382568359375,-0.03726277872920036,-0.001679879380390048,-0.007177666760981083
1761486910666208300,2.231208251953125,-0.03726277872920036,0.003054326167330146,-0.0027488935738801956
1761486910683050500,2.248050537109375,-0.03649919852614403,0.0022907445672899485,0.0065668015740811825
1761486910699869400,2.264869384765625,-0.03329215571284294,0.012828170321881771,0.005803219974040985
1761486910716705000,2.281705078125,-0.029474247246980667,0.018478672951459885,0.004734205547720194
1761486910733521700,2.298521728515625,-0.028405234217643738,0.005192354787141085,0.007788531947880983
1761486910750328800,2.315328857421875,-0.02779436856508255,-0.015118914656341076,0.00733038317412138
1761486910767166000,2.332166015625,-0.03436116874217987,-0.023976460099220276,-0.009926560334861279
1761486910784000000,2.349,-0.03833179548382759,-0.011301007121801376,-0.03405573591589928
1761486910800822800,2.36582275390625,-0.04581489413976669,0.01863138936460018,-0.05146539583802223
1761486910817655600,2.382655517578125,-0.051312681287527084,0.025961773470044136,-0.054367005825042725
1761486910834464000,2.399464111328125,-0.04657847434282303,0.03344487398862839,-0.036651913076639175
1761486910851302700,2.416302734375,-0.03741549700498581,0.03298672288656235,-0.018325956538319588
1761486910868128300,2.433128173828125,-0.021074850112199783,0.027488935738801956,-0.003512475173920393
1761486910884949800,2.44994970703125,-0.0039706239476799965,0.01038470957428217,0.0012217304902151227
1761486910901783600,2.466783447265625,0.01114829070866108,-0.0009162978967651725,0.0032070425804704428
1761486910918605000,2.48360498046875,0.016951510682702065,-0.0039706239476799965,0.006261368747800589
1761486910935430400,2.500430419921875,0.010079276748001575,-0.01191187184303999,-0.0007635815418325365
1761486910952239900,2.517239990234375,0.0027488935738801956,-0.010690141469240189,-0.02886338345706463
1761486910969082400,2.534082275390625,0.0039706239476799965,0.003512475173920393,-0.05711590126156807
1761486910985907200,2.5509072265625,0.010231993161141872,0.014355333521962166,-0.05100724846124649
1761486911002732800,2.56773291015625,0.011759156361222267,0.009010262787342072,-0.017409659922122955
1761486911019557400,2.584557373046875,0.012980886735022068,-0.011453723534941673,0.005803219974040985
1761486911036385300,2.60138525390625,0.015118914656341076,-0.01572977937757969,0.003054326167330146
1761486911053192700,2.618192626953125,0.016951510682702065,0.003817907767370343,-0.009468411095440388
1761486911070021400,2.635021484375,0.009162978269159794,0.022143865004181862,-0.00809396430850029
1761486911086846500,2.651846435546875,0.0024434609804302454,0.01191187184303999,0.007177666760981083
1761486911103672800,2.6686728515625,-0.001832595793530345,-0.0039706239476799965,0.022602014243602753
1761486911120498000,2.685497802734375,-0.003359758760780096,0.00931569468230009,0.009468411095440388
1761486911137323500,2.702323486328125,0.002138028386980295,0.027947084978222847,-0.010079276748001575
1761486911154133800,2.7191337890625,-0.0065668015740811825,0.01038470957428217,-0.018936822190880775
1761486911170989600,2.735989501953125,-0.020922135561704636,-0.013591751456260681,-0.018478672951459885
1761486911187816200,2.752816162109375,-0.03390302136540413,-0.02076941914856434,-0.016035212203860283
1761486911204626400,2.76962646484375,-0.03985895588994026,-0.019547687843441963,-0.014813481830060482
1761486911221460500,2.78646044921875,-0.03726277872920036,-0.016951510682702065,-0.012064588256180286
1761486911238295000,2.803294921875,-0.033597588539123535,-0.013286318629980087,-0.0039706239476799965
1761486911255140000,2.82014013671875,-0.022449297830462456,-0.00809396430850029,0.010690141469240189
1761486911271938000,2.83693798828125,-0.011301007121801376,0.0039706239476799965,0.01710422709584236
1761486911288770300,2.853770263671875,-0.005497787147760391,0.0022907445672899485,0.012522737495601177
1761486911305560000,2.87056005859375,-0.0032070425804704428,-0.0024434609804302454,0.013744467869400978
1761486911322414300,2.887414306640625,0.0025961773935705423,-0.0013744467869400978,0.02428189292550087
1761486911339222500,2.904222412109375,0.011453723534941673,-0.01114829070866108,0.022143865004181862
1761486911356052200,2.92105224609375,0.013286318629980087,-0.01725694350898266,0.01817324012517929
1761486911372891400,2.937891357421875,0.003817907767370343,-0.01970040425658226,0.021532999351620674
1761486911389724200,2.95472412109375,-0.005345070734620094,-0.004734205547720194,0.03497203439474106
1761486911406549000,2.971549072265625,-0.016340645030140877,0.01114829070866108,0.03634648025035858
1761486911423371300,2.988371337890625,-0.025045474991202354,0.02122756652534008,0.022907447069883347
1761486911440197000,3.005197021484375,-0.0328340083360672,0.015271631069481373,0.00855211354792118
1761486911457022500,3.0220224609375,-0.040622539818286896,-0.0013744467869400978,0.013133603148162365
1761486911473844700,3.0388447265625,-0.03756821155548096,-0.0029016099870204926,0.027030786499381065
1761486911490676700,3.0556767578125,-0.027030786499381065,0.0006108652451075613,0.024892758578062057
1761486911507499800,3.072499755859375,-0.027183502912521362,0.008857546374201775,0.01191187184303999
1761486911524324600,3.08932470703125,-0.03787364438176155,0.0039706239476799965,0.0032070425804704428
1761486911541133600,3.106133544921875,-0.05054909735918045,-0.01710422709584236,-0.003359758760780096
1761486911557962000,3.1229619140625,-0.05100724846124649,-0.00015271631127689034,-0.006261368747800589
1761486911574788000,3.1397880859375,-0.04306599870324135,0.01878410577774048,-0.012217304669320583
1761486911591600000,3.15660009765625,-0.02871066704392433,0.026114489883184433,-0.010079276748001575
1761486911608425500,3.173425537109375,-0.007941247895359993,0.02076941914856434,0.0013744467869400978
1761486911625265200,3.19026513671875,0.0013744467869400978,0.015271631069481373,0.019853120669722557
1761486911642089000,3.2070888671875,-0.001679879380390048,0.02015855349600315,0.031001411378383636
1761486911658951200,3.223951171875,0.00045814894838258624,0.02474004216492176,0.02779436856508255
1761486911675755000,3.240755126953125,0.01038470957428217,0.023060163483023643,0.01710422709584236
1761486911692577000,3.257576904296875,0.017867809161543846,0.015271631069481373,0.010231993161141872
1761486911709408300,3.274408203125,0.014966198243200779,0.01237002108246088,0.006872233934700489
1761486911726231300,3.291231201171875,0.014966198243200779,0.019089538604021072,0.004886921960860491
1761486911743070200,3.3080703125,0.020311269909143448,0.016951510682702065,0.012217304669320583
1761486911759881500,3.324881591796875,0.01863138936460018,-0.005192354787141085,0.014813481830060482
1761486911776687600,3.3416875,0.014049900695681572,-0.029474247246980667,0.004123340360820293
1761486911793537500,3.35853759765625,0.010995574295520782,-0.030237829312682152,-0.013897184282541275
1761486911810338600,3.375338623046875,0.0032070425804704428,-0.03420845419168472,-0.03329215571284294
1761486911827167200,3.392167236328125,-0.007024950347840786,-0.02229658141732216,-0.02871066704392433
1761486911843998200,3.408998291015625,-0.01863138936460018,-0.009162978269159794,-0.006719517521560192
1761486911860810500,3.425810546875,-0.02871066704392433,0.00427605677396059,0.005497787147760391
1761486911877647000,3.442647216796875,-0.03649919852614403,-0.003359758760780096,-0.007635815534740686
1761486911894473000,3.459472900390625,-0.05375614017248154,-0.012522737495601177,-0.02519819140434265
1761486911911298800,3.476298828125,-0.08567385375499725,-0.015271631069481373,-0.03741549700498581
1761486911928124000,3.4931240234375,-0.11713340878486633,-0.0006108652451075613,-0.04917465150356293
1761486911944949500,3.509949462890625,-0.12690725922584534,-0.005345070734620094,-0.04734205827116966
1761486911961778200,3.526778076171875,-0.10537425428628922,0,-0.029932396486401558
1761486911978609000,3.54360888671875,-0.058948494493961334,0.007024950347840786,-0.013897184282541275
1761486911995445500,3.560445556640625,-0.016340645030140877,-0.005955935921519995,0.0027488935738801956
1761486912012265500,3.577265380859375,0.008246680721640587,-0.036041051149368286,0.021838432177901268
1761486912029074000,3.594073974609375,0.009621127508580685,-0.05360342562198639,0.03039054572582245
1761486912045902800,3.61090283203125,-0.001832595793530345,-0.045204028487205505,0.025503624230623245
1761486912062728700,3.627728759765625,-0.008704829961061478,-0.01817324012517929,0.021074850112199783
1761486912079550700,3.64455078125,-0.0009162978967651725,0.008704829961061478,0.02168571576476097
1761486912096372500,3.66137255859375,0.014966198243200779,0.01863138936460018,0.027947084978222847
1761486912113201000,3.678200927734375,0.017867809161543846,0,0.026419922709465027
1761486912130031400,3.69503125,0.0019853119738399982,-0.044745877385139465,0.01863138936460018
1761486912146862600,3.711862548828125,-0.018325956538319588,-0.07284568250179291,0.0065668015740811825
1761486912163691000,3.72869091796875,-0.03573561832308769,-0.04932736977934837,-0.015118914656341076
1761486912180525000,3.745525146484375,-0.03894266113638878,0.004734205547720194,-0.04245513305068016
1761486912197346300,3.76234619140625,-0.023365596309304237,0.047189339995384216,-0.061391957104206085
1761486912214168800,3.7791689453125,-0.003054326167330146,0.046273041516542435,-0.04657847434282303
1761486912231000000,3.796,0.012675453908741474,0.013439035043120384,-0.0029016099870204926
1761486912247823600,3.81282373046875,0.022602014243602753,-0.013591751456260681,0.040164388716220856
1761486912264644400,3.829644287109375,0.027488935738801956,-0.02015855349600315,0.04214970022439957
1761486912281478100,3.84647802734375,0.03497203439474106,-0.0006108652451075613,0.014813481830060482
1761486912298299400,3.86329931640625,0.03176499158143997,0.02275473065674305,-0.015118914656341076
1761486912315125500,3.88012548828125,0.022143865004181862,0.04184427112340927,-0.025656340643763542
1761486912331950600,3.89695068359375,0.02122756652534008,0.030085112899541855,-0.02474004216492176
1761486912348757500,3.913757568359375,0.02779436856508255,-0.0010690141934901476,-0.013897184282541275
1761486912365599500,3.930599609375,0.03955352306365967,-0.0328340083360672,0.001527163083665073
1761486912382434300,3.947434326171875,0.04214970022439957,-0.04856378585100174,0.005345070734620094
1761486912399252500,3.96425244140625,0.033597588539123535,-0.04566217586398125,-0.00366519158706069
1761486912416074200,3.98107421875,0.01237002108246088,-0.04230241850018501,-0.017867809161543846
1761486912432907500,3.997907470703125,-0.01237002108246088,-0.02733621932566166,-0.036193765699863434
1761486912449713200,4.014713134765625,-0.02779436856508255,-0.003054326167330146,-0.049785517156124115
1761486912466555000,4.031554931640625,-0.03176499158143997,0.021380282938480377,-0.0328340083360672
1761486912483380500,4.04838037109375,-0.02672535367310047,0.014508049935102463,-0.006261368747800589
1761486912500204300,4.065204345703125,-0.004886921960860491,0.015577063895761967,0.01114829070866108
1761486912517016300,4.082016357421875,0.01191187184303999,0.025045474991202354,0.026419922709465027
1761486912533843200,4.09884326171875,0.01237002108246088,0.01725694350898266,0.047189339995384216
1761486912550666200,4.115666259765625,0.0025961773935705423,0.007788531947880983,0.05803219974040985
1761486912567496700,4.13249658203125,-0.004581489134579897,0.018478672951459885,0.047189339995384216
1761486912584320500,4.149320556640625,-0.00733038317412138,0.017409659922122955,0.022602014243602753
1761486912601145600,4.1661455078125,-0.007024950347840786,0.013133603148162365,0.008246680721640587
1761486912617983000,4.18298291015625,-0.007177666760981083,0.0019853119738399982,0.005650503560900688
1761486912634793000,4.19979296875,-0.008399397134780884,0.007941247895359993,0.009162978269159794
1761486912651642600,4.216642578125,-0.007941247895359993,0.010079276748001575,0.010995574295520782
1761486912668461000,4.2334609375,-0.009621127508580685,0.01038470957428217,0.011301007121801376
1761486912685286700,4.25028662109375,-0.008246680721640587,0.013133603148162365,0.009773843921720982
1761486912702095400,4.267095458984375,-0.00733038317412138,0.024892758578062057,0.0029016099870204926
1761486912718903600,4.283903564453125,-0.004428773187100887,0.026419922709465027,-0.010537425056099892
1761486912735768600,4.3007685546875,0.005497787147760391,0.021380282938480377,-0.015882495790719986
1761486912752589000,4.317589111328125,0.008246680721640587,0.00427605677396059,-0.004428773187100887
1761486912769398000,4.33439794921875,-0.0009162978967651725,-0.02076941914856434,0.0019853119738399982
1761486912786240500,4.351240478515625,0.0013744467869400978,-0.02825251780450344,-0.004428773187100887
1761486912803061800,4.368061767578125,0.008246680721640587,-0.001832595793530345,-0.016951510682702065
1761486912819886600,4.384886474609375,0.010231993161141872,0.020463986322283745,-0.018325956538319588
1761486912836719000,4.401718994140625,0.00045814894838258624,0.010079276748001575,-0.005803219974040985
1761486912853538600,4.41853857421875,-0.011759156361222267,-0.02367102913558483,-0.00045814894838258624
1761486912870371800,4.435371826171875,-0.02076941914856434,-0.02886338345706463,0.0012217304902151227
1761486912887193000,4.452193115234375,-0.019853120669722557,-0.005345070734620094,-0.012217304669320583
1761486912903986200,4.468986083984375,-0.0019853119738399982,0.016798794269561768,-0.030085112899541855
1761486912920844800,4.4858447265625,0.005803219974040985,0.018478672951459885,-0.022449297830462456
1761486912937669600,4.502669677734375,-0.0007635815418325365,0,0.007635815534740686
1761486912954492000,4.519491943359375,-0.010842857882380486,-0.014813481830060482,0.02687807008624077
1761486912971320800,4.53632080078125,-0.014813481830060482,-0.01160643994808197,0.015118914656341076
1761486912988150800,4.55315087890625,-0.01572977937757969,0.0013744467869400978,-0.014813481830060482
1761486913004954600,4.56995458984375,-0.021074850112199783,0.016951510682702065,-0.025961773470044136
1761486913021783800,4.58678369140625,-0.028405234217643738,0.01237002108246088,-0.01160643994808197
1761486913038605800,4.603605712890625,-0.024892758578062057,0.007635815534740686,0.003054326167330146
1761486913055438300,4.620438232421875,-0.016798794269561768,0.009773843921720982,0.00855211354792118
1761486913072260400,4.63726025390625,-0.012522737495601177,0.013439035043120384,0.010995574295520782
1761486913089086000,4.6540859375,-0.008399397134780884,0.02122756652534008,0.017409659922122955
1761486913105908200,4.670908203125,-0.009162978269159794,0.014049900695681572,0.016035212203860283
1761486913122724900,4.687724853515625,-0.005803219974040985,0.006108652334660292,0.006108652334660292
1761486913139582000,4.70458203125,-0.0025961773935705423,-0.0012217304902151227,-0.003512475173920393
1761486913156402000,4.72140185546875,-0.00733038317412138,-0.01771509274840355,-0.01878410577774048
1761486913173218800,4.73821875,-0.013439035043120384,-0.012064588256180286,-0.041691552847623825
1761486913190053000,4.75505322265625,-0.022449297830462456,0.004581489134579897,-0.06352998316287994
1761486913206878200,4.771878173828125,-0.023060163483023643,0.0328340083360672,-0.06154467165470123
1761486913223701200,4.788701171875,-0.020463986322283745,0.04856378585100174,-0.036193765699863434
1761486913240514800,4.805514892578125,-0.017867809161543846,0.05711590126156807,-0.007177666760981083
1761486913257355500,4.82235546875,-0.009621127508580685,0.028405234217643738,0.009926560334861279
1761486913274180600,4.8391806640625,-0.0007635815418325365,0.010690141469240189,0.026572637259960175
1761486913291005700,4.856005615234375,0.005345070734620094,-0.011453723534941673,0.024892758578062057
1761486913307852500,4.8728525390625,0.00855211354792118,-0.016951510682702065,0.0074830991216003895
1761486913324640800,4.889640869140625,0.005192354787141085,0,-0.013744467869400978
1761486913341476400,4.906476318359375,0.005650503560900688,0.01878410577774048,-0.02015855349600315
1761486913358308000,4.92330810546875,0.009162978269159794,0.00931569468230009,-0.005955935921519995
1761486913375140400,4.940140380859375,0.013591751456260681,-0.019394971430301666,0.0012217304902151227
1761486913391955700,4.956955810546875,0.018325956538319588,-0.044287730008363724,-0.01160643994808197
1761486913408787000,4.973786865234375,0.018325956538319588,-0.05971207842230797,-0.02428189292550087
1761486913425610000,4.99060986328125,0.015271631069481373,-0.04230241850018501,-0.01924225501716137
1761486913442435600,5.007435546875,0.016340645030140877,-0.0064140851609408855,-0.010231993161141872
1761486913459257600,5.024257568359375,0.024892758578062057,0.020922135561704636,-0.003359758760780096
1761486913476091000,5.0410908203125,0.02977968007326126,0.008399397134780884,0.00733038317412138
1761486913492891000,5.057890869140625,0.026572637259960175,-0.006719517521560192,0.009162978269159794
1761486913509727000,5.07472705078125,0.024587325751781464,-0.0007635815418325365,0.009621127508580685
1761486913526549800,5.0915498046875,0.01970040425658226,-0.003512475173920393,0.001679879380390048
1761486913543375400,5.108375244140625,0.016035212203860283,0.002138028386980295,-0.001527163083665073
1761486913560200700,5.12520068359375,0.009010262787342072,0.0006108652451075613,0.004428773187100887
1761486913577026000,5.142026123046875,0.0010690141934901476,0.004886921960860491,0.01618792861700058
1761486913593852000,5.158851806640625,0.0003054326225537807,-0.001527163083665073,0.01618792861700058
1761486913610677500,5.175677490234375,0.0013744467869400978,-0.010690141469240189,-0.00015271631127689034
1761486913627519700,5.192519775390625,-0.0003054326225537807,-0.006261368747800589,-0.010995574295520782
1761486913644342000,5.209342041015625,-0.004123340360820293,-0.0006108652451075613,-0.013591751456260681
1761486913661167600,5.226167724609375,-0.0065668015740811825,0.00045814894838258624,-0.009162978269159794
1761486913677993700,5.24299365234375,-0.00427605677396059,0.0012217304902151227,-0.00045814894838258624
1761486913694818800,5.25981884765625,0.0022907445672899485,-0.0007635815418325365,0.008399397134780884
1761486913711640300,5.276640380859375,0.0065668015740811825,-0.00015271631127689034,0.01924225501716137
1761486913728466700,5.293466796875,0.0010690141934901476,0.0019853119738399982,0.01771509274840355
1761486913745284900,5.310284912109375,0.0032070425804704428,0.012675453908741474,0.01160643994808197
1761486913762107000,5.32710693359375,0.009162978269159794,0.013286318629980087,0.013897184282541275
1761486913778932200,5.34393212890625,0.010690141469240189,-0.0007635815418325365,0.021532999351620674
1761486913795758600,5.360758544921875,0.01114829070866108,-0.014508049935102463,0.014355333521962166
1761486913812583700,5.377583740234375,0.01466076634824276,0.0013744467869400978,-0.00045814894838258624
1761486913829409000,5.394408935546875,0.007635815534740686,0.006261368747800589,-0.009773843921720982
1761486913846260700,5.4112607421875,-0.0019853119738399982,0.00809396430850029,-0.0006108652451075613
1761486913863072300,5.428072265625,-0.006261368747800589,0.00809396430850029,0.003054326167330146
1761486913879921700,5.444921630859375,0.005192354787141085,0.009773843921720982,0.0009162978967651725
1761486913896713200,5.461713134765625,0.011301007121801376,0.0065668015740811825,0.0032070425804704428
1761486913913533400,5.478533447265625,0.005803219974040985,0.003512475173920393,0.0032070425804704428
1761486913930376700,5.495376708984375,0.003054326167330146,0.001832595793530345,-0.005955935921519995
1761486913947201500,5.512201416015625,-0.0003054326225537807,-0.004734205547720194,-0.02168571576476097
1761486913964027000,5.52902685546875,0.001679879380390048,-0.003512475173920393,-0.02367102913558483
1761486913980835600,5.545835693359375,0.005803219974040985,0,-0.017409659922122955
1761486913997661400,5.562661376953125,0.009926560334861279,-0.003359758760780096,-0.0065668015740811825
1761486914014493200,5.5794931640625,0.01924225501716137,-0.02733621932566166,-0.00427605677396059
1761486914031315500,5.5963154296875,0.023060163483023643,-0.04932736977934837,-0.011759156361222267
1761486914048140800,5.613140869140625,0.019089538604021072,-0.05253441259264946,-0.024892758578062057
1761486914064966700,5.629966552734375,0.014049900695681572,-0.03588833287358284,-0.03344487398862839
1761486914081792000,5.6467919921875,0.012675453908741474,0.0012217304902151227,-0.03145955875515938
1761486914098617300,5.663617431640625,0.017409659922122955,0.01618792861700058,-0.014813481830060482
1761486914115446300,5.6804462890625,0.020311269909143448,-0.001527163083665073,0.00366519158706069
1761486914132283000,5.697282958984375,0.018325956538319588,-0.02428189292550087,0.006719517521560192
1761486914149108200,5.714108154296875,0.009773843921720982,-0.03680463135242462,0.003817907767370343
1761486914165933300,5.730933349609375,0.0012217304902151227,-0.028099801391363144,0.003054326167330146
1761486914182733000,5.747733154296875,-0.007024950347840786,-0.003054326167330146,-0.0025961773935705423
1761486914199581000,5.764580810546875,-0.01878410577774048,0.006108652334660292,-0.010079276748001575
1761486914216414000,5.7814140625,-0.02580905705690384,0.0027488935738801956,-0.013286318629980087
1761486914233212400,5.79821240234375,-0.03833179548382759,-0.007635815534740686,-0.004886921960860491
1761486914250044000,5.8150439453125,-0.04230241850018501,-0.010537425056099892,-0.005650503560900688
1761486914266886700,5.83188671875,-0.03634648025035858,-0.006108652334660292,-0.01878410577774048
1761486914283712000,5.8487119140625,-0.03329215571284294,0.006261368747800589,-0.02626720629632473
1761486914300537000,5.865537109375,-0.030543262138962746,0.01878410577774048,-0.00366519158706069
1761486914317342500,5.882342529296875,-0.032528575509786606,0.019853120669722557,0.03344487398862839
1761486914334188800,5.899188720703125,-0.021991148591041565,0.009926560334861279,0.05619960278272629
1761486914351015400,5.916015380859375,-0.00366519158706069,-0.013133603148162365,0.048105638474226
1761486914367842300,5.93284228515625,0.016493361443281174,-0.025045474991202354,0.02519819140434265
1761486914384650000,5.94964990234375,0.03680463135242462,-0.01970040425658226,0.02321287989616394
1761486914401491000,5.966490966796875,0.03329215571284294,-0.005497787147760391,0.03191770985722542
1761486914418318600,5.983318603515625,0.022143865004181862,0.01664607785642147,0.03176499158143997
1761486914435140900,6.000140869140625,0.010537425056099892,0.033139441162347794,0.022602014243602753
1761486914451948000,6.016947998046875,0.0024434609804302454,0.03573561832308769,0.01237002108246088
1761486914468779300,6.033779296875,-0.005803219974040985,0.02015855349600315,0.016340645030140877
1761486914485599000,6.050598876953125,-0.006261368747800589,0.009468411095440388,0.03039054572582245
1761486914502420700,6.067420654296875,-0.001832595793530345,0.006261368747800589,0.032070424407720566
1761486914519255600,6.084255615234375,0.004123340360820293,0.016493361443281174,0.015118914656341076
1761486914536081700,6.10108154296875,0.00427605677396059,0.025656340643763542,-0.006108652334660292
1761486914552906500,6.117906494140625,-0.003512475173920393,0.029168816283345222,-0.010842857882380486
1761486914569732400,6.134732421875,-0.012217304669320583,0.022907447069883347,-0.009468411095440388
1761486914586557400,6.151557373046875,-0.01618792861700058,0.011759156361222267,-0.01542434748262167
1761486914603384300,6.16838427734375,-0.010079276748001575,-0.007788531947880983,-0.02580905705690384
1761486914620225800,6.185225830078125,-0.001527163083665073,-0.012980886735022068,-0.02687807008624077
1761486914637047800,6.2020478515625,0.008857546374201775,-0.009621127508580685,-0.02321287989616394
1761486914653873700,6.218873779296875,0.019394971430301666,0.00045814894838258624,-0.028099801391363144
1761486914670679000,6.235678955078125,0.01771509274840355,-0.004886921960860491,-0.03955352306365967
1761486914687528700,6.25252880859375,0.006719517521560192,-0.019394971430301666,-0.03833179548382759
1761486914704331800,6.269331787109375,-0.00045814894838258624,-0.032070424407720566,-0.021074850112199783
1761486914721161000,6.286160888671875,-0.00015271631127689034,-0.02733621932566166,-0.010690141469240189
1761486914737985000,6.302985107421875,0.00809396430850029,-0.0024434609804302454,-0.010995574295520782
1761486914754816800,6.319816650390625,0.01710422709584236,0.01924225501716137,-0.017409659922122955
1761486914771652400,6.33665234375,0.01863138936460018,0.012064588256180286,-0.011301007121801376
1761486914788477200,6.353477294921875,0.004123340360820293,-0.010995574295520782,0.00931569468230009
1761486914805282800,6.37028271484375,-0.00931569468230009,-0.022143865004181862,0.017562376335263252
1761486914822133000,6.387133056640625,-0.014508049935102463,-0.008704829961061478,0.012217304669320583
1761486914838954000,6.4039541015625,-0.011453723534941673,0.019853120669722557,0.005803219974040985
1761486914855779300,6.420779296875,-0.010842857882380486,0.028557950630784035,0.012675453908741474
1761486914872606000,6.43760595703125,-0.010842857882380486,0.030543262138962746,0.030237829312682152
1761486914889430500,6.454430419921875,-0.009010262787342072,0.023976460099220276,0.03375030308961868
1761486914906256600,6.471256591796875,-0.014966198243200779,0.0010690141934901476,0.02015855349600315
1761486914923060700,6.488060791015625,-0.025503624230623245,-0.015118914656341076,0.01114829070866108
1761486914939909600,6.50490966796875,-0.023060163483023643,-0.006108652334660292,0.006719517521560192
1761486914956718000,6.521718017578125,-0.012522737495601177,0.01970040425658226,0.0010690141934901476
1761486914973544700,6.538544677734375,-0.003817907767370343,0.02672535367310047,-0.00427605677396059
1761486914990368500,6.555368408203125,0.0007635815418325365,0.004734205547720194,0.001832595793530345
1761486915007194600,6.572194580078125,0.002138028386980295,-0.0039706239476799965,0.020463986322283745
1761486915024008400,6.589008544921875,0.006719517521560192,0.009621127508580685,0.021838432177901268
1761486915040850000,6.605849853515625,0.01160643994808197,0.024587325751781464,0.005955935921519995
1761486915057672200,6.622672119140625,0.013133603148162365,0.02871066704392433,-0.0029016099870204926
1761486915074498000,6.639498046875,0.01572977937757969,0.012522737495601177,0.00809396430850029
1761486915091323100,6.6563232421875,0.016951510682702065,0.007024950347840786,0.012522737495601177
1761486915108162000,6.673162109375,0.016951510682702065,0.005345070734620094,0.0006108652451075613
1761486915124987600,6.689987548828125,0.015271631069481373,0.005497787147760391,-0.008246680721640587
1761486915141815600,6.706815673828125,0.009162978269159794,-0.0007635815418325365,0.004123340360820293
1761486915158637800,6.723637939453125,-0.002138028386980295,-0.0025961773935705423,0.015118914656341076
1761486915175464700,6.740464599609375,-0.0019853119738399982,0.011453723534941673,0.015118914656341076
1761486915192278000,6.757278076171875,-0.0007635815418325365,0.013133603148162365,0.0065668015740811825
1761486915209116200,6.7741162109375,-0.00427605677396059,0.00733038317412138,-0.0012217304902151227
1761486915225918500,6.79091845703125,-0.006719517521560192,0.01771509274840355,-0.003817907767370343
1761486915242767000,6.80776708984375,-0.01237002108246088,0.014202617108821869,-0.0024434609804302454
1761486915259588900,6.8245888671875,-0.012217304669320583,0.0013744467869400978,0.0019853119738399982
1761486915276421400,6.84142138671875,-0.007941247895359993,-0.012217304669320583,0.007635815534740686
1761486915293223700,6.8582236328125,-0.0022907445672899485,-0.01237002108246088,0.013897184282541275
1761486915310068500,6.875068359375,0.0029016099870204926,-0.01114829070866108,0.008246680721640587
1761486915326870000,6.8918701171875,0.0039706239476799965,-0.01970040425658226,-0.009926560334861279
1761486915343727600,6.9087275390625,-0.004886921960860491,-0.030695978552103043,-0.014813481830060482
1761486915360526300,6.9255263671875,-0.024892758578062057,-0.032681290060281754,-0.006108652334660292
1761486915377373200,6.942373291015625,-0.03405573591589928,-0.006719517521560192,-0.0013744467869400978
1761486915394183400,6.959183349609375,-0.022907447069883347,0.02321287989616394,-0.007024950347840786
1761486915411022000,6.97602197265625,-0.013133603148162365,0.01863138936460018,-0.00855211354792118
1761486915427847700,6.99284765625,-0.01725694350898266,-0.0029016099870204926,0.0039706239476799965
1761486915444645600,7.009645751953125,-0.018325956538319588,-0.005650503560900688,0.018936822190880775
1761486915461484500,7.026484619140625,-0.019089538604021072,-0.0019853119738399982,0.022907447069883347
1761486915478310700,7.043310546875,-0.01817324012517929,0.0025961773935705423,0.012980886735022068
1761486915495136000,7.060135986328125,-0.016340645030140877,0.020311269909143448,0.005650503560900688
1761486915511961300,7.07696142578125,-0.01237002108246088,0.024434609338641167,0.007788531947880983
1761486915528767000,7.09376708984375,-0.010231993161141872,0.006261368747800589,0.013286318629980087
1761486915545598700,7.1105986328125,-0.00733038317412138,-0.006108652334660292,0.007788531947880983
1761486915562440200,7.127440185546875,-0.009010262787342072,-0.008399397134780884,-0.004581489134579897
1761486915579263200,7.14426318359375,-0.014355333521962166,-0.003817907767370343,-0.005803219974040985
1761486915596101600,7.1611015625,-0.01710422709584236,0.008246680721640587,-0.001832595793530345
1761486915612912000,7.177912109375,-0.010690141469240189,0.017409659922122955,-0.002138028386980295
1761486915629743000,7.1947431640625,0.0007635815418325365,0.01038470957428217,-0.004428773187100887
1761486915646579700,7.211579833984375,0.009926560334861279,-0.004428773187100887,0.001527163083665073
1761486915663404800,7.22840478515625,0.016340645030140877,-0.005803219974040985,0.004886921960860491
1761486915680230700,7.245230712890625,0.01970040425658226,0.009010262787342072,0.0024434609804302454
1761486915697051600,7.2620517578125,0.014508049935102463,0.010690141469240189,0.005803219974040985
1761486915713885400,7.278885498046875,0.0009162978967651725,-0.0007635815418325365,0.013439035043120384
1761486915730706700,7.295706787109375,-0.0003054326225537807,0.0029016099870204926,0.015271631069481373
1761486915747532500,7.312532470703125,0.0065668015740811825,0.01664607785642147,0.00809396430850029
1761486915764353800,7.329353759765625,0.0074830991216003895,0.021991148591041565,-0.0007635815418325365
1761486915781184000,7.34618408203125,0.005955935921519995,0.012828170321881771,-0.0009162978967651725
1761486915798012400,7.363012451171875,0.005039638374000788,0.00809396430850029,0.0022907445672899485
1761486915814834400,7.37983447265625,0.009010262787342072,0.006719517521560192,0.0024434609804302454
1761486915831656700,7.39665673828125,0.007941247895359993,-0.00366519158706069,0.007788531947880983
1761486915848489000,7.413489013671875,-0.005497787147760391,-0.012828170321881771,0.014355333521962166
1761486915865311000,7.43031103515625,-0.030695978552103043,-0.004428773187100887,0.017867809161543846
1761486915882136300,7.44713623046875,-0.05726861581206322,-0.0022907445672899485,0.003054326167330146
1761486915898953500,7.463953369140625,-0.06551529467105865,-0.005955935921519995,-0.013897184282541275
1761486915915777800,7.48077783203125,-0.06368270516395569,0.0012217304902151227,-0.018936822190880775
1761486915932595700,7.497595703125,-0.06276640295982361,0.012675453908741474,-0.017409659922122955
1761486915949412400,7.514412353515625,-0.05726861581206322,0.004123340360820293,-0.016951510682702065
1761486915966250200,7.531250244140625,-0.05207626149058342,-0.014813481830060482,-0.010079276748001575
1761486915983074600,7.548074462890625,-0.0503963828086853,-0.02168571576476097,-0.010537425056099892
1761486915999902200,7.564902099609375,-0.04459316283464432,-0.01618792861700058,-0.01863138936460018
1761486916016722700,7.58172265625,-0.029016099870204926,0.005650503560900688,-0.019394971430301666
1761486916033556700,7.598556640625,-0.001527163083665073,0.01237002108246088,-0.02122756652534008
1761486916050378200,7.615378173828125,0.02382374368607998,-0.003359758760780096,-0.012980886735022068
1761486916067203000,7.632203125,0.03130684420466423,-0.024129176512360573,-0.005497787147760391
1761486916084032800,7.64903271484375,0.03588833287358284,-0.03833179548382759,-0.005192354787141085
1761486916100868000,7.6658681640625,0.029474247246980667,-0.048105638474226,-0.012828170321881771
1761486916117693700,7.682693603515625,0.02733621932566166,-0.03298672288656235,-0.02474004216492176
1761486916134491400,7.699491455078125,0.019394971430301666,-0.01114829070866108,-0.031154127791523933
1761486916151345000,7.716344970703125,-0.0013744467869400978,-0.014049900695681572,-0.02886338345706463
1761486916168169500,7.73316943359375,-0.00855211354792118,-0.017867809161543846,-0.020311269909143448
1761486916184992300,7.7499921875,-0.006719517521560192,-0.011759156361222267,-0.014049900695681572
1761486916201813500,7.7668134765625,-0.00427605677396059,-0.007177666760981083,-0.011301007121801376
1761486916218646800,7.783646728515625,-0.0006108652451075613,0.002138028386980295,-0.007177666760981083
1761486916235468300,7.80046826171875,0.00045814894838258624,0.004886921960860491,-0.004123340360820293
1761486916252297000,7.817296875,-0.0012217304902151227,0.012217304669320583,-0.003512475173920393
1761486916269115000,7.834114990234375,-0.0010690141934901476,0.024434609338641167,-0.0013744467869400978
1761486916294361600,7.859361572265625,-0.001832595793530345,0.01924225501716137,0.007788531947880983
1761486916311185200,7.87618505859375,0.002138028386980295,0.02321287989616394,0.009010262787342072
1761486916328001500,7.89300146484375,0.012675453908741474,0.03084869496524334,0.004886921960860491
1761486916344838000,7.909837890625,0.02672535367310047,0.03375030308961868,-0.005650503560900688
1761486916361647000,7.926647216796875,0.036041051149368286,0.028557950630784035,-0.007635815534740686
1761486916378489300,7.9434892578125,0.035582900047302246,0.02580905705690384,0.002138028386980295
1761486916395311000,7.96031103515625,0.03833179548382759,0.018325956538319588,0.009010262787342072
1761486916412143000,7.97714306640625,0.04856378585100174,0.021074850112199783,0.014202617108821869
1761486916428948500,7.993948486328125,0.05314527451992035,0.01924225501716137,0.009162978269159794
1761486916445761000,8.010760986328124,0.049785517156124115,0.016798794269561768,0.00427605677396059
1761486916462606000,8.027606201171874,0.04688390716910362,0.01160643994808197,0.0006108652451075613
1761486916479430400,8.044430419921875,0.045204028487205505,0.009010262787342072,0.00733038317412138
1761486916496254000,8.06125390625,0.04749477282166481,0.02275473065674305,0.01542434748262167
1761486916513076500,8.078076416015625,0.04459316283464432,0.014813481830060482,0.014202617108821869
1761486916529908200,8.094908203125,0.03940080851316452,-0.013439035043120384,0.016493361443281174
1761486916546730500,8.11173046875,0.025503624230623245,-0.03436116874217987,0.022907447069883347
1761486916563556000,8.12855615234375,-0.008246680721640587,-0.032070424407720566,0.03039054572582245
1761486916580395500,8.1453955078125,-0.044745877385139465,-0.007177666760981083,0.014508049935102463
1761486916597224000,8.162223876953124,-0.06505715101957321,0.018020525574684143,-0.013744467869400978
1761486916614046500,8.17904638671875,-0.07162395119667053,0.019853120669722557,-0.022143865004181862
1761486916630872300,8.195872314453124,-0.07131851464509964,0.00855211354792118,0.0027488935738801956
1761486916647689200,8.212689208984376,-0.062460970133543015,0.010537425056099892,0.04260785132646561
1761486916664530700,8.22953076171875,-0.0503963828086853,0.018478672951459885,0.06948592513799667
1761486916681348900,8.246348876953125,-0.0328340083360672,0.04138612002134323,0.08460483700037003
1761486916698157600,8.263157470703124,-0.017867809161543846,0.042760565876960754,0.08506298810243607
1761486916714999600,8.27999951171875,-0.014966198243200779,0.033139441162347794,0.07483099400997162
1761486916731817200,8.296817138671875,-0.007177666760981083,0.02779436856508255,0.060322944074869156
1761486916748650200,8.313650146484376,0.0013744467869400978,0.022907447069883347,0.06123924255371094
1761486916765460200,8.330460205078126,0.00931569468230009,0.007635815534740686,0.06933320313692093
1761486916782302500,8.347302490234375,0.021380282938480377,0.005650503560900688,0.06200282275676727
1761486916799125800,8.364125732421876,0.03481931984424591,0.010079276748001575,0.04917465150356293
1761486916815952100,8.3809521484375,0.0377209298312664,0.00733038317412138,0.04963280260562897
1761486916832761000,8.397760986328125,0.02687807008624077,-0.008857546374201775,0.052228979766368866
1761486916849603800,8.414603759765624,0.02122756652534008,-0.01863138936460018,0.03222314268350601
1761486916866429000,8.431428955078125,0.02382374368607998,-0.005345070734620094,0.011453723534941673
1761486916883254300,8.448254150390625,0.03084869496524334,-0.0024434609804302454,0.01038470957428217
1761486916900075000,8.465074951171875,0.031001411378383636,-0.009621127508580685,0.03145955875515938
1761486916916888600,8.481888671875,0.02779436856508255,-0.015882495790719986,0.051312681287527084
1761486916933717000,8.498717041015626,0.022602014243602753,-0.017562376335263252,0.047189339995384216
1761486916950542800,8.51554296875,0.011759156361222267,-0.021991148591041565,0.02626720629632473
1761486916967368200,8.5323681640625,0.003359758760780096,-0.017867809161543846,-0.00015271631127689034
1761486916984193800,8.54919384765625,-0.0022907445672899485,-0.003359758760780096,-0.004734205547720194
1761486917001019400,8.566019287109375,-0.0029016099870204926,-0.0065668015740811825,0.01542434748262167
1761486917017842000,8.582842041015626,0.0039706239476799965,-0.019547687843441963,0.03497203439474106
1761486917034673000,8.5996728515625,0.003512475173920393,-0.03375030308961868,0.03741549700498581
1761486917051496000,8.616495849609375,-0.00931569468230009,-0.0403171069920063,0.028099801391363144
1761486917068324900,8.633324951171875,-0.034666601568460464,-0.02076941914856434,0.019547687843441963
1761486917085160200,8.65016015625,-0.06062837690114975,0.006872233934700489,0.004428773187100887
1761486917101986600,8.666986572265625,-0.08032877743244171,0.01664607785642147,-0.00931569468230009
1761486917118811100,8.68381103515625,-0.08720101416110992,0.018020525574684143,-0.020616702735424042
1761486917135637500,8.700637451171875,-0.07819075137376785,0.008704829961061478,-0.030543262138962746
1761486917152462300,8.71746240234375,-0.05467243865132332,-0.0022907445672899485,-0.019089538604021072
1761486917169288200,8.7342880859375,-0.032528575509786606,-0.002138028386980295,0.01237002108246088
1761486917186113500,8.751113525390625,-0.014355333521962166,-0.001679879380390048,0.03726277872920036
1761486917202939000,8.76793896484375,-0.005345070734620094,-0.008704829961061478,0.03680463135242462
1761486917219764700,8.7847646484375,-0.0010690141934901476,-0.02687807008624077,0.016951510682702065
1761486917236590300,8.80159033203125,0.0019853119738399982,-0.050854530185461044,-0.005803219974040985
1761486917253415400,8.81841552734375,0.008399397134780884,-0.04230241850018501,-0.01618792861700058
1761486917270233000,8.835233154296875,0.01572977937757969,-0.0006108652451075613,-0.005497787147760391
1761486917287058000,8.852057861328126,0.014355333521962166,0.02076941914856434,0.020616702735424042
1761486917303892500,8.868892578125,0.00931569468230009,0.020005837082862854,0.04505131021142006
1761486917320717600,8.885717529296874,0.013439035043120384,0.010690141469240189,0.052381694316864014
1761486917337543400,8.90254345703125,0.019853120669722557,-0.006872233934700489,0.04489859566092491
1761486917354368500,8.919368408203125,0.015577063895761967,-0.01542434748262167,0.022907447069883347
1761486917371178800,8.9361787109375,0.005192354787141085,-0.0003054326225537807,0.005497787147760391
1761486917388019500,8.95301953125,0.0003054326225537807,-0.0027488935738801956,-0.009468411095440388
1761486917404828200,8.969828125,0.0012217304902151227,-0.01725694350898266,-0.01970040425658226
1761486917421654000,8.986654052734375,-0.0065668015740811825,-0.021838432177901268,-0.009773843921720982
1761486917438482200,9.003482177734375,-0.012828170321881771,-0.007788531947880983,0.008857546374201775
1761486917455311000,9.02031103515625,-0.006108652334660292,0.008399397134780884,0.010842857882380486
1761486917472133600,9.037133544921875,0.0024434609804302454,0.013133603148162365,0.001527163083665073
1761486917488959200,9.053959228515625,0.008246680721640587,0.012217304669320583,0.003359758760780096
1761486917505779500,9.070779541015625,0.007941247895359993,0.016798794269561768,0.015882495790719986
1761486917522615300,9.087615234375,0.0003054326225537807,0.02779436856508255,0.03390302136540413
1761486917539422500,9.10442236328125,-0.005955935921519995,0.03833179548382759,0.03329215571284294
1761486917556261000,9.12126123046875,0.005955935921519995,0.03191770985722542,0.01710422709584236
1761486917573099500,9.138099609375,0.019853120669722557,0.0403171069920063,0.009468411095440388
1761486917589930000,9.154929931640625,0.014202617108821869,0.04657847434282303,0.021991148591041565
1761486917606751500,9.17175146484375,0.002138028386980295,0.044287730008363724,0.033597588539123535
1761486917623577000,9.1885771484375,0.005039638374000788,0.029932396486401558,0.023365596309304237
1761486917640402200,9.205402099609374,0.011453723534941673,0.017562376335263252,0.013286318629980087
1761486917657218300,9.22221826171875,0.012675453908741474,0.018478672951459885,0.017867809161543846
1761486917674058800,9.239058837890624,0.00427605677396059,0.019853120669722557,0.02229658141732216
1761486917690873600,9.25587353515625,-0.0007635815418325365,0.02321287989616394,0.020616702735424042
1761486917707688000,9.27268798828125,0.0006108652451075613,0.029168816283345222,0.010231993161141872
1761486917724513000,9.289512939453125,-0.0019853119738399982,0.04841107130050659,-0.0065668015740811825
1761486917741351200,9.30635107421875,-0.0064140851609408855,0.06704246252775192,-0.029932396486401558
1761486917758184700,9.323184814453125,-0.01771509274840355,0.08139779418706894,-0.03680463135242462
1761486917775006700,9.3400068359375,-0.0024434609804302454,0.036651913076639175,-0.01618792861700058
1761486917791822300,9.356822265625,0.027947084978222847,0.007635815534740686,0.027183502912521362
1761486917808658000,9.373657958984374,0.041233405470848083,-0.0006108652451075613,0.05146539583802223
1761486917825484800,9.39048486328125,0.0503963828086853,-0.015118914656341076,0.029626963660120964
1761486917842317800,9.40731787109375,0.04398229718208313,-0.03222314268350601,-0.033139441162347794
1761486917859126800,9.424126708984375,0.03390302136540413,0.0032070425804704428,-0.07651086896657944
1761486917875950000,9.4409501953125,0.024434609338641167,0.032070424407720566,-0.06963863968849182
1761486917892754700,9.457754638671876,0.013744467869400978,0.03726277872920036,-0.030237829312682152
