time,seconds_elapsed,z,y,x
1761306375275297000,0.163297119140625,0.13698652386665344,-0.10461067408323288,0.08292495459318161
1761306375292013600,0.180013671875,0.13286319375038147,-0.09147707372903824,0.08032877743244171
1761306375308835800,0.1968359375,0.13072516024112701,-0.06750060617923737,0.06276640295982361
1761306375325662000,0.213661865234375,0.13057245314121246,-0.038026362657547,0.03222314268350601
1761306375342496300,0.230496337890625,0.13255776464939117,-0.0029016099870204926,0.00733038317412138
1761306375359314200,0.247314208984375,0.12721268832683563,0.020463986322283745,0.0010690141934901476
1761306375376128800,0.264128662109375,0.11301007121801376,0.03649919852614403,0.009926560334861279
1761306375392962800,0.280962890625,0.1007927656173706,0.024129176512360573,0.02580905705690384
1761306375409784800,0.297784912109375,0.09636399149894714,0.010995574295520782,0.04566217586398125
1761306375426598700,0.3145986328125,0.09651670604944229,-0.0007635815418325365,0.05864306539297104
1761306375443440400,0.3314404296875,0.09896016865968704,0.006719517521560192,0.06154467165470123
1761306375460250000,0.34825,0.09407325088977814,0.008857546374201775,0.060475658625364304
1761306375477073200,0.3650732421875,0.07849618047475815,0.00015271631127689034,0.06414084881544113
1761306375493894700,0.381894775390625,0.05971207842230797,-0.017409659922122955,0.060475658625364304
1761306375510712300,0.39871240234375,0.04703662544488907,-0.03084869496524334,0.052228979766368866
1761306375527543600,0.41554345703125,0.03985895588994026,-0.048105638474226,0.032681290060281754
1761306375544361000,0.43236083984375,0.03894266113638878,-0.04886921867728233,0.01970040425658226
1761306375561163800,0.449163818359375,0.038026362657547,-0.040164388716220856,0.02733621932566166
1761306375578009300,0.46600927734375,0.032528575509786606,-0.04153883829712868,0.0403171069920063
1761306375594810000,0.48281005859375,0.025503624230623245,-0.02535090781748295,0.05497787147760391
1761306375611645700,0.499645751953125,0.01725694350898266,0.0010690141934901476,0.07208210229873657
1761306375628471000,0.516470947265625,0.012980886735022068,0.00366519158706069,0.08292495459318161
1761306375645293300,0.533293212890625,0.009773843921720982,-0.00809396430850029,0.08933904021978378
1761306375662115300,0.550115234375,0.005497787147760391,-0.04245513305068016,0.07925976812839508
1761306375678937300,0.566937255859375,0.0013744467869400978,-0.08628471940755844,0.058795779943466187
1761306375695755800,0.583755859375,0.0003054326225537807,-0.11194105446338654,0.04245513305068016
1761306375712585500,0.60058544921875,0.005039638374000788,-0.11468994617462158,0.03451388701796532
1761306375729402000,0.617402099609375,0.0022907445672899485,-0.08964447677135468,0.03833179548382759
1761306375746227000,0.63422705078125,0.0006108652451075613,-0.055894169956445694,0.04703662544488907
1761306375763042600,0.65104248046875,-0.007024950347840786,-0.019853120669722557,0.0630718395113945
1761306375779858200,0.667858154296875,-0.009621127508580685,0.0006108652451075613,0.056352317333221436
1761306375796678100,0.68467822265625,-0.003512475173920393,0.017867809161543846,0.03451388701796532
1761306375813500000,0.7015,0.001832595793530345,0.0064140851609408855,0.003359758760780096
1761306375830322200,0.718322265625,0.003054326167330146,-0.01863138936460018,-0.007788531947880983
1761306375847144200,0.735144287109375,-0.00366519158706069,-0.04001167416572571,-0.002138028386980295
1761306375863966500,0.751966552734375,-0.0074830991216003895,-0.0503963828086853,0.01160643994808197
1761306375880789000,0.7687890625,-0.007635815534740686,-0.04505131021142006,0.022907447069883347
1761306375897624000,0.7856240234375,-0.001832595793530345,-0.03191770985722542,0.019394971430301666
1761306375914446000,0.802446044921875,0.015882495790719986,-0.004428773187100887,-0.01237002108246088
1761306375931268000,0.81926806640625,0.029932396486401558,0.004581489134579897,-0.04230241850018501
1761306375948077800,0.836077880859375,0.020463986322283745,-0.022449297830462456,-0.034666601568460464
1761306375964936700,0.852936767578125,-0.011759156361222267,-0.06505715101957321,0.005803219974040985
1761306375981734000,0.86973388671875,-0.03985895588994026,-0.08552113175392151,0.0455094613134861
1761306375998528000,0.886528076171875,-0.05406157299876213,-0.08475755155086517,0.05696318298578262
1761306376015378400,0.90337841796875,-0.05925392732024193,-0.06536258012056351,0.03375030308961868
1761306376032200200,0.9202001953125,-0.05864306539297104,-0.022602014243602753,0
1761306376049006000,0.937006103515625,-0.05742133408784866,0.014813481830060482,-0.032070424407720566
1761306376065844700,0.9538447265625,-0.05757404863834381,0.04856378585100174,-0.04306599870324135
1761306376082665500,0.97066552734375,-0.06185010448098183,0.054367005825042725,-0.036651913076639175
1761306376099488500,0.987488525390625,-0.06505715101957321,0.04092797264456749,-0.020922135561704636
1761306376116311000,1.00431103515625,-0.06444628536701202,0.030695978552103043,-0.010537425056099892
1761306376133128700,1.021128662109375,-0.04993823543190956,0.012064588256180286,-0.019089538604021072
1761306376149939000,1.03793896484375,-0.024587325751781464,0.02168571576476097,-0.03787364438176155
1761306376166776800,1.05477685546875,-0.011453723534941673,0.025503624230623245,-0.052839845418930054
1761306376183599000,1.07159912109375,-0.007941247895359993,0.015882495790719986,-0.04795292019844055
1761306376200397800,1.088397705078125,-0.00931569468230009,0.0012217304902151227,-0.025503624230623245
1761306376217244200,1.105244140625,-0.00733038317412138,0.012980886735022068,-0.007177666760981083
1761306376234070800,1.12207080078125,-0.0027488935738801956,0.02672535367310047,-0.004123340360820293
1761306376250884000,1.138884033203125,0.001679879380390048,0.019853120669722557,-0.013133603148162365
1761306376267695600,1.155695556640625,0.0074830991216003895,-0.015271631069481373,-0.017867809161543846
1761306376284530400,1.172530517578125,0.016493361443281174,-0.04245513305068016,-0.005345070734620094
1761306376301339600,1.189339599609375,0.03145955875515938,-0.05650503560900688,0.02367102913558483
1761306376318162000,1.206161865234375,0.05711590126156807,-0.07849618047475815,0.03588833287358284
1761306376334971000,1.222970947265625,0.07910704612731934,-0.05009094998240471,0.03481931984424591
1761306376351805700,1.2398056640625,0.09086620807647705,-0.022907447069883347,0.022143865004181862
1761306376368642600,1.256642578125,0.08994990587234497,-0.008857546374201775,0.007177666760981083
1761306376385463600,1.273463623046875,0.07238753139972687,-0.007024950347840786,-0.0019853119738399982
1761306376402279400,1.290279541015625,0.05100724846124649,-0.009773843921720982,0.0027488935738801956
1761306376419108400,1.3071083984375,0.038179077208042145,-0.02580905705690384,0.012522737495601177
1761306376435933000,1.323932861328125,0.04245513305068016,-0.019547687843441963,0.00427605677396059
1761306376452734700,1.340734619140625,0.05406157299876213,-0.005345070734620094,-0.010995574295520782
1761306376469568500,1.357568603515625,0.06230825558304787,-0.011759156361222267,-0.01725694350898266
1761306376486390300,1.374390380859375,0.05665775015950203,-0.01542434748262167,-0.00733038317412138
1761306376503218200,1.39121826171875,0.04352414980530739,-0.02886338345706463,0.005803219974040985
1761306376520040200,1.408040283203125,0.029016099870204926,-0.044745877385139465,0.017562376335263252
1761306376536862200,1.4248623046875,0.020463986322283745,-0.04948008432984352,0.022602014243602753
1761306376553680400,1.441680419921875,0.016340645030140877,-0.03894266113638878,0.008704829961061478
1761306376570510300,1.45851025390625,0.020922135561704636,-0.014049900695681572,-0.023365596309304237
1761306376587328800,1.475328857421875,0.024892758578062057,-0.0010690141934901476,-0.0503963828086853
1761306376604150500,1.492150634765625,0.025503624230623245,-0.0010690141934901476,-0.05192354694008827
1761306376620972500,1.50897265625,0.015882495790719986,-0.010690141469240189,-0.027641652151942253
1761306376637778400,1.5257783203125,0.003512475173920393,-0.022907447069883347,0.00045814894838258624
1761306376654613200,1.54261328125,-0.00931569468230009,-0.03344487398862839,0.016035212203860283
1761306376671442000,1.55944189453125,-0.018936822190880775,-0.02779436856508255,0.013286318629980087
1761306376688260600,1.576260498046875,-0.01970040425658226,-0.0039706239476799965,-0.0024434609804302454
1761306376705082600,1.59308251953125,-0.01160643994808197,0.00427605677396059,-0.02122756652534008
1761306376721888300,1.60988818359375,-0.0013744467869400978,0.013133603148162365,-0.025961773470044136
1761306376738723600,1.6267236328125,0.002138028386980295,0.023976460099220276,-0.013439035043120384
1761306376755535600,1.64353564453125,0.0007635815418325365,0.017867809161543846,0.0022907445672899485
1761306376772357000,1.660357177734375,0.003512475173920393,0.0065668015740811825,0.01160643994808197
1761306376789179600,1.6771796875,0.009621127508580685,0.010079276748001575,0.02428189292550087
1761306376806001400,1.69400146484375,0.016340645030140877,0.013133603148162365,0.03588833287358284
1761306376822810000,1.71081005859375,0.02275473065674305,0.01160643994808197,0.03588833287358284
1761306376839643100,1.72764306640625,0.026114489883184433,-0.02321287989616394,0.02733621932566166
1761306376856487200,1.744487060546875,0.02122756652534008,-0.05497787147760391,0.03588833287358284
1761306376873290000,1.7612900390625,0.00855211354792118,-0.0705549344420433,0.0503963828086853
1761306376890126000,1.7781259765625,0.0024434609804302454,-0.06062837690114975,0.05711590126156807
1761306376906941000,1.79494091796875,0.008399397134780884,-0.03649919852614403,0.05421429127454758
1761306376923753000,1.8117529296875,0.015577063895761967,-0.014355333521962166,0.04886921867728233
1761306376940591400,1.82859130859375,0.017562376335263252,0.005497787147760391,0.04688390716910362
1761306376957392100,1.84539208984375,0.014355333521962166,0.02229658141732216,0.04505131021142006
1761306376974224100,1.86222412109375,0.00733038317412138,0.03787364438176155,0.039248090237379074
1761306376991057700,1.8790576171875,-0.003054326167330146,0.05253441259264946,0.032070424407720566
1761306377007879700,1.895879638671875,-0.007788531947880983,0.05421429127454758,0.024587325751781464
1761306377024685300,1.912685302734375,-0.006719517521560192,0.0429132841527462,0.019547687843441963
1761306377041523700,1.929523681640625,-0.0010690141934901476,0.04489859566092491,0.013744467869400978
1761306377058346000,1.946345947265625,0.0039706239476799965,0.04886921867728233,0.0027488935738801956
1761306377075168300,1.963168212890625,0.007635815534740686,0.039706241339445114,0.0032070425804704428
1761306377091990800,1.97999072265625,0.00809396430850029,0.014049900695681572,0.01160643994808197
1761306377108812000,1.99681201171875,0.005955935921519995,0.010231993161141872,0.03451388701796532
1761306377125622800,2.013622802734375,0.0029016099870204926,-0.012064588256180286,0.048716504126787186
1761306377142453200,2.030453369140625,0.003817907767370343,-0.040164388716220856,0.05115996301174164
1761306377159282200,2.0472822265625,0.005955935921519995,-0.06627888232469559,0.043676864355802536
1761306377176082700,2.064082763671875,0.003817907767370343,-0.08720101416110992,0.01771509274840355
1761306377192922000,2.080922119140625,0.005955935921519995,-0.07192938029766083,-0.020463986322283745
1761306377209745200,2.0977451171875,0.006719517521560192,-0.01863138936460018,-0.049785517156124115
1761306377226563000,2.11456298828125,0.004123340360820293,0.010995574295520782,-0.054367005825042725
1761306377243371300,2.131371337890625,0.0013744467869400978,0.020005837082862854,-0.03497203439474106
1761306377260207400,2.148207275390625,0.001832595793530345,0.014813481830060482,-0.014355333521962166
1761306377277019000,2.165018798828125,0.007635815534740686,0.006108652334660292,-0.0007635815418325365
1761306377293841000,2.1818408203125,0.014508049935102463,-0.016493361443281174,0.013133603148162365
1761306377310664700,2.198664794921875,0.020005837082862854,-0.03573561832308769,0.02229658141732216
1761306377327483600,2.215483642578125,0.021074850112199783,-0.03375030308961868,0.029016099870204926
1761306377344312600,2.2323125,0.01542434748262167,-0.016798794269561768,0.018325956538319588
1761306377361116200,2.2491162109375,0.008246680721640587,-0.001832595793530345,0.0025961773935705423
1761306377377941000,2.26594091796875,-0.0003054326225537807,0.007941247895359993,-0.00809396430850029
1761306377394768600,2.2827685546875,-0.01114829070866108,0.00015271631127689034,-0.010537425056099892
1761306377411600600,2.2996005859375,-0.021991148591041565,-0.022143865004181862,-0.01160643994808197
1761306377428417300,2.316417236328125,-0.021838432177901268,-0.02779436856508255,-0.021991148591041565
1761306377445239800,2.33323974609375,-0.018478672951459885,-0.01114829070866108,-0.04214970022439957
1761306377462075000,2.350074951171875,-0.010079276748001575,0.003359758760780096,-0.0633772686123848
1761306377478897200,2.366897216796875,-0.008399397134780884,0.04184427112340927,-0.07666359096765518
1761306377495709000,2.383708984375,-0.010079276748001575,0.0705549344420433,-0.07284568250179291
1761306377512520700,2.400520751953125,-0.020922135561704636,0.052381694316864014,-0.05009094998240471
1761306377529367600,2.417367431640625,-0.022602014243602753,0.021991148591041565,-0.03222314268350601
1761306377546169600,2.434169677734375,-0.01863138936460018,-0.0039706239476799965,-0.03084869496524334
1761306377563004000,2.45100390625,-0.015577063895761967,-0.0019853119738399982,-0.033597588539123535
1761306377579833300,2.467833251953125,-0.014966198243200779,0.016035212203860283,-0.025961773470044136
1761306377596631600,2.484631591796875,-0.020616702735424042,0.015271631069481373,-0.0012217304902151227
1761306377613478000,2.501477783203125,-0.024587325751781464,-0.001679879380390048,0.027641652151942253
1761306377630294800,2.518294677734375,-0.023518312722444534,-0.017867809161543846,0.044287730008363724
1761306377647118600,2.53511865234375,-0.014202617108821869,-0.03436116874217987,0.038026362657547
1761306377663923500,2.55192333984375,-0.006872233934700489,-0.030543262138962746,0.02672535367310047
1761306377680762400,2.568762451171875,-0.005039638374000788,-0.019394971430301666,0.020616702735424042
1761306377697599200,2.58559912109375,-0.008246680721640587,-0.015271631069481373,0.020922135561704636
1761306377714402800,2.60240283203125,-0.01710422709584236,-0.02229658141732216,0.029016099870204926
1761306377731214800,2.61921484375,-0.02871066704392433,-0.02580905705690384,0.03588833287358284
1761306377748036600,2.63603662109375,-0.0403171069920063,-0.01817324012517929,0.04230241850018501
1761306377764859000,2.65285888671875,-0.047800205647945404,-0.014966198243200779,0.027947084978222847
1761306377781681000,2.669680908203125,-0.043676864355802536,0.017867809161543846,-0.004428773187100887
1761306377798496800,2.686496826171875,-0.039706241339445114,0.06215553730726242,-0.04184427112340927
1761306377815325000,2.703324951171875,-0.035582900047302246,0.07284568250179291,-0.0630718395113945
1761306377832147000,2.72014697265625,-0.034666601568460464,0.052839845418930054,-0.05390885844826698
1761306377848951600,2.73695166015625,-0.03130684420466423,0.021380282938480377,-0.027641652151942253
1761306377865809000,2.753808837890625,-0.021380282938480377,-0.004886921960860491,-0.004581489134579897
1761306377882626600,2.77062646484375,-0.006261368747800589,-0.014508049935102463,0.01038470957428217
1761306377899448800,2.78744873046875,0.006872233934700489,0.005803219974040985,0.015271631069481373
1761306377916270800,2.804270751953125,0.01191187184303999,0.01191187184303999,0.014049900695681572
1761306377933089800,2.82108984375,0.011301007121801376,0.016798794269561768,0.008399397134780884
1761306377949905200,2.8379052734375,0.01160643994808197,0.024434609338641167,0.004581489134579897
1761306377966737700,2.854737548828125,0.014966198243200779,0.0328340083360672,-0.00015271631127689034
1761306377983543000,2.87154296875,0.01191187184303999,0.017409659922122955,-0.00427605677396059
1761306378000346000,2.88834619140625,0.00366519158706069,-0.019547687843441963,-0.006872233934700489
1761306378017203200,2.905203125,-0.0027488935738801956,-0.04886921867728233,-0.02275473065674305
1761306378034025200,2.922025146484375,0.006108652334660292,-0.023365596309304237,-0.051770828664302826
1761306378050832100,2.93883203125,0.021532999351620674,0.04077525436878204,-0.08261952549219131
1761306378067669500,2.95566943359375,0.03756821155548096,0.09224065393209457,-0.07987063378095627
1761306378084491500,2.972491455078125,0.04657847434282303,0.10949759185314178,-0.04596760869026184
1761306378101297200,2.989297119140625,0.05146539583802223,0.10873401165008545,0.001679879380390048
1761306378118127000,3.006127197265625,0.05054909735918045,0.08994990587234497,0.03527746722102165
1761306378134941200,3.022941162109375,0.04612032696604729,0.05971207842230797,0.050854530185461044
1761306378151779600,3.039779541015625,0.038179077208042145,0.03940080851316452,0.05268712714314461
1761306378168602000,3.05660205078125,0.027030786499381065,0.03436116874217987,0.03573561832308769
1761306378185424100,3.073424072265625,0.020005837082862854,0.05161811411380768,0.011759156361222267
1761306378202242000,3.090241943359375,0.017409659922122955,0.06673702597618103,-0.006719517521560192
1761306378219054300,3.107054443359375,0.008704829961061478,0.07101308554410934,-0.00427605677396059
1761306378235876600,3.123876708984375,0.0003054326225537807,0.05406157299876213,0.016493361443281174
1761306378252698600,3.14069873046875,-0.005803219974040985,0.02886338345706463,0.047189339995384216
1761306378269520600,3.157520751953125,-0.007024950347840786,0.014049900695681572,0.07147123664617538
1761306378286342700,3.1743427734375,-0.0065668015740811825,0.005039638374000788,0.05742133408784866
1761306378303165000,3.1911650390625,-0.0009162978967651725,0.023365596309304237,0.011759156361222267
1761306378319986700,3.207986572265625,0.0009162978967651725,0.04108068719506264,-0.02886338345706463
1761306378336825900,3.224825927734375,-0.0029016099870204926,0.027183502912521362,-0.03955352306365967
1761306378353645000,3.24164501953125,-0.008704829961061478,-0.0029016099870204926,-0.015882495790719986
1761306378370466300,3.25846630859375,-0.008857546374201775,-0.02977968007326126,0.01725694350898266
1761306378387288800,3.275288818359375,0.00045814894838258624,-0.03481931984424591,0.03084869496524334
1761306378404106800,3.292106689453125,0.009926560334861279,-0.028099801391363144,0.02626720629632473
1761306378420912000,3.308912109375,0.01664607785642147,-0.012828170321881771,0.018478672951459885
1761306378437763600,3.325763671875,0.016951510682702065,-0.004886921960860491,0.005039638374000788
1761306378454577000,3.342576904296875,0.013897184282541275,-0.008246680721640587,-0.012217304669320583
1761306378471395000,3.35939501953125,0.005497787147760391,-0.016493361443281174,-0.016951510682702065
1761306378488195800,3.37619580078125,0.0006108652451075613,-0.005650503560900688,-0.0012217304902151227
1761306378505026600,3.393026611328125,-0.00427605677396059,-0.001832595793530345,0.012217304669320583
1761306378521849300,3.409849365234375,0.002138028386980295,0.01038470957428217,0.008704829961061478
1761306378538676000,3.426676025390625,0.014966198243200779,0.04184427112340927,0.0003054326225537807
1761306378555509200,3.44350927734375,0.025656340643763542,0.04688390716910362,-0.00045814894838258624
1761306378572315000,3.46031494140625,0.020311269909143448,0.022602014243602753,0.01038470957428217
1761306378589153800,3.47715380859375,0.0039706239476799965,-0.014202617108821869,0.01466076634824276
1761306378605971500,3.493971435546875,0.002138028386980295,-0.024892758578062057,0.009926560334861279
1761306378622802000,3.510802001953125,0.0019853119738399982,-0.02275473065674305,-0.003054326167330146
1761306378639603200,3.527603271484375,0.004123340360820293,-0.019853120669722557,-0.014202617108821869
1761306378656441900,3.54444189453125,0.004734205547720194,-0.01771509274840355,-0.02321287989616394
1761306378673263900,3.561263916015625,0.007024950347840786,-0.0025961773935705423,-0.019089538604021072
1761306378690082800,3.578082763671875,0.0074830991216003895,0.00809396430850029,-0.003054326167330146
1761306378706891000,3.59489111328125,0.0027488935738801956,0.001832595793530345,0.016951510682702065
1761306378723720000,3.611719970703125,-0.002138028386980295,-0.011453723534941673,0.030695978552103043
1761306378740538400,3.628538330078125,-0.006872233934700489,-0.016035212203860283,0.03497203439474106
1761306378757360400,3.6453603515625,-0.00733038317412138,-0.005497787147760391,0.029474247246980667
1761306378774182700,3.6621826171875,-0.005192354787141085,0.01970040425658226,0.022143865004181862
1761306378791004400,3.67900439453125,-0.00855211354792118,0.04245513305068016,0.020005837082862854
1761306378807826700,3.69582666015625,-0.013744467869400978,0.06108652427792549,0.023518312722444534
1761306378824649500,3.7126494140625,-0.025656340643763542,0.059864792972803116,0.012522737495601177
1761306378841482200,3.729482177734375,-0.024587325751781464,0.05451972410082817,0.0007635815418325365
1761306378858287600,3.74628759765625,-0.024892758578062057,0.04382958263158798,0.004581489134579897
1761306378875134200,3.76313427734375,-0.02367102913558483,0.027183502912521362,0.020616702735424042
1761306378891929300,3.779929443359375,-0.01710422709584236,0.016798794269561768,0.03084869496524334
1761306378908776700,3.796776611328125,-0.009926560334861279,0.01924225501716137,0.032681290060281754
1761306378925595000,3.813594970703125,-0.0032070425804704428,0.024892758578062057,0.02672535367310047
1761306378942417000,3.8304169921875,-0.001832595793530345,0.015271631069481373,0.014202617108821869
1761306378959235300,3.8472353515625,-0.007635815534740686,0.007941247895359993,0.0022907445672899485
1761306378976064500,3.864064453125,-0.01038470957428217,0.006261368747800589,-0.005192354787141085
1761306378992884000,3.880884033203125,-0.006872233934700489,0.009773843921720982,-0.0065668015740811825
1761306379009705200,3.897705322265625,-0.001527163083665073,-0.005039638374000788,-0.0025961773935705423
1761306379026527000,3.91452685546875,0.0019853119738399982,-0.020922135561704636,0.01191187184303999
1761306379043349500,3.931349609375,0.0024434609804302454,-0.03787364438176155,0.02886338345706463
1761306379060171300,3.948171142578125,0.0064140851609408855,-0.03848451003432274,0.02382374368607998
1761306379076993800,3.964993896484375,0.010537425056099892,-0.008704829961061478,0.001832595793530345
1761306379093815600,3.981815673828125,0.008704829961061478,0.015118914656341076,-0.01664607785642147
1761306379110633200,3.99863330078125,-0.0010690141934901476,0.019853120669722557,-0.010690141469240189
1761306379127460900,4.0154609375,-0.00809396430850029,-0.00366519158706069,0.01237002108246088
1761306379144280600,4.032280517578125,-0.0065668015740811825,-0.007635815534740686,0.03481931984424591
1761306379161107000,4.04910693359375,-0.0024434609804302454,0.003054326167330146,0.02886338345706463
1761306379177923300,4.06592333984375,-0.0009162978967651725,0.012828170321881771,0.0074830991216003895
1761306379194734000,4.082734130859375,-0.00855211354792118,-0.004734205547720194,-0.005345070734620094
1761306379211556400,4.099556396484375,-0.017409659922122955,-0.02382374368607998,-0.00015271631127689034
1761306379228378600,4.116378662109375,-0.020005837082862854,-0.02932153269648552,0.005497787147760391
1761306379245200400,4.133200439453125,-0.017867809161543846,-0.019853120669722557,0.01038470957428217
1761306379262022400,4.1500224609375,-0.010231993161141872,-0.006261368747800589,0.010079276748001575
1761306379278844400,4.166844482421875,-0.005192354787141085,-0.0006108652451075613,0.008399397134780884
1761306379295666700,4.183666748046875,-0.0074830991216003895,-0.005650503560900688,0.004428773187100887
1761306379312492000,4.200491943359375,-0.01817324012517929,-0.016035212203860283,-0.006872233934700489
1761306379329324300,4.21732421875,-0.024892758578062057,-0.013897184282541275,-0.016493361443281174
1761306379346142700,4.234142822265625,-0.03145955875515938,-0.012828170321881771,-0.02535090781748295
1761306379362973200,4.25097314453125,-0.02977968007326126,0.004428773187100887,-0.02367102913558483
1761306379379808800,4.267808837890625,-0.028099801391363144,0.02168571576476097,-0.015577063895761967
1761306379396612900,4.28461279296875,-0.013286318629980087,0.03985895588994026,-0.012522737495601177
1761306379413435000,4.301434814453125,0.0013744467869400978,0.04398229718208313,-0.02229658141732216
1761306379430244000,4.318244140625,0.007177666760981083,0.0377209298312664,-0.02687807008624077
1761306379447079200,4.3350791015625,0.001679879380390048,0.03191770985722542,-0.016035212203860283
1761306379463884500,4.351884521484375,-0.00366519158706069,0.015882495790719986,0.00015271631127689034
1761306379480718800,4.36871875,-0.00015271631127689034,0.00427605677396059,0.011453723534941673
1761306379497549300,4.38554931640625,0.014049900695681572,0.001679879380390048,0.019394971430301666
1761306379514367200,4.4023671875,0.027947084978222847,-0.01160643994808197,0.024434609338641167
1761306379531172600,4.419172607421875,0.03420845419168472,-0.04092797264456749,0.030085112899541855
1761306379548011300,4.43601123046875,0.03527746722102165,-0.04459316283464432,0.029474247246980667
1761306379564833800,4.452833740234375,0.033597588539123535,-0.021532999351620674,0.019394971430301666
1761306379581651500,4.4696513671875,0.023060163483023643,-0.005192354787141085,0.0009162978967651725
1761306379598456000,4.4864560546875,0.00733038317412138,-0.001832595793530345,-0.014966198243200779
1761306379615299600,4.503299560546875,-0.005650503560900688,-0.0012217304902151227,-0.020005837082862854
1761306379632121900,4.520121826171875,-0.008399397134780884,-0.010231993161141872,-0.015882495790719986
1761306379648943600,4.536943603515625,-0.005039638374000788,-0.014355333521962166,-0.02229658141732216
1761306379665764600,4.5537646484375,0.0024434609804302454,-0.005955935921519995,-0.032070424407720566
1761306379682574600,4.57057470703125,0.005650503560900688,0.01817324012517929,-0.03649919852614403
1761306379699396400,4.587396240234375,0.0010690141934901476,0.012675453908741474,-0.02535090781748295
1761306379716210000,4.6042099609375,-0.0007635815418325365,0.01771509274840355,-0.00366519158706069
1761306379733040400,4.621040283203125,0.001527163083665073,0.016798794269561768,0.008399397134780884
1761306379749862400,4.6378623046875,0.013744467869400978,0.01863138936460018,0.004428773187100887
1761306379766684700,4.6546845703125,0.02977968007326126,0.016951510682702065,-0.019394971430301666
1761306379783512600,4.6715126953125,0.04046982154250145,0.04077525436878204,-0.043218716979026794
1761306379800324900,4.688324951171875,0.03084869496524334,0.062460970133543015,-0.05009094998240471
1761306379817168000,4.70516796875,0.008399397134780884,0.04734205827116966,-0.04917465150356293
1761306379833986600,4.721986572265625,-0.00427605677396059,0.016035212203860283,-0.04642575979232788
1761306379850808300,4.738808349609375,-0.0013744467869400978,-0.0003054326225537807,-0.044135015457868576
1761306379867631000,4.755631103515625,0.008704829961061478,-0.0022907445672899485,-0.03985895588994026
1761306379884448500,4.772448486328125,0.01878410577774048,0.006108652334660292,-0.02779436856508255
1761306379901266000,4.789265869140625,0.021991148591041565,0.008704829961061478,-0.005192354787141085
1761306379918096600,4.8060966796875,0.01710422709584236,0.005803219974040985,0.010842857882380486
1761306379934919000,4.8229189453125,0.01038470957428217,0.01771509274840355,0.013133603148162365
1761306379951741000,4.839740966796875,0.010690141469240189,0.03420845419168472,-0.002138028386980295
1761306379968563000,4.85656298828125,0.016035212203860283,0.03894266113638878,-0.016035212203860283
1761306379985385200,4.87338525390625,0.01970040425658226,0.029168816283345222,-0.01237002108246088
1761306380002192400,4.8901923828125,0.020616702735424042,0.005039638374000788,0.014202617108821869
1761306380019029200,4.907029296875,0.016493361443281174,-0.009621127508580685,0.035124752670526505
1761306380035851300,4.923851318359375,0.016951510682702065,-0.01237002108246088,0.028557950630784035
1761306380052673500,4.940673583984375,0.020616702735424042,0.001832595793530345,0.0022907445672899485
1761306380069495800,4.957495849609375,0.02428189292550087,0.021074850112199783,-0.020311269909143448
1761306380086317600,4.974317626953125,0.019394971430301666,0.012828170321881771,-0.026114489883184433
1761306380103135500,4.991135498046875,0.012064588256180286,-0.004123340360820293,-0.013591751456260681
1761306380119966000,5.007966064453125,0.008704829961061478,-0.019853120669722557,0.0027488935738801956
1761306380136783600,5.02478369140625,0.010537425056099892,-0.011759156361222267,0.013744467869400978
1761306380153576400,5.041576416015625,0.012217304669320583,-0.001832595793530345,0.012675453908741474
1761306380170414000,5.0584140625,0.009468411095440388,-0.010690141469240189,0.001679879380390048
1761306380187236400,5.075236328125,0.002138028386980295,0.0013744467869400978,-0.005497787147760391
1761306380204058400,5.092058349609375,-0.005192354787141085,0.018936822190880775,-0.008704829961061478
1761306380220880400,5.10888037109375,-0.00733038317412138,0.0074830991216003895,-0.014508049935102463
1761306380237702700,5.12570263671875,-0.005345070734620094,-0.0025961773935705423,-0.006719517521560192
1761306380254513200,5.14251318359375,-0.005955935921519995,-0.010995574295520782,0.010842857882380486
1761306380271346700,5.1593466796875,-0.0065668015740811825,-0.03497203439474106,0.02321287989616394
1761306380288168700,5.176168701171875,-0.0064140851609408855,-0.030237829312682152,0.027947084978222847
1761306380305008000,5.193008056640625,-0.009010262787342072,0.003359758760780096,0.025961773470044136
1761306380321826300,5.209826416015625,-0.013286318629980087,0.024434609338641167,0.01542434748262167
1761306380338647800,5.226647705078125,-0.017562376335263252,0.02886338345706463,0.008246680721640587
1761306380355455500,5.24345556640625,-0.017562376335263252,0.013439035043120384,0.0064140851609408855
1761306380372293000,5.260293212890625,-0.01237002108246088,0.0065668015740811825,0.007788531947880983
1761306380389115600,5.27711572265625,-0.007024950347840786,0.0013744467869400978,0.006872233934700489
1761306380405937000,5.29393701171875,-0.006872233934700489,0.0027488935738801956,0.005497787147760391
1761306380422755300,5.31075537109375,-0.021532999351620674,-0.007635815534740686,0.003359758760780096
1761306380439585500,5.32758544921875,-0.042760565876960754,-0.016951510682702065,-0.00015271631127689034
1761306380456403000,5.34440283203125,-0.056352317333221436,0.004123340360820293,-0.013439035043120384
1761306380473225700,5.361225830078125,-0.04963280260562897,0.02672535367310047,-0.0354301854968071
1761306380490047200,5.378047119140625,-0.035582900047302246,0.054367005825042725,-0.04505131021142006
1761306380506864600,5.39486474609375,-0.024587325751781464,0.05467243865132332,-0.030085112899541855
1761306380523692800,5.41169287109375,-0.02229658141732216,0.02626720629632473,0.009162978269159794
1761306380540513500,5.428513427734375,-0.02076941914856434,0.00366519158706069,0.04199698567390442
1761306380557352700,5.445352783203125,-0.01542434748262167,-0.00427605677396059,0.042760565876960754
1761306380574151000,5.46215087890625,-0.008399397134780884,-0.0003054326225537807,0.01664607785642147
1761306380590987000,5.478987060546875,-0.0010690141934901476,0.0024434609804302454,-0.005955935921519995
1761306380607801600,5.495801513671875,-0.004886921960860491,-0.003359758760780096,-0.006108652334660292
1761306380624637700,5.5126376953125,-0.010690141469240189,-0.013591751456260681,0.006872233934700489
1761306380641443600,5.529443603515625,-0.010995574295520782,-0.022907447069883347,0.013744467869400978
1761306380658254300,5.54625439453125,-0.00855211354792118,-0.023518312722444534,-0.0007635815418325365
1761306380675076600,5.56307666015625,-0.008246680721640587,-0.01817324012517929,-0.02122756652534008
1761306380691898600,5.579898681640625,-0.012828170321881771,-0.013286318629980087,-0.024434609338641167
1761306380708720600,5.596720703125,-0.021838432177901268,-0.004123340360820293,-0.007941247895359993
1761306380725542700,5.613542724609375,-0.029016099870204926,0.014355333521962166,0.007024950347840786
1761306380742364700,5.63036474609375,-0.02519819140434265,0.01878410577774048,0.0065668015740811825
1761306380759187200,5.647187255859375,-0.013744467869400978,0.014202617108821869,-0.010537425056099892
1761306380776009000,5.664009033203125,-0.004123340360820293,0.016951510682702065,-0.028557950630784035
1761306380792848100,5.68084814453125,-0.010231993161141872,0.025503624230623245,-0.0429132841527462
1761306380809666800,5.697666748046875,-0.01542434748262167,0.029016099870204926,-0.04535674303770065
1761306380826489000,5.714489013671875,-0.017867809161543846,0.023060163483023643,-0.038637228310108185
1761306380843311400,5.731311279296875,-0.014355333521962166,0.01970040425658226,-0.028405234217643738
1761306380860133000,5.748133056640625,-0.011759156361222267,0.008246680721640587,-0.009773843921720982
1761306380876955100,5.764955078125,-0.009926560334861279,-0.016951510682702065,0.004886921960860491
1761306380893777200,5.781777099609375,-0.0039706239476799965,-0.025656340643763542,0.010079276748001575
1761306380910596600,5.7985966796875,0.0025961773935705423,-0.0009162978967651725,0.0032070425804704428
1761306380927426000,5.815426025390625,0.006872233934700489,0.01924225501716137,-0.0013744467869400978
1761306380944259000,5.832259033203125,0.004886921960860491,0.01572977937757969,0.003359758760780096
1761306380961075500,5.849075439453125,0.005345070734620094,0.015882495790719986,0.014202617108821869
1761306380977881600,5.865881591796875,0.003359758760780096,0.007024950347840786,0.02474004216492176
1761306380994711800,5.8827119140625,0.0065668015740811825,0.008246680721640587,0.02871066704392433
1761306381011515400,5.899515380859375,0.013133603148162365,0.01618792861700058,0.02229658141732216
1761306381028353300,5.916353271484375,0.013897184282541275,0.01618792861700058,0.013897184282541275
1761306381045150500,5.933150390625,0.004428773187100887,-0.003817907767370343,0.0065668015740811825
1761306381062001000,5.9500009765625,-0.004886921960860491,-0.015577063895761967,-0.010231993161141872
1761306381078820000,5.966820068359375,-0.008704829961061478,0.001527163083665073,-0.03405573591589928
1761306381095609600,5.983609619140625,-0.0029016099870204926,0.025656340643763542,-0.04352414980530739
1761306381112464400,6.00046435546875,0.0029016099870204926,0.033139441162347794,-0.023976460099220276
1761306381129283300,6.017283447265625,0.005039638374000788,0.015271631069481373,0.010842857882380486
1761306381146094600,6.034094482421875,0.0064140851609408855,-0.001832595793530345,0.03726277872920036
1761306381162916900,6.050916748046875,0.004428773187100887,-0.01878410577774048,0.047189339995384216
1761306381179739000,6.06773876953125,0.0039706239476799965,-0.03176499158143997,0.03726277872920036
1761306381196561000,6.084560791015625,0.003054326167330146,-0.03329215571284294,0.023976460099220276
1761306381213383000,6.1013828125,-0.00366519158706069,-0.039248090237379074,0.012980886735022068
1761306381230205000,6.118204833984375,-0.007788531947880983,-0.03298672288656235,0.010995574295520782
1761306381247027200,6.135027099609375,-0.013133603148162365,-0.005192354787141085,0.011453723534941673
1761306381263846400,6.151846435546875,-0.013439035043120384,0.012675453908741474,0.0027488935738801956
1761306381280678000,6.168677978515625,-0.010842857882380486,0.013897184282541275,-0.014355333521962166
1761306381297490700,6.18549072265625,-0.005955935921519995,0.005650503560900688,-0.027488935738801956
1761306381314354000,6.20235400390625,-0.003817907767370343,-0.00855211354792118,-0.028099801391363144
1761306381331127800,6.2191279296875,-0.005803219974040985,-0.02076941914856434,-0.01038470957428217
1761306381347973400,6.235973388671875,-0.010537425056099892,-0.02428189292550087,0.016798794269561768
1761306381364795100,6.252795166015625,-0.010079276748001575,-0.016340645030140877,0.03375030308961868
1761306381381614000,6.269614013671875,-0.006719517521560192,-0.013439035043120384,0.02932153269648552
1761306381398437600,6.286437744140625,-0.004886921960860491,-0.015118914656341076,0.013744467869400978
1761306381415245000,6.3032451171875,-0.00733038317412138,-0.007635815534740686,-0.004734205547720194
1761306381432083700,6.320083740234375,-0.008857546374201775,-0.003054326167330146,-0.024892758578062057
1761306381448905700,6.33690576171875,-0.004581489134579897,0.013744467869400978,-0.03344487398862839
1761306381465711400,6.35371142578125,-0.0039706239476799965,0.017867809161543846,-0.029168816283345222
1761306381482550300,6.37055029296875,-0.006719517521560192,0.004123340360820293,-0.00931569468230009
1761306381499371800,6.387371826171875,-0.0065668015740811825,-0.009621127508580685,0.014049900695681572
1761306381516198100,6.4041982421875,-0.0009162978967651725,-0.009773843921720982,0.027641652151942253
1761306381533012200,6.42101220703125,0.004886921960860491,-0.003817907767370343,0.01725694350898266
1761306381549838300,6.43783837890625,0.010537425056099892,0.014049900695681572,-0.005955935921519995
1761306381566660400,6.454660400390625,0.007788531947880983,0.020616702735424042,-0.014355333521962166
1761306381583478800,6.471478759765625,0,0.019547687843441963,-0.0003054326225537807
1761306381600308700,6.488308837890625,-0.005497787147760391,0.004428773187100887,0.013744467869400978
1761306381617107200,6.505107177734375,0.0012217304902151227,0.003054326167330146,0.015271631069481373
1761306381633922000,6.521922119140625,0.019547687843441963,0.004581489134579897,0.004581489134579897
1761306381650757000,6.538757080078125,0.027488935738801956,-0.00015271631127689034,-0.007941247895359993
1761306381667575800,6.555575927734375,0.017867809161543846,-0.012980886735022068,-0.017409659922122955
1761306381684391400,6.572391357421875,-0.0010690141934901476,-0.036041051149368286,-0.03497203439474106
1761306381701226500,6.5892265625,-0.010537425056099892,-0.02733621932566166,-0.05161811411380768
1761306381718045400,6.60604541015625,-0.008857546374201775,-0.01542434748262167,-0.06872233748435974
1761306381734867500,6.622867431640625,0.004734205547720194,-0.00015271631127689034,-0.06627888232469559
1761306381751689500,6.639689453125,0.013133603148162365,-0.010537425056099892,-0.044287730008363724
1761306381768515300,6.656515380859375,0.01725694350898266,-0.025503624230623245,-0.013897184282541275
1761306381785347300,6.673347412109375,0.015577063895761967,-0.04001167416572571,0.004886921960860491
1761306381802169300,6.69016943359375,0.016798794269561768,-0.03756821155548096,-0.00366519158706069
1761306381818991600,6.70699169921875,0.016798794269561768,-0.021074850112199783,-0.02321287989616394
1761306381835814000,6.72381396484375,0.013744467869400978,-0.012675453908741474,-0.03436116874217987
1761306381852632000,6.740632080078125,0.009468411095440388,-0.007788531947880983,-0.02015855349600315
1761306381869445400,6.7574453125,0.00733038317412138,-0.010995574295520782,-0.0012217304902151227
1761306381886263300,6.77426318359375,0.009162978269159794,-0.019394971430301666,-0.0029016099870204926
1761306381903102500,6.7911025390625,0.011759156361222267,-0.010537425056099892,-0.020463986322283745
1761306381919920000,6.807920166015625,0.007024950347840786,-0.010079276748001575,-0.03588833287358284
1761306381936750000,6.82475,-0.0025961773935705423,-0.014813481830060482,-0.04612032696604729
1761306381953552000,6.8415517578125,-0.007024950347840786,-0.008704829961061478,-0.04734205827116966
1761306381970390300,6.858390380859375,-0.005803219974040985,-0.010690141469240189,-0.044135015457868576
1761306381987212800,6.875212890625,-0.0003054326225537807,-0.006719517521560192,-0.039095375686883926
1761306382004034300,6.892034423828125,0.005650503560900688,-0.013897184282541275,-0.02871066704392433
1761306382020839200,6.908839111328125,0.014813481830060482,-0.023365596309304237,-0.019089538604021072
1761306382037681400,6.925681396484375,0.02321287989616394,-0.020616702735424042,-0.012217304669320583
1761306382054500900,6.9425009765625,0.03130684420466423,-0.012675453908741474,-0.010842857882380486
1761306382071323000,6.959322998046875,0.032681290060281754,-0.011301007121801376,-0.011453723534941673
1761306382088145000,6.976144775390625,0.027488935738801956,-0.021838432177901268,-0.010537425056099892
1761306382104964000,6.992964111328125,0.024129176512360573,-0.018020525574684143,-0.0064140851609408855
1761306382121759500,7.009759521484375,0.019853120669722557,-0.015271631069481373,-0.0009162978967651725
1761306382138597400,7.026597412109375,0.01725694350898266,-0.009468411095440388,0.0074830991216003895
1761306382155419400,7.04341943359375,0.015882495790719986,-0.005345070734620094,0.01572977937757969
1761306382172242200,7.0602421875,0.013591751456260681,0.0006108652451075613,0.014813481830060482
1761306382189064200,7.077064208984375,0.012522737495601177,0.01237002108246088,0.003817907767370343
1761306382205886000,7.093885986328125,0.007024950347840786,0.019089538604021072,0.001527163083665073
1761306382222719000,7.110718994140625,0.0013744467869400978,0.014966198243200779,0.010690141469240189
1761306382239530200,7.1275302734375,-0.0039706239476799965,0.0064140851609408855,0.02825251780450344
1761306382256352000,7.14435205078125,-0.004581489134579897,0.005955935921519995,0.036193765699863434
1761306382273174800,7.1611748046875,0.005803219974040985,0.003817907767370343,0.029016099870204926
1761306382290007000,7.178007080078125,0.014508049935102463,0.004734205547720194,0.01710422709584236
1761306382306832100,7.19483203125,0.018325956538319588,0.0022907445672899485,0.011453723534941673
1761306382323654000,7.21165380859375,0.018936822190880775,-0.0006108652451075613,0.012675453908741474
1761306382340476000,7.228475830078125,0.024129176512360573,-0.001832595793530345,0.008399397134780884
1761306382357283000,7.245282958984375,0.030237829312682152,0.007024950347840786,0.0065668015740811825
1761306382374120200,7.2621201171875,0.036651913076639175,0.00931569468230009,0.010537425056099892
1761306382390920000,7.278919921875,0.038026362657547,0.0003054326225537807,0.025961773470044136
1761306382407764500,7.295764404296875,0.030695978552103043,-0.02519819140434265,0.03756821155548096
1761306382424581400,7.312581298828125,0.023518312722444534,-0.03573561832308769,0.03298672288656235
1761306382441413600,7.32941357421875,0.016493361443281174,-0.02672535367310047,0.004581489134579897
1761306382458227200,7.346227294921875,0.00427605677396059,-0.004123340360820293,-0.025961773470044136
1761306382475056600,7.363056640625,-0.006108652334660292,0.005955935921519995,-0.036651913076639175
1761306382491874800,7.379874755859375,-0.008704829961061478,0.010995574295520782,-0.02779436856508255
1761306382508697300,7.396697265625,-0.005955935921519995,0.010995574295520782,-0.009773843921720982
1761306382525515000,7.413514892578125,-0.003817907767370343,0.010079276748001575,0.007941247895359993
1761306382542345200,7.43034521484375,-0.001527163083665073,0.005650503560900688,0.014813481830060482
1761306382559163400,7.447163330078125,0.001527163083665073,0.016951510682702065,0.010231993161141872
1761306382575985400,7.4639853515625,0.004428773187100887,0.024129176512360573,0.004123340360820293
1761306382592803800,7.480803955078125,0.007024950347840786,0.02687807008624077,0.0006108652451075613
1761306382609616100,7.4976162109375,0.013897184282541275,0.03833179548382759,-0.001832595793530345
1761306382626438000,7.51443798828125,0.02428189292550087,0.03848451003432274,-0.005497787147760391
1761306382643260000,7.531260009765625,0.030543262138962746,0.028099801391363144,-0.007024950347840786
1761306382660079400,7.548079345703125,0.03390302136540413,0.02687807008624077,-0.0032070425804704428
1761306382676904200,7.564904296875,0.03298672288656235,0.01572977937757969,0.004886921960860491
1761306382693726200,7.581726318359375,0.030543262138962746,0.004734205547720194,0.01237002108246088
1761306382710548200,7.59854833984375,0.02825251780450344,0.0019853119738399982,0.017867809161543846
1761306382727370500,7.61537060546875,0.02580905705690384,0.0006108652451075613,0.01771509274840355
1761306382744189700,7.632189697265625,0.025961773470044136,0.003359758760780096,0.009468411095440388
1761306382761017000,7.64901708984375,0.02321287989616394,0.00045814894838258624,0.0009162978967651725
1761306382777854700,7.665854736328125,0.021838432177901268,-0.007788531947880983,-0.005039638374000788
1761306382794672400,7.68267236328125,0.01771509274840355,-0.012675453908741474,-0.005345070734620094
1761306382811494400,7.699494384765625,0.010995574295520782,-0.013286318629980087,0.001679879380390048
1761306382828301300,7.71630126953125,0.0007635815418325365,-0.007177666760981083,0.009010262787342072
1761306382845110000,7.733110107421875,-0.00855211354792118,-0.0013744467869400978,0.012217304669320583
1761306382861982200,7.749982177734375,-0.010231993161141872,-0.00809396430850029,0.010995574295520782
1761306382878779100,7.766779052734375,-0.005345070734620094,-0.021074850112199783,0.00809396430850029
1761306382895608800,7.78360888671875,0.0013744467869400978,-0.035582900047302246,0.00855211354792118
1761306382912408800,7.800408935546875,-0.00015271631127689034,-0.03420845419168472,0.012217304669320583
1761306382929253000,7.817253173828125,-0.009773843921720982,-0.020311269909143448,0.00855211354792118
1761306382946071600,7.834071533203125,-0.018020525574684143,-0.015118914656341076,-0.010690141469240189
1761306382962892800,7.850892822265625,-0.020005837082862854,-0.015882495790719986,-0.027183502912521362
1761306382979698700,7.86769873046875,-0.01664607785642147,-0.01771509274840355,-0.024434609338641167
1761306382996537600,7.88453759765625,-0.010995574295520782,-0.00931569468230009,-0.008246680721640587
1761306383013358000,7.901358154296875,-0.005497787147760391,0.001679879380390048,0.014202617108821869
1761306383030181600,7.918181640625,-0.0006108652451075613,0.0032070425804704428,0.02580905705690384
1761306383047004000,7.93500390625,-0.00015271631127689034,0.003054326167330146,0.020463986322283745
1761306383063809300,7.951809326171875,0.001679879380390048,0.008399397134780884,0.0022907445672899485
1761306383080644600,7.96864453125,-0.0009162978967651725,0.004886921960860491,-0.010231993161141872
1761306383097456400,7.985456298828125,-0.0024434609804302454,0.003359758760780096,-0.010842857882380486
1761306383114278700,8.002278564453125,-0.0039706239476799965,0.004734205547720194,-0.004886921960860491
1761306383131100700,8.0191005859375,0.002138028386980295,0.0022907445672899485,0.004123340360820293
1761306383147922700,8.035922607421876,0.005803219974040985,0.0022907445672899485,0.02076941914856434
1761306383164728800,8.052728759765625,0.007024950347840786,-0.013897184282541275,0.03451388701796532
1761306383181569800,8.06956982421875,0.006261368747800589,-0.027641652151942253,0.035582900047302246
1761306383198389000,8.086388916015625,0.002138028386980295,-0.02977968007326126,0.024892758578062057
1761306383215192600,8.103192626953126,-0.005192354787141085,-0.02015855349600315,0.005803219974040985
1761306383232029700,8.12002978515625,-0.01160643994808197,0.0003054326225537807,-0.017867809161543846
1761306383248855600,8.13685546875,-0.012980886735022068,0.01710422709584236,-0.032528575509786606
1761306383265686800,8.153686767578124,-0.012522737495601177,0.024892758578062057,-0.02428189292550087
1761306383282513000,8.170512939453126,-0.014049900695681572,0.014049900695681572,-0.0010690141934901476
1761306383299308800,8.187308837890624,-0.010537425056099892,0.005039638374000788,0.016951510682702065
1761306383316157200,8.2041572265625,-0.006872233934700489,0.00366519158706069,0.01878410577774048
1761306383332963000,8.220963134765626,-0.00733038317412138,0.0039706239476799965,0.01160643994808197
1761306383349826800,8.237826904296876,-0.0074830991216003895,0.011301007121801376,0
1761306383366627600,8.254627685546875,-0.003359758760780096,0.01664607785642147,-0.015118914656341076
1761306383383424500,8.271424560546874,0.0065668015740811825,0.019853120669722557,-0.027488935738801956
1761306383400267800,8.288267822265626,0.013286318629980087,0.008857546374201775,-0.027183502912521362
1761306383417074400,8.305074462890625,0.014813481830060482,-0.012217304669320583,-0.01710422709584236
1761306383433898500,8.3218984375,0.012522737495601177,-0.02886338345706463,-0.003817907767370343
1761306383450734000,8.338734130859375,0.00809396430850029,-0.020311269909143448,0.00366519158706069
1761306383467556600,8.355556640625,0.00366519158706069,-0.0010690141934901476,-0.0074830991216003895
1761306383484375300,8.372375244140626,-0.0013744467869400978,0.020463986322283745,-0.01237002108246088
1761306383501203500,8.389203369140626,0.0009162978967651725,0.02015855349600315,-0.015882495790719986
1761306383518022700,8.406022705078126,0.004581489134579897,0.01710422709584236,-0.012522737495601177
1761306383534844400,8.422844482421874,0.004581489134579897,0.005497787147760391,-0.01160643994808197
1761306383551665700,8.439665771484375,0.007024950347840786,0.009621127508580685,-0.009621127508580685
1761306383568486400,8.456486328125,0.001832595793530345,0.012217304669320583,-0.008246680721640587
1761306383585297200,8.473297119140625,-0.004123340360820293,0.01160643994808197,-0.010537425056099892
1761306383602119000,8.490118896484375,-0.00733038317412138,0.0065668015740811825,-0.012828170321881771
1761306383618941200,8.506941162109374,-0.010231993161141872,-0.0065668015740811825,-0.01710422709584236
1761306383635763500,8.523763427734375,-0.01664607785642147,-0.03680463135242462,-0.02535090781748295
1761306383652585200,8.540585205078125,-0.020463986322283745,-0.050854530185461044,-0.032528575509786606
1761306383669407500,8.557407470703126,-0.020005837082862854,-0.0529925599694252,-0.03634648025035858
1761306383686229500,8.5742294921875,-0.011759156361222267,-0.03573561832308769,-0.032528575509786606
1761306383703051500,8.591051513671875,0.001527163083665073,0.0025961773935705423,-0.021074850112199783
1761306383719873800,8.607873779296876,0.010079276748001575,0.014049900695681572,-0.004123340360820293
1761306383736695800,8.62469580078125,0.012828170321881771,-0.008246680721640587,0.005955935921519995
1761306383753535000,8.641534912109375,0.014049900695681572,-0.014508049935102463,0.01114829070866108
1761306383770353700,8.658353759765625,0.01771509274840355,-0.01038470957428217,0.010537425056099892
1761306383787176000,8.675176025390625,0.017562376335263252,-0.001832595793530345,0.006261368747800589
1761306383803998200,8.691998291015626,0.014966198243200779,0.017409659922122955,0.0022907445672899485
1761306383820820000,8.708820068359374,0.013286318629980087,0.01863138936460018,0.0039706239476799965
1761306383837642200,8.725642333984375,0.016798794269561768,0.006719517521560192,0.00733038317412138
1761306383854464300,8.74246435546875,0.019394971430301666,-0.007635815534740686,0.013439035043120384
1761306383871286300,8.759286376953124,0.021380282938480377,-0.020005837082862854,0.01114829070866108
1761306383888108000,8.77610791015625,0.016340645030140877,-0.01114829070866108,0.006261368747800589
1761306383904914000,8.792913818359375,0.0064140851609408855,-0.004886921960860491,0.0012217304902151227
1761306383921748200,8.809748291015625,-0.001832595793530345,0.005039638374000788,-0.0064140851609408855
1761306383938578700,8.82657861328125,-0.0022907445672899485,0.008246680721640587,-0.006719517521560192
1761306383955396900,8.84339697265625,0.005955935921519995,0.012828170321881771,0.006108652334660292
1761306383972202000,8.860201904296876,0.013591751456260681,0.0010690141934901476,0.01618792861700058
1761306383989041200,8.877041259765624,0.018020525574684143,0.004123340360820293,0.020463986322283745
1761306384005861000,8.893861083984374,0.013439035043120384,0.01191187184303999,0.023518312722444534
1761306384022698000,8.910697998046874,0.009926560334861279,0.007788531947880983,0.02367102913558483
1761306384039510500,8.927510498046875,0.00809396430850029,-0.0012217304902151227,0.020311269909143448
1761306384056326400,8.944326416015626,0.010690141469240189,-0.0012217304902151227,0.01160643994808197
1761306384073137700,8.9611376953125,0.013133603148162365,-0.006872233934700489,0.010995574295520782
1761306384089959700,8.977959716796875,0.00931569468230009,-0.010079276748001575,0.016340645030140877
1761306384106781700,8.99478173828125,0.0074830991216003895,-0.009468411095440388,0.025045474991202354
1761306384123604000,9.01160400390625,0.00427605677396059,-0.003512475173920393,0.024587325751781464
1761306384140426500,9.028426513671874,0.009926560334861279,0.006108652334660292,0.015118914656341076
1761306384157248000,9.045248046875,0.013133603148162365,0.007941247895359993,0.006261368747800589
1761306384174067000,9.06206689453125,0.013133603148162365,0.01191187184303999,0.00366519158706069
1761306384190895900,9.078895751953125,0.009468411095440388,0.0025961773935705423,0.006719517521560192
1761306384207714800,9.09571484375,0.011759156361222267,-0.0027488935738801956,0.012217304669320583
1761306384224536600,9.11253662109375,0.015271631069481373,-0.0029016099870204926,0.01542434748262167
1761306384241376300,9.129376220703126,0.016798794269561768,0.005039638374000788,0.009162978269159794
1761306384258194200,9.146194091796875,0.013591751456260681,0.01817324012517929,-0.0006108652451075613
1761306384275016400,9.163016357421874,0.011453723534941673,0.030543262138962746,-0.003817907767370343
1761306384291808300,9.179808349609376,0.003359758760780096,0.02275473065674305,0.001679879380390048
1761306384308660700,9.19666064453125,-0.001679879380390048,0.008857546374201775,0.0074830991216003895
1761306384325479000,9.21347900390625,-0.006719517521560192,-0.0009162978967651725,0.004581489134579897
1761306384342304800,9.2303046875,-0.007024950347840786,0.00733038317412138,-0.00366519158706069
1761306384359099100,9.24709912109375,-0.01237002108246088,0.010231993161141872,-0.015118914656341076
1761306384375949000,9.263948974609375,-0.019089538604021072,-0.005192354787141085,-0.027641652151942253
1761306384392771000,9.28077099609375,-0.02015855349600315,-0.01114829070866108,-0.03222314268350601
1761306384409589000,9.297589111328126,-0.01237002108246088,-0.005192354787141085,-0.025503624230623245
1761306384426413600,9.31441357421875,-0.007024950347840786,-0.0009162978967651725,-0.004734205547720194
1761306384443239200,9.3312392578125,-0.0010690141934901476,-0.01466076634824276,0.015118914656341076
1761306384460064000,9.34806396484375,0.005192354787141085,-0.023365596309304237,0.021532999351620674
1761306384476881000,9.364880859375,0.003359758760780096,-0.02275473065674305,0.007788531947880983
1761306384493704400,9.381704345703126,-0.0029016099870204926,-0.014355333521962166,-0.001527163083665073
1761306384510526200,9.398526123046874,-0.008399397134780884,-0.01038470957428217,-0.0065668015740811825
1761306384527347700,9.41534765625,-0.010079276748001575,-0.009468411095440388,-0.0064140851609408855
1761306384544182000,9.43218212890625,-0.00855211354792118,-0.003054326167330146,-0.008399397134780884
1761306384560976000,9.448975830078124,-0.0065668015740811825,0.0003054326225537807,-0.012522737495601177
1761306384577803300,9.46580322265625,-0.010079276748001575,0.003359758760780096,-0.011453723534941673
1761306384594614000,9.482614013671874,-0.01237002108246088,0.013439035043120384,-0.008399397134780884
1761306384611451000,9.499450927734374,-0.013133603148162365,0.013286318629980087,-0.005345070734620094
1761306384628262400,9.516262451171874,-0.013439035043120384,0.012217304669320583,-0.00809396430850029
1761306384645091800,9.533091796875,-0.013439035043120384,0.012522737495601177,-0.01817324012517929
1761306384661912300,9.549912353515625,-0.01618792861700058,0.017409659922122955,-0.02932153269648552
1761306384678728400,9.566728515625,-0.01924225501716137,0.021074850112199783,-0.03237585723400116
1761306384695560000,9.583559814453125,-0.015118914656341076,0.03405573591589928,-0.036651913076639175
1761306384712377300,9.60037744140625,-0.013439035043120384,0.03451388701796532,-0.05497787147760391
1761306384729202700,9.61720263671875,0.01924225501716137,0.10812314599752426,-0.09682214260101318
1761306384746035200,9.63403515625,0.02779436856508255,0.19058994948863983,-0.14752395451068878
1761306384762857500,9.650857421875,0.024587325751781464,0.20784689486026764,-0.1537853181362152
1761306384779679200,9.66767919921875,-0.0006108652451075613,0.18005253374576569,-0.09498954564332962
1761306384796484900,9.68448486328125,-0.02733621932566166,0.1108720451593399,0.0019853119738399982
1761306384813323800,9.70132373046875,-0.03390302136540413,0.054367005825042725,0.10445795953273773
1761306384830129200,9.718129150390626,-0.02428189292550087,0.04199698567390442,0.18219055235385895
1761306384846967800,9.7349677734375,-0.01618792861700058,0.08628471940755844,0.23396138846874237
1761306384863754800,9.751754638671875,0.02733621932566166,0.07849618047475815,0.2503020465373993
1761306384880597500,9.768597412109376,0.0734565481543541,0.07559457421302795,0.22098049521446228
1761306384897415000,9.785414794921875,0.09926560521125793,0.0679587572813034,0.1287398487329483
1761306384914239500,9.802239501953125,0.1212567538022995,0.09514226019382477,-0.07651086896657944
1761306384931063300,9.819063232421875,0.10873401165008545,0.2889392673969269,-0.23839016258716583
1761306384947888600,9.835888671875,0.12538009881973267,0.44104471802711487,-0.17150041460990906
