time,seconds_elapsed,z,y,x
1761488119763761700,0.21676171875,1.8442368507385254,0.25410592555999756,-0.16413259506225586
1761488119780582400,0.23358251953125,1.6845927238464355,1.553868055343628,-1.2904815673828125
1761488119797403400,0.2504033203125,0.9035181999206543,2.067262649536133,-1.401848316192627
1761488119814234600,0.267234619140625,-0.0731654167175293,1.5845749378204346,-0.9884586334228516
1761488119831054000,0.28405419921875,-0.6449737548828125,0.47117090225219727,-0.7685546875
1761488119847861000,0.300861083984375,-1.0051093101501465,-0.6003739833831787,-0.7190132141113281
1761488119864687000,0.31768701171875,-1.086479663848877,-1.1493247747421265,-0.6035690307617188
1761488119881511200,0.33451123046875,-0.865272045135498,-1.116162896156311,-0.5041346549987793
1761488119898334500,0.35133447265625,-0.7203850746154785,-0.9957338571548462,-0.5478181838989258
1761488119915158300,0.368158203125,-0.4590110778808594,-0.8554081916809082,-0.7063298225402832
1761488119931981000,0.38498095703125,-0.5295042991638184,-0.4895728826522827,-0.8357076644897461
1761488119948829400,0.401829345703125,-0.7409329414367676,-0.20614051818847656,-0.9315652847290039
1761488119965618400,0.418618408203125,-1.2056903839111328,-0.16753244400024414,-0.9998269081115723
1761488119982462000,0.4354619140625,-1.4875636100769043,-0.10560834407806396,-0.988257884979248
1761488119999293200,0.452293212890625,-1.5822033882141113,0.15491747856140137,-0.9097328186035156
1761488120016096300,0.46909619140625,-1.3688807487487793,0.44517946243286133,-0.9244275093078613
1761488120032930600,0.4859306640625,-0.7097063064575195,0.6768900752067566,-0.8050894737243652
1761488120049749000,0.5027490234375,-0.448458194732666,0.848469614982605,-0.37261295318603516
1761488120066583000,0.5195830078125,-0.40686511993408203,1.0805373191833496,0.015958786010742188
1761488120083402500,0.536402587890625,-0.403656005859375,1.2645825147628784,0.13611268997192383
1761488120100217600,0.553217529296875,-0.42515039443969727,1.2939531803131104,-0.02778911590576172
1761488120117038000,0.5700380859375,-0.457643985748291,1.3261744976043701,-0.17433595657348633
1761488120133876700,0.586876708984375,-0.4078364372253418,1.289715051651001,-0.23476505279541016
1761488120150676000,0.603676025390625,-0.3116645812988281,1.2304577827453613,-0.07827377319335938
1761488120167523600,0.620523681640625,-0.10651540756225586,1.1165627241134644,0.31514930725097656
1761488120184347400,0.637347412109375,-0.007842063903808594,0.9987648725509644,0.6926541328430176
1761488120201153300,0.6541533203125,0.011865615844726562,0.8146951794624329,1.0269432067871094
1761488120217980700,0.670980712890625,-0.04603910446166992,0.7033136487007141,1.231919765472412
1761488120234804000,0.687803955078125,-0.29755401611328125,0.5778218507766724,1.4928584098815918
1761488120251629300,0.70462939453125,-0.15932798385620117,-0.07766389846801758,1.9642419815063477
1761488120268454000,0.721453857421875,-0.16144990921020508,-0.7866110801696777,1.854872703552246
1761488120285271000,0.73827099609375,0.018789291381835938,-0.5396355390548706,1.3820700645446777
1761488120302114800,0.75511474609375,0.9246120452880859,0.3249930143356323,1.0519351959228516
1761488120318919700,0.771919677734375,1.7943592071533203,0.7965422868728638,0.9822678565979004
1761488120335741200,0.7887412109375,1.91646146774292,0.5662863254547119,0.9308819770812988
1761488120352568600,0.805568603515625,1.6321344375610352,0.1902925968170166,0.5460681915283203
1761488120369389800,0.822389892578125,1.2378802299499512,-0.10709130764007568,-0.0458984375
1761488120386212400,0.83921240234375,0.8949975967407227,-0.47286295890808105,-0.48227930068969727
1761488120403022800,0.85602294921875,0.7912745475769043,-0.7811110019683838,-0.642946720123291
1761488120419859000,0.87285888671875,1.05515718460083,-0.7492185831069946,-0.5589780807495117
1761488120436706000,0.8897060546875,1.2867975234985352,-0.5337954759597778,-0.22116947174072266
1761488120453523500,0.9065234375,1.1129727363586426,-0.3441603183746338,0.08603239059448242
1761488120470346000,0.923345947265625,0.8237876892089844,-0.14568424224853516,0.22721004486083984
1761488120487169800,0.940169677734375,0.518071174621582,-0.04824340343475342,-0.07936239242553711
1761488120503993300,0.956993408203125,0.03359508514404297,-0.029538869857788086,-0.6561813354492188
1761488120520817000,0.97381689453125,-0.3872523307800293,0.04105198383331299,-1.284834861755371
1761488120537640200,0.99064013671875,-0.6727571487426758,0.08249688148498535,-1.7548179626464844
1761488120554463700,1.007463623046875,-0.7340297698974609,0.0025190114974975586,-1.830282211303711
1761488120571287000,1.024287109375,-0.7344198226928711,-0.1409459114074707,-1.6935391426086426
1761488120588111000,1.041111083984375,-0.828648567199707,-0.2895873785018921,-1.541562557220459
1761488120604934400,1.057934326171875,-1.4021267890930176,-0.5148293972015381,-1.4509053230285645
1761488120621754000,1.074754150390625,-1.243645191192627,-0.41210126876831055,-1.3371305465698242
1761488120638580200,1.091580322265625,-1.145432472229004,-0.3172166347503662,-0.9924306869506836
1761488120655405800,1.10840576171875,-1.105607509613037,-0.695719838142395,-0.4617280960083008
1761488120672202500,1.125202392578125,-0.9676985740661621,-0.8623601198196411,-0.19752120971679688
1761488120689034500,1.142034423828125,-0.5297355651855469,-0.7445734739303589,-0.11394977569580078
1761488120705861400,1.158861328125,-0.1734023094177246,-0.7902158498764038,0.3515653610229492
1761488120722685000,1.175684814453125,0.2165522575378418,-1.1493556499481201,0.8837776184082031
1761488120739505000,1.1925048828125,0.27184343338012695,-1.4477044343948364,1.3498854637145996
1761488120756334800,1.2093349609375,0.25608348846435547,-1.3517519235610962,1.4796385765075684
1761488120773155300,1.2261552734375,0.35970306396484375,-1.0946061611175537,1.276716709136963
1761488120789996500,1.24299658203125,0.435361385345459,-1.5903065204620361,1.7558650970458984
1761488120806815700,1.259815673828125,0.10733509063720703,-2.559323787689209,1.918337345123291
1761488120823622700,1.27662255859375,0.43941783905029297,-2.0570993423461914,0.9803910255432129
1761488120840449000,1.293448974609375,1.3443965911865234,-0.3398991823196411,-0.21376609802246094
1761488120857272800,1.31027294921875,1.1325740814208984,0.9121089577674866,-0.7626285552978516
1761488120874086000,1.3270859375,0.2742595672607422,1.1421376466751099,-0.6155123710632324
1761488120890924300,1.34392431640625,-0.6782312393188477,0.5225751399993896,-0.2549405097961426
1761488120907754800,1.360754638671875,-1.3530535697937012,-0.15080618858337402,-0.3015861511230469
1761488120924579600,1.37757958984375,-1.4109339714050293,-0.87967848777771,-0.21741390228271484
1761488120941404700,1.39440478515625,-1.1627593040466309,-1.7505968809127808,0.2212681770324707
1761488120958231000,1.41123095703125,-0.9435367584228516,-2.1143174171447754,0.6322851181030273
1761488120975040500,1.42804052734375,-0.4902791976928711,-1.8129973411560059,0.8150949478149414
1761488120991883000,1.444883056640625,-0.5277714729309082,-1.1603152751922607,0.8369026184082031
1761488121008697900,1.46169775390625,-0.9641642570495605,-0.6743226051330566,0.6731991767883301
1761488121025521000,1.47852099609375,-1.494828224182129,-0.49921679496765137,0.4369826316833496
1761488121042344400,1.495344482421875,-1.9031758308410645,-0.48621153831481934,0.18368244171142578
1761488121059168500,1.51216845703125,-2.0312423706054688,-0.40056300163269043,0.0629415512084961
1761488121075987000,1.528987060546875,-2.0268239974975586,-0.29073476791381836,0.04683685302734375
1761488121092819000,1.54581884765625,-1.9153738021850586,-0.06801772117614746,0.2135004997253418
1761488121109638700,1.562638671875,-1.9396047592163086,0.15986764430999756,0.5889039039611816
1761488121126432800,1.579432861328125,-2.1868696212768555,0.14718425273895264,0.8096795082092285
1761488121143283500,1.596283447265625,-2.45811128616333,0.15393197536468506,0.46205949783325195
1761488121160113200,1.613113037109375,-2.642190933227539,0.42361700534820557,-0.10641145706176758
1761488121176915200,1.629915283203125,-2.664179801940918,0.7054694890975952,-0.25960731506347656
1761488121193742300,1.646742431640625,-2.4372644424438477,0.6593989133834839,-0.14659547805786133
1761488121210565000,1.663565185546875,-2.027444362640381,0.7118417024612427,-0.025454998016357422
1761488121227389200,1.68038916015625,-1.5703449249267578,0.8485296964645386,0.3389291763305664
1761488121244212500,1.69721240234375,-1.2127962112426758,0.8859304189682007,0.9024138450622559
1761488121261036300,1.714036376953125,-0.8300633430480957,0.8607869744300842,1.4564409255981445
1761488121277858800,1.73085888671875,-0.5581121444702148,0.7693929672241211,1.9117951393127441
1761488121294693400,1.747693359375,-0.43041086196899414,0.7002732753753662,2.1904964447021484
1761488121311521000,1.76452099609375,-0.20257854461669922,0.6625187993049622,2.407419204711914
1761488121328333000,1.7813330078125,-0.10727453231811523,0.010128498077392578,3.1493897438049316
1761488121345150500,1.798150390625,-0.044454097747802734,-1.0971792936325073,3.556697368621826
1761488121361979600,1.814979736328125,0.4676637649536133,-0.8279790878295898,3.167203426361084
1761488121378800400,1.83180029296875,1.130079746246338,0.3215140104293823,2.775057792663574
1761488121395624200,1.848624267578125,1.1110386848449707,0.8092683553695679,2.462273597717285
1761488121412437500,1.8654375,0.647667407989502,0.8329811692237854,1.8469948768615723
1761488121429280500,1.882280517578125,0.17306280136108398,0.48026323318481445,0.9495463371276855
1761488121446112500,1.899112548828125,-0.03968524932861328,0.08011341094970703,0.20325708389282227
1761488121462909000,1.915908935546875,0.11231422424316406,-0.3927243947982788,-0.011289596557617188
1761488121479725800,1.932725830078125,0.4499940872192383,-0.8331754207611084,0.07291841506958008
1761488121496571600,1.949571533203125,0.6621222496032715,-0.943488359451294,0.30753374099731445
1761488121513401900,1.96640185546875,0.4743022918701172,-0.6705211400985718,0.5586075782775879
1761488121530225400,1.983225341796875,-0.01032114028930664,-0.247702956199646,0.5604825019836426
1761488121547032300,2.0000322265625,-0.7014493942260742,0.1622157096862793,0.18617963790893555
1761488121563855600,2.016855712890625,-1.3033256530761719,0.38301002979278564,-0.3326711654663086
1761488121580696000,2.033696044921875,-1.6068534851074219,0.4413555860519409,-0.8568825721740723
1761488121597503000,2.0505029296875,-1.4380316734313965,0.40187323093414307,-1.2884325981140137
1761488121614342100,2.067342041015625,-1.2292165756225586,0.30926513671875,-1.4462237358093262
1761488121631166500,2.08416650390625,-1.2744202613830566,0.25148046016693115,-1.4059910774230957
1761488121647989500,2.100989501953125,-1.4630165100097656,0.18410944938659668,-1.2708039283752441
1761488121664796200,2.117796142578125,-1.6382598876953125,0.06386399269104004,-1.0413870811462402
1761488121681622500,2.13462255859375,-1.7456917762756348,-0.11928081512451172,-0.7655930519104004
1761488121698446300,2.1514462890625,-1.8127555847167969,-0.33285582065582275,-0.4839935302734375
1761488121715270000,2.168269775390625,-1.5858664512634277,-0.5073127746582031,-0.2269148826599121
1761488121732108000,2.18510791015625,-1.2212543487548828,-0.5530407428741455,-0.06679821014404297
1761488121748916500,2.20191650390625,-0.825531005859375,-0.6402664184570312,0.13222408294677734
1761488121765748000,2.218748046875,-0.6202659606933594,-0.8099380731582642,0.4379615783691406
1761488121782575600,2.23557568359375,-0.4803476333618164,-1.1083430051803589,0.8636116981506348
1761488121799386600,2.25238671875,-0.4536561965942383,-1.4476497173309326,1.367548942565918
1761488121816193800,2.26919384765625,-0.41361331939697266,-1.7932124137878418,1.7968535423278809
1761488121833031000,2.286031005859375,-0.3916015625,-1.8462923765182495,1.8101239204406738
1761488121849848300,2.302848388671875,-0.0641031265258789,-1.5540330410003662,1.4545321464538574
1761488121866681600,2.319681640625,0.3513493537902832,-1.6026240587234497,1.6365952491760254
1761488121883504400,2.33650439453125,0.5942397117614746,-2.2397420406341553,1.9514422416687012
1761488121900315000,2.35331494140625,0.8257222175598145,-1.5659135580062866,1.2159733772277832
1761488121917164800,2.370164794921875,1.0389184951782227,-0.20391643047332764,0.09888410568237305
1761488121933993000,2.386992919921875,0.7255525588989258,0.9299057722091675,-0.764653205871582
1761488121950812000,2.40381201171875,0.06373357772827148,1.3329771757125854,-1.0388097763061523
1761488121967631000,2.420631103515625,-0.523716926574707,0.8943369388580322,-0.8830504417419434
1761488121984464000,2.4374638671875,-0.5388212203979492,0.17538011074066162,-0.6593647003173828
1761488122001283000,2.454282958984375,-0.11764049530029297,-0.4281512498855591,-0.24839401245117188
1761488122018102300,2.471102294921875,0.21753406524658203,-0.950214147567749,0.3460559844970703
1761488122034933500,2.48793359375,0.20327091217041016,-1.0213189125061035,0.7261109352111816
1761488122051753000,2.5047529296875,-0.06969404220581055,-0.6411761045455933,0.7362828254699707
1761488122068573200,2.5215732421875,-0.6980743408203125,-0.16040122509002686,0.45865345001220703
1761488122085367800,2.538367919921875,-1.329071044921875,0.1858522891998291,0.010287761688232422
1761488122102228000,2.55522802734375,-1.4840388298034668,0.2514944076538086,-0.3469271659851074
1761488122119046700,2.572046630859375,-1.1311044692993164,0.14764761924743652,-0.5265836715698242
1761488122135866600,2.58886669921875,-0.5442891120910645,0.022836923599243164,-0.5158886909484863
1761488122152680400,2.605680419921875,-0.3175826072692871,0.007162332534790039,-0.5278148651123047
1761488122169507600,2.622507568359375,-0.562807559967041,0.17043912410736084,-0.6281681060791016
1761488122186324000,2.639323974609375,-1.0481386184692383,0.41610562801361084,-0.6989469528198242
1761488122203141000,2.65614111328125,-1.4698948860168457,0.6308214664459229,-0.7519464492797852
1761488122219970300,2.67297021484375,-1.5822346210479736,0.8011260032653809,-0.8519062995910645
1761488122236800800,2.68980078125,-1.3800954818725586,0.9063454866409302,-0.9409394264221191
1761488122253624300,2.706624267578125,-1.0520625114440918,0.902469277381897,-0.9019203186035156
1761488122270455300,2.723455322265625,-0.7854113578796387,0.7894431352615356,-0.7040095329284668
1761488122287285000,2.740284912109375,-0.5388460159301758,0.6063874959945679,-0.338411808013916
1761488122304075000,2.757074951171875,-0.37233495712280273,0.4774746894836426,0.07774734497070312
1761488122320912100,2.773912109375,-0.3404059410095215,0.450974702835083,0.5810947418212891
1761488122337741600,2.790741455078125,-0.35648345947265625,0.42287373542785645,1.1507563591003418
1761488122354563300,2.807563232421875,-0.2119736671447754,0.4412449598312378,1.6390113830566406
1761488122371391700,2.824391845703125,-0.2304830551147461,0.487748384475708,1.9737176895141602
1761488122388194800,2.84119482421875,-0.15435361862182617,-0.17341017723083496,2.761202812194824
1761488122405049000,2.858049072265625,0.007955551147460938,-1.1472744941711426,2.930975914001465
1761488122421872600,2.87487255859375,0.7021985054016113,-0.9253576993942261,2.203171730041504
1761488122438692900,2.89169287109375,1.3723430633544922,-0.4727133512496948,1.7637758255004883
1761488122455510800,2.9085107421875,1.3183608055114746,-0.13595890998840332,1.3426237106323242
1761488122472345900,2.925345947265625,0.9417433738708496,0.1687932014465332,0.7467460632324219
1761488122489159400,2.942159423828125,0.5780563354492188,-0.10045921802520752,0.41075992584228516
1761488122505990700,2.95899072265625,0.47642040252685547,-0.38160693645477295,0.018276214599609375
1761488122522810400,2.975810302734375,0.8049225807189941,-0.45164334774017334,-0.2709174156188965
1761488122539634000,2.992634033203125,1.2257981300354004,-0.5568450689315796,-0.1754016876220703
1761488122556436700,3.009436767578125,1.5282278060913086,-0.5742051601409912,0.1371755599975586
1761488122573284600,3.02628466796875,1.4370145797729492,-0.38668763637542725,0.4415264129638672
1761488122590092300,3.04309228515625,1.0320734977722168,-0.053313493728637695,0.6056585311889648
1761488122606928600,3.0599287109375,0.3574090003967285,0.26022934913635254,0.5968198776245117
1761488122623750100,3.076750244140625,-0.31241416931152344,0.42650848627090454,0.2615537643432617
1761488122640557600,3.0935576171875,-0.7482471466064453,0.4628373384475708,-0.40788936614990234
1761488122657384400,3.110384521484375,-0.7447023391723633,0.44451117515563965,-1.1164937019348145
1761488122674208500,3.12720849609375,-0.5567226409912109,0.2774577736854553,-1.5886173248291016
1761488122691031300,3.14403125,-0.3758878707885742,-0.05124765634536743,-1.7435202598571777
1761488122707856000,3.16085595703125,-0.4499650001525879,-0.34717226028442383,-1.7672715187072754
1761488122724689200,3.177689208984375,-0.7263493537902832,-0.6263514757156372,-1.6893949508666992
1761488122741517000,3.19451708984375,-1.0604009628295898,-0.8685998916625977,-1.521186351776123
1761488122758342100,3.211342041015625,-1.2748122215270996,-1.0732691287994385,-1.3959627151489258
1761488122775163100,3.2281630859375,-1.2325663566589355,-1.222489595413208,-1.2209959030151367
1761488122791969000,3.244968994140625,-0.9416384696960449,-1.3246970176696777,-0.9623289108276367
1761488122808786200,3.2617861328125,-0.575981616973877,-1.413795828819275,-0.7614750862121582
1761488122825619000,3.278618896484375,-0.28165245056152344,-1.534999132156372,-0.5689077377319336
1761488122842442500,3.2954423828125,-0.08613109588623047,-1.8237743377685547,-0.21704578399658203
1761488122859266000,3.31226611328125,0.11178207397460938,-2.128722667694092,0.13004684448242188
1761488122876089900,3.32908984375,0.3439340591430664,-2.2746596336364746,0.4124727249145508
1761488122892909300,3.345909423828125,0.5339250564575195,-2.200575113296509,0.5041990280151367
1761488122909734700,3.362734619140625,0.6735167503356934,-1.971465826034546,0.3535652160644531
1761488122926557700,3.3795576171875,0.7245082855224609,-1.5744895935058594,0.0655813217163086
1761488122943380700,3.396380615234375,0.7599859237670898,-1.9212852716445923,0.4507865905761719
1761488122960207400,3.413207275390625,0.5198440551757812,-2.3950035572052,0.5206708908081055
1761488122977030400,3.430030517578125,0.7492356300354004,-1.7316350936889648,-0.085418701171875
1761488122993853700,3.446853759765625,0.8249740600585938,-0.7280435562133789,-0.5508365631103516
1761488123010675000,3.463675048828125,0.4560050964355469,-0.08141523599624634,-0.7100410461425781
1761488123027490300,3.480490234375,-0.03453493118286133,-0.392193078994751,-0.611577033996582
1761488123044324400,3.497324462890625,-0.35968685150146484,-0.9077274799346924,-0.7488088607788086
1761488123061163800,3.514163818359375,-0.017332077026367188,-1.3639333248138428,-0.6668581962585449
1761488123077959700,3.530959716796875,0.42592954635620117,-1.7110159397125244,-0.20479202270507812
1761488123094808300,3.547808349609375,0.7244386672973633,-1.8789219856262207,0.2767524719238281
1761488123111628000,3.5646279296875,0.7150139808654785,-1.6565163135528564,0.23389434814453125
1761488123128442400,3.5814423828125,0.3979368209838867,-1.2131757736206055,-0.18129730224609375
1761488123145255200,3.598255126953125,-0.0226287841796875,-0.8334051966667175,-0.5781822204589844
1761488123162088700,3.615088623046875,-0.34481334686279297,-0.6658801436424255,-0.7891993522644043
1761488123178911700,3.631911865234375,-0.4063749313354492,-0.6161625981330872,-0.8984708786010742
1761488123195735600,3.648735595703125,-0.1797943115234375,-0.5002137422561646,-0.9333620071411133
1761488123212559400,3.665559326171875,-0.01642465591430664,-0.3209010362625122,-0.9014434814453125
1761488123229382400,3.68238232421875,-0.1324939727783203,-0.07363319396972656,-0.8801450729370117
1761488123246212600,3.699212646484375,-0.4781341552734375,0.20273149013519287,-0.8896360397338867
1761488123263050500,3.716050537109375,-0.7292194366455078,0.46403050422668457,-0.9234218597412109
1761488123279860700,3.73286083984375,-0.8006048202514648,0.719741702079773,-0.877835750579834
1761488123296676000,3.749676025390625,-0.6841368675231934,0.9267261028289795,-0.8566226959228516
1761488123313496600,3.76649658203125,-0.5056290626525879,1.1125731468200684,-0.8951959609985352
1761488123330326300,3.783326171875,-0.3642282485961914,1.1740386486053467,-0.8747062683105469
1761488123347147000,3.80014697265625,-0.2615790367126465,1.0817021131515503,-0.7652440071105957
1761488123363970000,3.816969970703125,-0.1404271125793457,0.7861353158950806,-0.5476117134094238
1761488123380797200,3.833797119140625,0.102813720703125,0.3577728271484375,-0.22722148895263672
1761488123397627100,3.850627197265625,0.5434045791625977,-0.01779031753540039,0.08426666259765625
1761488123414458600,3.867458740234375,0.9737286567687988,-0.25135159492492676,0.3820199966430664
1761488123431277800,3.88427783203125,1.2578954696655273,-0.31976318359375,0.6938304901123047
1761488123448101600,3.9011015625,1.1264567375183105,-0.2283235788345337,0.8522195816040039
1761488123464924700,3.917924560546875,0.9549264907836914,-0.6672768592834473,1.3392314910888672
1761488123481735400,3.9347353515625,0.9568204879760742,-1.4155064821243286,1.653721809387207
1761488123498567400,3.9515673828125,1.524369239807129,-1.4175394773483276,1.5519733428955078
1761488123515399400,3.9683994140625,2.1505885124206543,-0.8864266872406006,1.1875181198120117
1761488123532184600,3.9851845703125,2.4347281455993652,-0.2708233594894409,0.6824817657470703
1761488123549038600,4.00203857421875,2.219371795654297,-0.031071782112121582,0.21738624572753906
1761488123565869000,4.018869140625,1.8530774116516113,-0.37049543857574463,-0.2071981430053711
1761488123582688800,4.035688720703125,1.61419677734375,-0.7764228582382202,-0.5851821899414062
1761488123599503600,4.052503662109375,1.6672182083129883,-1.233009934425354,-0.6506171226501465
1761488123616314600,4.069314697265625,1.7869057655334473,-1.606497883796692,-0.5237436294555664
1761488123633145600,4.0861455078125,1.9687776565551758,-1.7227472066879272,-0.45902252197265625
1761488123649956000,4.1029560546875,2.1066064834594727,-1.5715067386627197,-0.34609031677246094
1761488123666789400,4.119789306640625,1.9882535934448242,-1.2670477628707886,-0.29873180389404297
1761488123683619600,4.13661962890625,1.6021003723144531,-0.850915789604187,-0.4080314636230469
1761488123700439300,4.153439208984375,1.1317992210388184,-0.501396656036377,-0.7400779724121094
1761488123717280500,4.170280517578125,0.8713259696960449,-0.2015700340270996,-1.2106895446777344
1761488123734086400,4.18708642578125,0.819612979888916,-0.019452333450317383,-1.6322603225708008
1761488123750920400,4.20392041015625,0.8939056396484375,0.004809379577636719,-1.982290267944336
1761488123767751200,4.220751220703125,0.9716453552246094,-0.05993974208831787,-2.18741512298584
1761488123784553500,4.237553466796875,0.9774236679077148,-0.1732184886932373,-2.264324188232422
1761488123801380400,4.25438037109375,0.8333439826965332,-0.33701157569885254,-2.099675178527832
1761488123818191400,4.27119140625,0.5213127136230469,-0.5320264101028442,-1.8412790298461914
1761488123835027200,4.288027099609375,0.0564723014831543,-0.7511376142501831,-1.5842781066894531
1761488123851851000,4.30485107421875,-0.23174810409545898,-0.9565994739532471,-1.4325590133666992
1761488123868674300,4.32167431640625,-0.2592754364013672,-1.1750643253326416,-1.215677261352539
1761488123885507800,4.3385078125,-0.08393621444702148,-1.418137788772583,-0.8835067749023438
1761488123902342100,4.355342041015625,0.17576837539672852,-1.6028295755386353,-0.6134853363037109
1761488123919158500,4.372158447265625,0.29793739318847656,-1.7685097455978394,-0.4780254364013672
1761488123935981800,4.38898193359375,0.4129610061645508,-2.0149643421173096,-0.3498659133911133
1761488123952806000,4.405805908203125,0.6437573432922363,-2.284595489501953,-0.1339588165283203
1761488123969625000,4.422625,0.897031307220459,-2.490250825881958,0.06376838684082031
1761488123986465500,4.439465576171875,1.1036128997802734,-2.448042869567871,-0.06052207946777344
1761488124003263000,4.456262939453125,1.3078241348266602,-2.643342971801758,0.20966815948486328
1761488124020107500,4.473107421875,1.2660202980041504,-3.414998769760132,0.7819919586181641
1761488124036944400,4.4899443359375,1.38848876953125,-3.2230730056762695,0.3498506546020508
1761488124053738000,4.506738037109375,1.7591900825500488,-1.9631671905517578,-0.8554515838623047
1761488124070562800,4.523562744140625,1.7627573013305664,-0.7510591745376587,-1.708773136138916
1761488124087393300,4.540393310546875,1.3802704811096191,-0.6422135829925537,-1.7093267440795898
1761488124104185900,4.557185791015625,1.1907215118408203,-1.3601471185684204,-1.5119409561157227
1761488124121028900,4.57402880859375,1.2891240119934082,-2.0631139278411865,-1.431269645690918
1761488124137849900,4.590849853515625,1.6998639106750488,-2.726426124572754,-1.1228041648864746
1761488124154673700,4.607673583984375,1.8408279418945312,-3.0969014167785645,-0.6689052581787109
1761488124171486700,4.62448681640625,1.5611701011657715,-3.1020963191986084,-0.4954195022583008
1761488124188317000,4.64131689453125,0.9279651641845703,-2.653303623199463,-0.7872743606567383
1761488124205128200,4.658128173828125,0.3674039840698242,-2.108738422393799,-1.1436395645141602
1761488124221981000,4.67498095703125,0.161529541015625,-1.6338008642196655,-1.542365550994873
1761488124238808300,4.691808349609375,0.2664775848388672,-1.3874189853668213,-1.6603941917419434
1761488124255655400,4.708655517578125,0.5544228553771973,-1.2809555530548096,-1.4897246360778809
1761488124272434200,4.72543408203125,0.760225772857666,-1.121077537536621,-1.1478395462036133
1761488124289261600,4.742261474609375,0.7027301788330078,-0.7990676164627075,-0.8182468414306641
1761488124306084400,4.75908447265625,0.2769484519958496,-0.40326738357543945,-0.5266523361206055
1761488124322908200,4.775908203125,-0.18814849853515625,-0.001024484634399414,-0.40723705291748047
1761488124339731700,4.792731689453125,-0.411069393157959,0.34097325801849365,-0.4181184768676758
1761488124356555300,4.80955517578125,-0.24620580673217773,0.5985915660858154,-0.5220613479614258
1761488124373391600,4.8263916015625,0.2201251983642578,0.7832722663879395,-0.6745080947875977
1761488124390219800,4.8432197265625,0.6431539058685303,0.9508562088012695,-0.7476568222045898
1761488124407039000,4.8600390625,0.7000603675842285,1.0978004932403564,-0.8547086715698242
1761488124423870500,4.876870361328125,0.575329065322876,1.2402405738830566,-0.8311147689819336
1761488124440685600,4.893685546875,0.5143499374389648,1.092146873474121,-0.48198509216308594
1761488124457510000,4.910510009765625,0.594271183013916,0.7876003980636597,-0.07957839965820312
1761488124474316500,4.927316650390625,0.8373501300811768,0.4612562656402588,0.1324920654296875
1761488124491142700,4.944142578125,1.2254281044006348,0.31400060653686523,0.14118003845214844
1761488124507983400,4.9609833984375,1.7855525016784668,0.3169987201690674,0.14607906341552734
1761488124524786700,4.97778662109375,2.177431106567383,0.33272647857666016,0.2786989212036133
1761488124541623000,4.994623046875,2.243530511856079,0.307511568069458,0.44870471954345703
1761488124558455000,5.011455078125,2.0812692642211914,0.10609900951385498,0.648162841796875
1761488124575269000,5.02826904296875,1.8920838832855225,-0.5115883350372314,0.8546543121337891
1761488124592084200,5.045084228515625,2.2480945587158203,-0.8656291961669922,0.8105354309082031
1761488124608907000,5.061906982421875,3.1657137870788574,-0.6990673542022705,0.4943580627441406
1761488124625730600,5.07873046875,3.9983696937561035,-0.1630113124847412,-0.08796501159667969
1761488124642553900,5.095553955078125,4.176126003265381,0.3973287343978882,-0.9704961776733398
1761488124659377400,5.11237744140625,3.715876579284668,0.6964856386184692,-1.8762364387512207
1761488124676201000,5.129200927734375,3.1253509521484375,0.5040082931518555,-2.3733978271484375
1761488124693042000,5.1460419921875,2.511315107345581,0.001983165740966797,-2.5405893325805664
1761488124709861000,5.162861083984375,2.410886526107788,-0.549694299697876,-2.5638437271118164
1761488124726685200,5.179685302734375,2.860574960708618,-1.160372018814087,-2.4055986404418945
1761488124743505200,5.196505126953125,3.6033241748809814,-1.5190706253051758,-2.2256898880004883
1761488124760319000,5.213319091796875,4.20316219329834,-1.4325282573699951,-2.115931510925293
1761488124777141500,5.2301416015625,4.315164566040039,-1.0196545124053955,-1.958481788635254
1761488124793965300,5.24696533203125,4.079089164733887,-0.49718141555786133,-1.856081485748291
1761488124810775600,5.263775634765625,3.6507060527801514,-0.1010441780090332,-1.8826284408569336
1761488124827612400,5.2806123046875,3.1623711585998535,0.1342761516571045,-1.9866352081298828
1761488124844435500,5.297435546875,2.7625954151153564,0.19718265533447266,-2.0476861000061035
1761488124861276200,5.314276123046875,2.735858201980591,0.09849691390991211,-2.064455032348633
1761488124878085600,5.331085693359375,2.67767596244812,-0.025609731674194336,-2.0758166313171387
1761488124894923800,5.347923828125,2.483489513397217,-0.11721277236938477,-2.073179244995117
1761488124911742700,5.36474267578125,2.082829236984253,-0.14719486236572266,-1.994725227355957
1761488124928566800,5.38156689453125,1.6290504932403564,-0.19414162635803223,-1.9605865478515625
1761488124945369900,5.398369873046875,1.2706031799316406,-0.23871946334838867,-1.886763572692871
1761488124962211800,5.4152119140625,1.2219812870025635,-0.2790045738220215,-1.7556118965148926
1761488124979043000,5.43204296875,1.4856135845184326,-0.24807429313659668,-1.6290459632873535
1761488124995860700,5.44886083984375,1.942854404449463,-0.21759653091430664,-1.4419326782226562
1761488125012683800,5.465683837890625,2.3764524459838867,-0.2836005687713623,-1.1060066223144531
1761488125029503700,5.482503662109375,2.3232433795928955,-0.4442713260650635,-0.621056079864502
1761488125046335000,5.4993349609375,2.2817065715789795,-0.6163153648376465,-0.22175121307373047
1761488125063151000,5.516151123046875,2.3200790882110596,-0.6712808609008789,0.102630615234375
1761488125079964700,5.532964599609375,2.264256238937378,-0.7726032733917236,0.4189605712890625
1761488125096788000,5.5497880859375,2.249354124069214,-0.7710690498352051,0.5394229888916016
1761488125113610800,5.56661083984375,2.3495612144470215,-1.127354383468628,0.9674930572509766
1761488125130422800,5.5834228515625,2.260838031768799,-1.7010421752929688,1.215622901916504
1761488125147258000,5.600258056640625,2.3668932914733887,-1.3364078998565674,0.46735382080078125
1761488125164082200,5.617082275390625,2.8903443813323975,-0.09738349914550781,-0.8797578811645508
1761488125180922000,5.633922119140625,2.94927716255188,0.777090311050415,-1.820810317993164
1761488125197739300,5.6507392578125,2.5252645015716553,0.7314457893371582,-2.171929359436035
1761488125214568700,5.667568603515625,1.9979357719421387,0.0899810791015625,-2.1827526092529297
1761488125231373300,5.684373291015625,1.6671767234802246,-0.5186300277709961,-2.2267637252807617
1761488125248206300,5.701206298828125,1.73026704788208,-1.027493953704834,-1.90061616897583
1761488125265025000,5.71802490234375,1.6457233428955078,-1.8253130912780762,-1.0914316177368164
1761488125281845800,5.734845703125,1.3078689575195312,-2.401026725769043,-0.41301441192626953
1761488125298669800,5.751669921875,1.084136962890625,-2.1524550914764404,-0.5912551879882812
1761488125315492600,5.76849267578125,0.8085646629333496,-1.4663643836975098,-1.278524398803711
1761488125332320000,5.785320068359375,0.5079197883605957,-1.081470251083374,-1.7807941436767578
1761488125349143000,5.80214306640625,0.29366111755371094,-0.9532389640808105,-2.027526378631592
1761488125365980200,5.818980224609375,0.23613929748535156,-0.8980302810668945,-2.066657066345215
1761488125382776000,5.835776123046875,0.26351356506347656,-0.8255369663238525,-1.8941717147827148
1761488125399595300,5.85259521484375,0.2553720474243164,-0.7519369125366211,-1.6677422523498535
1761488125416447000,5.869447021484375,0.13652324676513672,-0.6146805286407471,-1.4466347694396973
1761488125433271300,5.886271240234375,-0.1656937599182129,-0.38860273361206055,-1.2997570037841797
1761488125450090800,5.9030908203125,-0.5300235748291016,-0.10370850563049316,-1.2891716957092285
1761488125466920700,5.919920654296875,-0.7405223846435547,0.19127190113067627,-1.3374519348144531
1761488125483768800,5.936768798828125,-0.7160196304321289,0.3245081901550293,-1.3043155670166016
1761488125500565500,5.9535654296875,-0.640418529510498,0.2792806625366211,-1.2071032524108887
1761488125517384200,5.97038427734375,-0.5644645690917969,0.23980772495269775,-1.1340951919555664
1761488125534215200,5.987215087890625,-0.44492435455322266,0.3578934669494629,-1.1506657600402832
1761488125551016700,6.0040166015625,-0.2618422508239746,0.4656038284301758,-1.1325006484985352
1761488125567844900,6.020844970703125,-0.08059263229370117,0.4082033634185791,-0.9520196914672852
1761488125584651000,6.037651123046875,0.03982210159301758,0.32202279567718506,-0.694849967956543
1761488125601491500,6.054491455078125,0.3065800666809082,0.30457544326782227,-0.4202423095703125
1761488125618315000,6.07131494140625,0.7281365394592285,0.3969632387161255,-0.07360363006591797
1761488125635125800,6.088125732421875,1.2661418914794922,0.4647376537322998,0.39945030212402344
1761488125651961600,6.104961669921875,1.8222575187683105,0.026675939559936523,1.2055244445800781
1761488125668802600,6.121802490234375,2.4050869941711426,-0.9516723155975342,1.804530143737793
1761488125685596000,6.138595947265625,2.8625035285949707,-1.2067136764526367,1.8225622177124023
1761488125702446600,6.155446533203125,3.555352210998535,-0.4130873680114746,1.3533143997192383
1761488125719271000,6.17227099609375,3.801522731781006,0.3853750228881836,0.8025598526000977
1761488125736091600,6.189091552734375,3.246915340423584,0.8048105239868164,0.1936321258544922
1761488125752899600,6.205899658203125,2.376376152038574,1.1723756790161133,-0.5299582481384277
1761488125769726500,6.2227265625,1.9292254447937012,1.1528823375701904,-1.0979619026184082
1761488125786549500,6.239549560546875,1.7522311210632324,0.731727123260498,-1.3444890975952148
1761488125803365600,6.25636572265625,1.8030519485473633,0.12328839302062988,-1.3071956634521484
1761488125820192800,6.27319287109375,2.0027875900268555,-0.35538625717163086,-1.20751953125
1761488125837020400,6.2900205078125,2.09737491607666,-0.4596412181854248,-1.1339964866638184
1761488125853860000,6.306860107421875,1.984518051147461,-0.13521194458007812,-1.021428108215332
1761488125870667300,6.323667236328125,1.5505285263061523,0.3026301860809326,-0.8764896392822266
1761488125887487700,6.34048779296875,0.9834733009338379,0.6132485866546631,-0.9149165153503418
1761488125904333600,6.35733349609375,0.5222139358520508,0.771575927734375,-1.1382155418395996
1761488125921140200,6.37414013671875,0.1147608757019043,0.8020968437194824,-1.3962593078613281
1761488125937963300,6.39096337890625,-0.12463998794555664,0.7890653610229492,-1.6206588745117188
1761488125954797800,6.4077978515625,-0.19463539123535156,0.6850804090499878,-1.7241086959838867
1761488125971622000,6.424621826171875,-0.31449270248413086,0.503385066986084,-1.6072368621826172
1761488125988440600,6.441440673828125,-0.4376964569091797,0.3294649124145508,-1.4438652992248535
1761488126005258000,6.458258056640625,-0.5530304908752441,0.19841575622558594,-1.2928276062011719
1761488126022092000,6.475092041015625,-0.6957693099975586,0.13504385948181152,-1.1421985626220703
1761488126038915600,6.49191552734375,-0.7259159088134766,0.10862588882446289,-0.9958181381225586
1761488126055721500,6.508721435546875,-0.6012115478515625,0.14380764961242676,-0.8212652206420898
1761488126072548900,6.525548828125,-0.43250322341918945,0.2051074504852295,-0.6156249046325684
1761488126089372400,6.542372314453125,-0.2971949577331543,0.2051379680633545,-0.4355893135070801
1761488126106179800,6.559179931640625,-0.2315526008605957,0.04167008399963379,-0.12455368041992188
1761488126123022300,6.576022216796875,-0.16453933715820312,-0.37087416648864746,0.2581043243408203
1761488126139842600,6.592842529296875,0.06827116012573242,-0.7741258144378662,0.5714015960693359
1761488126156683000,6.60968310546875,0.30834197998046875,-1.0765562057495117,0.885505199432373
1761488126173503500,6.62650341796875,0.5146079063415527,-1.2442774772644043,1.077986240386963
1761488126190326300,6.643326171875,0.6889262199401855,-1.2971529960632324,1.3357372283935547
1761488126207140600,6.660140625,0.7825021743774414,-2.05545711517334,1.9379911422729492
1761488126223973600,6.6769736328125,0.6598024368286133,-2.4433746337890625,2.0369224548339844
1761488126240780000,6.693780029296875,1.0722160339355469,-1.6467645168304443,1.3757085800170898
1761488126257606700,6.710606689453125,1.6424965858459473,-0.12213635444641113,0.4058828353881836
1761488126274430500,6.727430419921875,1.3074684143066406,1.4562599658966064,-0.5680761337280273
1761488126291252200,6.744252197265625,1.1632623672485352,2.3532912731170654,-1.5741219520568848
1761488126308078800,6.761078857421875,0.5640125274658203,2.1011645793914795,-2.0365920066833496
1761488126324900600,6.777900634765625,0.22306013107299805,1.0318171977996826,-1.812016487121582
1761488126341741300,6.7947412109375,0.45655345916748047,-0.16793465614318848,-1.2072014808654785
1761488126358561500,6.8115615234375,0.9094829559326172,-1.3305516242980957,-0.2643585205078125
1761488126375384800,6.828384765625,1.2986278533935547,-2.085493564605713,0.5808963775634766
1761488126392204300,6.845204345703125,1.7043232917785645,-2.102283239364624,0.9171504974365234
1761488126409035800,6.862035888671875,1.856400966644287,-1.5600440502166748,0.624018669128418
1761488126425855700,6.878855712890625,1.493917465209961,-1.0351943969726562,0.08927249908447266
1761488126442679000,6.895678955078125,0.8473658561706543,-0.7773294448852539,-0.4270191192626953
1761488126459498200,6.912498291015625,0.31052064895629883,-0.5910835266113281,-0.890528678894043
1761488126476329700,6.929329833984375,0.07623481750488281,-0.44313740730285645,-1.3437004089355469
1761488126493149200,6.946149169921875,0.2089381217956543,-0.25733232498168945,-1.5519671440124512
1761488126509973200,6.96297314453125,0.3701920509338379,0.028307437896728516,-1.4921865463256836
1761488126526792200,6.979792236328125,0.28545570373535156,0.44558119773864746,-1.3891668319702148
1761488126543606300,6.996606201171875,0.01755046844482422,0.9365851879119873,-1.4392046928405762
1761488126560429000,7.013428955078125,-0.3680744171142578,1.3689310550689697,-1.651890754699707
1761488126577253000,7.030253173828125,-0.6341028213500977,1.6465703248977661,-1.8998308181762695
1761488126594076200,7.047076171875,-0.7269949913024902,1.6846797466278076,-1.9796805381774902
1761488126610899500,7.0638994140625,-0.6083650588989258,1.579404592514038,-1.7305569648742676
1761488126627723300,7.08072314453125,-0.2749295234680176,1.5025278329849243,-1.3015727996826172
1761488126644569600,7.097569580078125,0.2450084686279297,1.3112130165100098,-0.8388991355895996
1761488126661378300,7.11437841796875,0.8299527168273926,1.0879610776901245,-0.43170166015625
1761488126678206200,7.131206298828125,1.3884162902832031,0.9168667793273926,-0.0052204132080078125
1761488126695034000,7.1480341796875,1.8192791938781738,0.7437548637390137,0.5472836494445801
1761488126711851500,7.1648515625,1.999176025390625,0.65343177318573,0.9473457336425781
1761488126728660700,7.18166064453125,1.85233736038208,0.8055241107940674,1.092299461364746
1761488126745471000,7.198470947265625,1.4785957336425781,0.5864906311035156,1.5944547653198242
1761488126762300000,7.2152998046875,1.0137114524841309,-0.2683579921722412,1.7236418724060059
1761488126779136000,7.232135986328125,1.3625807762145996,-0.3828086853027344,1.0283584594726562
1761488126795957500,7.24895751953125,2.236400604248047,0.2792091369628906,0.20649003982543945
1761488126812781300,7.26578125,2.5465240478515625,0.8540215492248535,-0.25974607467651367
1761488126829617700,7.28261767578125,2.3173155784606934,0.9468014240264893,-0.32480955123901367
1761488126846446600,7.299446533203125,1.9006571769714355,0.5811550617218018,-0.5113406181335449
1761488126863264800,7.3162646484375,1.5259952545166016,0.2551722526550293,-0.8867688179016113
1761488126880089000,7.333089111328125,1.213846206665039,0.09696483612060547,-1.0099830627441406
1761488126896899300,7.3498994140625,1.0329456329345703,-0.21106791496276855,-0.8577804565429688
1761488126913742800,7.366742919921875,1.0696024894714355,-0.28962111473083496,-0.6475043296813965
1761488126930542800,7.38354296875,1.2599563598632812,-0.040654897689819336,-0.4626598358154297
1761488126947382500,7.400382568359375,1.0694451332092285,0.24802231788635254,-0.20751094818115234
1761488126964202200,7.4172021484375,0.520904541015625,0.5212008953094482,-0.11754560470581055
1761488126981034000,7.434033935546875,-0.12946748733520508,0.7415775060653687,-0.4525141716003418
1761488126997853400,7.450853515625,-0.6277451515197754,0.8665618896484375,-0.9609055519104004
1761488127014676500,7.467676513671875,-0.8225598335266113,0.9505479335784912,-1.5447182655334473
1761488127031483000,7.48448291015625,-0.7998185157775879,0.908820629119873,-2.1247429847717285
1761488127048309800,7.501309814453125,-0.7957053184509277,0.774817705154419,-2.4526538848876953
1761488127065133300,7.51813330078125,-0.6989564895629883,0.5915110111236572,-2.4249935150146484
1761488127081956600,7.53495654296875,-0.47245359420776367,0.23591363430023193,-2.1938395500183105
1761488127098767000,7.55176708984375,-0.3292665481567383,-0.03524279594421387,-1.907426357269287
1761488127115604500,7.5686044921875,-0.19739580154418945,-0.15326952934265137,-1.5698790550231934
1761488127132439000,7.58543896484375,0.06260108947753906,-0.21201133728027344,-1.3292951583862305
1761488127149264100,7.60226416015625,0.5708751678466797,-0.16121912002563477,-1.0650897026062012
1761488127166092000,7.619092041015625,1.146132469177246,0.04769754409790039,-0.3375124931335449
1761488127182911000,7.635910888671875,1.7083868980407715,0.011513471603393555,0.8374290466308594
1761488127199734300,7.652734375,1.8647146224975586,-0.3031430244445801,1.923797607421875
1761488127216555000,7.669554931640625,1.7939214706420898,-0.38564419746398926,2.2077627182006836
1761488127233364500,7.686364501953125,1.898590087890625,-0.19599294662475586,1.8714141845703125
1761488127250194700,7.703194580078125,1.8685784339904785,-0.04554271697998047,1.5795130729675293
1761488127267014700,7.7200146484375,1.491224765777588,-0.7604444026947021,2.169858455657959
1761488127283838200,7.736838134765625,0.996009349822998,-1.5860826969146729,2.2866172790527344
1761488127300658400,7.753658447265625,1.1212120056152344,-1.2922747135162354,1.3820319175720215
1761488127317492500,7.770492431640625,1.5730390548706055,0.0330580472946167,0.028408050537109375
1761488127334322200,7.787322265625,1.5693426132202148,0.9942384958267212,-0.9201202392578125
1761488127351131600,7.804131591796875,0.7406988143920898,1.1014450788497925,-1.2175469398498535
1761488127367968800,7.82096875,-0.3161964416503906,0.41659092903137207,-1.1323347091674805
1761488127384789000,7.8377890625,-1.0372967720031738,-0.3182394504547119,-1.2691354751586914
1761488127401620000,7.854619873046875,-1.2143640518188477,-0.9455699920654297,-1.3247623443603516
1761488127418435300,7.871435302734375,-1.1954269409179688,-1.5067949295043945,-0.8814692497253418
1761488127435268600,7.8882685546875,-1.242295265197754,-1.8401204347610474,-0.3727273941040039
1761488127452077800,7.905077880859375,-1.151102066040039,-1.7271181344985962,-0.20634174346923828
1761488127468898300,7.921898193359375,-1.0495367050170898,-1.3592344522476196,-0.464846134185791
1761488127485733000,7.938733154296875,-1.1180214881896973,-1.114512324333191,-0.8842058181762695
1761488127502579200,7.9555791015625,-1.1192703247070312,-1.123189091682434,-1.3088865280151367
1761488127519363600,7.972363525390625,-1.1455020904541016,-1.195672869682312,-1.646623134613037
1761488127536190200,7.989190185546875,-1.2076926231384277,-1.2403939962387085,-1.8575973510742188
1761488127553013800,8.006013671875,-1.250173568725586,-1.0900132656097412,-2.0217576026916504
1761488127569837000,8.022837158203124,-1.1772871017456055,-0.7897024154663086,-1.943159580230713
1761488127586648000,8.03964794921875,-1.1788196563720703,-0.5079934597015381,-1.7553768157958984
1761488127603474000,8.056473876953126,-1.2144007682800293,-0.17510485649108887,-1.6673054695129395
1761488127620324900,8.073324951171875,-1.1970834732055664,0.22515380382537842,-1.6773967742919922
1761488127637144600,8.09014453125,-1.0099549293518066,0.5935022234916687,-1.5012602806091309
1761488127653968000,8.1069677734375,-0.8111953735351562,0.8475164175033569,-1.2473607063293457
1761488127670762500,8.123762451171874,-0.6191978454589844,1.065905213356018,-0.9842095375061035
1761488127687614700,8.14061474609375,-0.340939998626709,1.2561701536178589,-0.6028919219970703
1761488127704438300,8.157438232421875,0.15722417831420898,1.3331577777862549,-0.09153413772583008
1761488127721245000,8.174244873046876,0.6395878791809082,1.2567706108093262,0.4558887481689453
1761488127738071300,8.1910712890625,1.1225428581237793,1.0784178972244263,0.983978271484375
1761488127754891000,8.20789111328125,1.598689079284668,1.0692198276519775,1.1900529861450195
1761488127771711500,8.22471142578125,2.0983095169067383,1.2044391632080078,1.2807302474975586
1761488127788547300,8.24154736328125,2.4525914192199707,1.1772561073303223,1.597808837890625
1761488127805365200,8.258365234375,2.1819705963134766,0.2800419330596924,2.4329771995544434
1761488127822185500,8.275185546875,1.887594223022461,-0.27281999588012695,2.173157215118408
1761488127839030000,8.292030029296875,2.339362144470215,0.5803468227386475,1.209993839263916
1761488127855849700,8.308849609375,2.785226345062256,1.1861615180969238,0.8399724960327148
1761488127872668700,8.325668701171875,2.5918359756469727,1.2687186002731323,0.8141984939575195
1761488127889507300,8.34250732421875,2.23024845123291,1.1562317609786987,0.7679109573364258
1761488127906320000,8.35931982421875,1.7237133979797363,0.7584967613220215,0.3169107437133789
1761488127923143700,8.376143798828124,1.2647628784179688,0.5728752613067627,-0.3976860046386719
1761488127939966700,8.392966796875,0.9947957992553711,0.40408146381378174,-0.6310477256774902
1761488127956790000,8.4097900390625,0.9817118644714355,-0.0007429122924804688,-0.35469961166381836
1761488127973629400,8.42662939453125,1.2338485717773438,-0.1933591365814209,-0.0682368278503418
1761488127990437400,8.443437255859376,1.3986339569091797,0.021305561065673828,0.19901609420776367
1761488128007243300,8.4602431640625,1.211611270904541,0.33216559886932373,0.31330299377441406
1761488128024070400,8.4770703125,0.6935944557189941,0.5534060001373291,0.2060871124267578
1761488128040881000,8.493880859375,0.1551361083984375,0.7127617597579956,-0.28322458267211914
1761488128057717800,8.5107177734375,-0.3660159111022949,0.8317265510559082,-0.9647631645202637
1761488128074537500,8.527537353515624,-0.903052806854248,0.9313346147537231,-1.5998058319091797
1761488128091367700,8.54436767578125,-1.0599007606506348,0.8893461227416992,-1.925063133239746
1761488128108172500,8.561172607421875,-1.0905518531799316,0.6472100019454956,-1.9259438514709473
1761488128125030700,8.57803076171875,-0.9299345016479492,0.43255889415740967,-1.9098396301269531
1761488128141848000,8.59484814453125,-0.943549633026123,0.2690408229827881,-1.9756436347961426
1761488128158672000,8.611671875,-0.8405823707580566,0.2254955768585205,-2.005532741546631
1761488128175496000,8.628495849609376,-0.6374297142028809,0.2025545835494995,-1.8407464027404785
1761488128192318700,8.645318603515625,-0.33915185928344727,0.12720787525177002,-1.504751205444336
1761488128209124600,8.66212451171875,0.15488338470458984,0.06785178184509277,-0.998077392578125
1761488128225952000,8.678951904296875,0.6966986656188965,-0.0332411527633667,-0.33168697357177734
1761488128242775600,8.695775634765624,1.0129051208496094,-0.48682737350463867,0.5397977828979492
1761488128259599000,8.71259912109375,1.1423420906066895,-1.1178935766220093,1.274247646331787
1761488128276422100,8.729422119140626,1.3918375968933105,-1.5169264078140259,1.5062332153320312
1761488128293252000,8.746252197265624,1.5917339324951172,-1.6702123880386353,1.335805892944336
1761488128310087000,8.7630869140625,1.6049213409423828,-1.631874680519104,0.7559804916381836
1761488128326906600,8.77990673828125,1.4111714363098145,-1.5093984603881836,0.34299659729003906
1761488128343730200,8.796730224609375,0.7300758361816406,-2.0331618785858154,0.582024097442627
1761488128360551200,8.81355126953125,0.49295949935913086,-1.9146709442138672,0.20644235610961914
1761488128377379000,8.830379150390625,0.8526864051818848,-0.9605534076690674,-0.5504083633422852
1761488128394200800,8.847200927734375,1.3263773918151855,0.018088221549987793,-1.0191216468811035
1761488128411024000,8.86402392578125,1.1815433502197266,0.5207744836807251,-0.9339962005615234
1761488128427847000,8.880846923828125,0.37679338455200195,0.3096916675567627,-0.6017518043518066
1761488128444670700,8.897670654296874,-0.5725064277648926,-0.08538997173309326,-0.6644654273986816
1761488128461500700,8.914500732421875,-1.1597270965576172,-0.3295726776123047,-1.114799976348877
1761488128478294800,8.931294677734375,-1.345334529876709,-0.5801695585250854,-1.285682201385498
1761488128495123700,8.948123779296875,-1.055368423461914,-0.8973193168640137,-1.0678138732910156
1761488128511948500,8.964948486328124,-0.5257225036621094,-0.8906668424606323,-0.5439486503601074
1761488128528777200,8.981777099609374,-0.10985755920410156,-0.7506028413772583,0.007878303527832031
1761488128545597400,8.998597412109374,-0.3132967948913574,-0.44900989532470703,0.242523193359375
1761488128562421200,9.015421142578125,-0.40961170196533203,-0.3319103717803955,0.12812471389770508
1761488128579241200,9.0322412109375,-0.7873015403747559,-0.10411906242370605,-0.35976076126098633
1761488128596071700,9.04907177734375,-0.8768839836120605,0.08147311210632324,-0.9404940605163574
1761488128612891400,9.065891357421876,-0.6120920181274414,0.07029509544372559,-1.1736063957214355
1761488128629732400,9.082732421875,-0.6209087371826172,0.27648472785949707,-1.2014803886413574
1761488128646553000,9.099552978515625,-0.4944486618041992,0.5277173519134521,-1.0408382415771484
1761488128663375000,9.116375,-0.49464941024780273,0.7169679999351501,-0.7333889007568359
1761488128680199200,9.13319921875,-0.4987020492553711,0.8553149700164795,-0.6209578514099121
1761488128697005600,9.150005615234376,-0.434267520904541,1.0760923624038696,-0.8129696846008301
1761488128713835800,9.166835693359374,-0.3019733428955078,1.208213448524475,-1.0900263786315918
1761488128730653000,9.18365283203125,-0.04163646697998047,1.2150909900665283,-1.1802968978881836
1761488128747479000,9.20047900390625,0.21813488006591797,1.1397371292114258,-1.1866068840026855
1761488128764302600,9.217302490234376,0.5201406478881836,1.0915427207946777,-1.0813040733337402
1761488128781126100,9.234126220703125,0.6755175590515137,1.0151605606079102,-0.8923325538635254
1761488128797966800,9.250966796875,0.8668551445007324,0.8547388315200806,-0.5770177841186523
1761488128814787000,9.267787109375,0.8689160346984863,0.7025977373123169,-0.1502213478088379
1761488128831610400,9.2846103515625,1.0169963836669922,0.6833773851394653,0.20778131484985352
1761488128848419300,9.30141943359375,1.224116325378418,0.7296390533447266,0.652949333190918
1761488128865255400,9.31825537109375,1.1721596717834473,0.4623376131057739,1.5168156623840332
1761488128882080500,9.33508056640625,1.0246262550354004,-0.3138875961303711,1.9355950355529785
1761488128898904600,9.351904541015625,1.2683525085449219,-0.10189521312713623,1.1173515319824219
1761488128915724000,9.36872412109375,1.8238587379455566,0.3598957061767578,0.33014869689941406
1761488128932555300,9.38555517578125,2.1369781494140625,0.6616678237915039,-0.04573392868041992
1761488128949370400,9.402370361328124,1.960740089416504,0.7046796083450317,-0.13690805435180664
1761488128966201900,9.419201904296875,1.3897151947021484,0.2092735767364502,-0.2637758255004883
1761488128982993200,9.4359931640625,1.41251802444458,-0.0711207389831543,-0.7607607841491699
1761488128999828200,9.452828125,1.4489026069641113,-0.30371129512786865,-0.9785218238830566
1761488129016657000,9.469656982421874,0.9675612449645996,-0.5639669895172119,-0.4554133415222168
1761488129033478700,9.486478759765625,0.6413836479187012,-0.7498018741607666,0.40757226943969727
1761488129050303000,9.503302978515626,0.6469211578369141,-0.5549900531768799,0.9266495704650879
1761488129067123700,9.520123779296876,0.4646468162536621,-0.2170400619506836,1.0886354446411133
1761488129083947800,9.53694775390625,0.0896310806274414,0.07500600814819336,0.8115835189819336
1761488129100764700,9.5537646484375,-0.2974691390991211,0.3185771703720093,0.04640626907348633
1761488129117613000,9.570613037109375,-0.5726780891418457,0.5681276321411133,-0.8472428321838379
