time,seconds_elapsed,z,y,x
1761417638879529700,0.19352978515625,-3.4227685928344727,-0.9382082223892212,-1.522536277770996
1761417638896336600,0.210336669921875,-1.2835922241210938,0.9095494747161865,-3.0751891136169434
1761417638913157600,0.22715771484375,-0.12630748748779297,1.6151776313781738,-3.2142341136932373
1761417638929984500,0.243984619140625,0.9308691024780273,0.8889069557189941,-2.837080478668213
1761417638946813700,0.260813720703125,-0.34743785858154297,0.24705660343170166,-2.3325483798980713
1761417638963620600,0.27762060546875,-1.456118106842041,-0.7446123957633972,-2.2168216705322266
1761417638980452900,0.294452880859375,0.07627677917480469,-1.699004054069519,-1.3285489082336426
1761417638997269000,0.31126904296875,0.7736349105834961,-0.7538578510284424,-1.5648088455200195
1761417639014093300,0.32809326171875,1.6620922088623047,-0.0914604663848877,-1.6986398696899414
1761417639030923300,0.34492333984375,1.8272981643676758,-0.19244039058685303,-1.7937309741973877
1761417639047757800,0.3617578125,2.204853057861328,-0.41089653968811035,-1.6036710739135742
1761417639064540200,0.3785400390625,2.04801082611084,-0.19631460309028625,-1.8062291145324707
1761417639081400000,0.395400146484375,1.4102001190185547,0.05855435132980347,-1.7661709785461426
1761417639098246000,0.412245849609375,0.9197378158569336,-0.18842297792434692,-1.6659727096557617
1761417639115049000,0.429049072265625,1.7310619354248047,0.5006002187728882,-2.084226608276367
1761417639131872000,0.4458720703125,2.6160202026367188,0.693801760673523,-2.032632350921631
1761417639148696800,0.46269677734375,4.400021076202393,1.927068829536438,-1.5221176147460938
1761417639165520100,0.47952001953125,6.5097784996032715,2.3107075691223145,-0.5081157684326172
1761417639182345000,0.496344970703125,7.737157344818115,1.2629932165145874,1.143092155456543
1761417639199177200,0.51317724609375,8.096342086791992,0.7870731353759766,1.52647066116333
1761417639215976400,0.5299765625,7.839450359344482,1.4878612756729126,1.256411075592041
1761417639232815400,0.5468154296875,7.687164783477783,2.1815342903137207,0.8313040733337402
1761417639249640400,0.563640380859375,7.67759370803833,2.3098840713500977,1.1000332832336426
1761417639266451000,0.580450927734375,7.221847057342529,2.009549617767334,1.8608980178833008
1761417639283287000,0.597287109375,6.02863883972168,1.665659785270691,2.759370803833008
1761417639300109800,0.61410986328125,4.615705966949463,1.4757941961288452,3.35780668258667
1761417639316922600,0.630922607421875,2.839845657348633,1.7015767097473145,3.1811118125915527
1761417639333740500,0.647740478515625,1.987710952758789,2.5093023777008057,2.299257278442383
1761417639350576400,0.664576416015625,1.0169901847839355,1.8022880554199219,2.267052173614502
1761417639367377000,0.681376953125,0.11290454864501953,0.6971871256828308,2.5677313804626465
1761417639384218400,0.69821826171875,-0.21076011657714844,0.36461514234542847,2.255227565765381
1761417639401042000,0.7150419921875,-0.4398345947265625,0.030967116355895996,1.7417497634887695
1761417639417873000,0.731872802734375,-0.7361822128295898,-0.4913783669471741,1.2180452346801758
1761417639434686200,0.748686279296875,-0.9755182266235352,-0.9947903156280518,0.6978106498718262
1761417639451517400,0.765517333984375,-1.2008700370788574,-1.49576735496521,0.2533144950866699
1761417639468324600,0.78232470703125,-1.475926399230957,-1.9385937452316284,-0.10354804992675781
1761417639485179600,0.7991796875,-1.7311854362487793,-2.288673162460327,-0.45871925354003906
1761417639502021000,0.816021240234375,-2.3763766288757324,-2.6953444480895996,-0.7063307762145996
1761417639518811400,0.832811279296875,-2.889937400817871,-3.3542182445526123,-0.5783767700195312
1761417639535647200,0.849647216796875,-3.1786580085754395,-3.9299840927124023,-0.23494625091552734
1761417639552455700,0.86645556640625,-3.2569198608398438,-4.301454544067383,-0.08489847183227539
1761417639569290200,0.883290283203125,-3.1037917137145996,-4.4761552810668945,-0.037514686584472656
1761417639586124300,0.900124267578125,-3.0761656761169434,-4.876016616821289,0.21100902557373047
1761417639602943200,0.916943115234375,-3.031795024871826,-5.225335121154785,0.3914523124694824
1761417639619771400,0.933771484375,-2.9168014526367188,-4.828004837036133,0.21435117721557617
1761417639636587300,0.950587158203125,-3.0406136512756348,-4.871216773986816,0.28951215744018555
1761417639653416000,0.967416015625,-3.3620619773864746,-5.749205112457275,0.7680878639221191
1761417639670238700,0.98423876953125,-3.5596041679382324,-6.317361831665039,0.7783703804016113
1761417639687063600,1.0010634765625,-3.0701355934143066,-5.996001243591309,0.4329347610473633
1761417639703887000,1.01788720703125,-1.6137824058532715,-5.014110088348389,0.3698854446411133
1761417639720707300,1.034707275390625,-0.5020961761474609,-4.003120422363281,0.8947944641113281
1761417639737539000,1.0515390625,0.0687093734741211,-3.788163423538208,1.804631233215332
1761417639754345000,1.068344970703125,0.25391292572021484,-3.306666374206543,1.9033136367797852
1761417639771180300,1.08518017578125,-0.2896742820739746,-3.21445894241333,1.507828712463379
1761417639787992000,1.101991943359375,-1.1153564453125,-3.2158918380737305,1.0372381210327148
1761417639804813300,1.118813232421875,-1.5355660915374756,-3.1316237449645996,0.7697477340698242
1761417639821633500,1.135633544921875,-1.2260494232177734,-3.0339574813842773,0.9224300384521484
1761417639838448400,1.152448486328125,-0.5889225006103516,-2.904123067855835,1.1183881759643555
1761417639855292700,1.169292724609375,0.02344369888305664,-2.621164560317993,0.8464822769165039
1761417639872101000,1.18610107421875,0.3847966194152832,-2.253890037536621,0.23567771911621094
1761417639888932000,1.20293212890625,0.5954654216766357,-1.9124268293380737,-0.34130287170410156
1761417639905766700,1.2197666015625,0.7728054523468018,-1.5830581188201904,-0.6815528869628906
1761417639922599200,1.23659912109375,0.9321911334991455,-1.1183326244354248,-0.9632329940795898
1761417639939405800,1.25340576171875,1.040798544883728,-0.6615298986434937,-1.1451797485351562
1761417639956217600,1.270217529296875,1.3330427408218384,-0.22987031936645508,-1.208230972290039
1761417639973087000,1.2870869140625,1.6509592533111572,0.31033122539520264,-1.1236038208007812
1761417639989895000,1.30389501953125,1.919442057609558,0.8257997035980225,-0.8679285049438477
1761417640006722300,1.320722412109375,2.090623617172241,1.246232032775879,-0.5770225524902344
1761417640023523600,1.337523681640625,2.1899728775024414,1.5841484069824219,-0.3885478973388672
1761417640040351200,1.354351318359375,2.1374588012695312,1.8446927070617676,-0.1459493637084961
1761417640057175300,1.37117529296875,2.13455867767334,2.072885751724243,0.19430255889892578
1761417640073995500,1.38799560546875,2.2397892475128174,2.3612356185913086,0.5046234130859375
1761417640090813700,1.404813720703125,2.302875518798828,2.668067693710327,0.875396728515625
1761417640107636500,1.421636474609375,2.259324550628662,2.8941378593444824,1.310943603515625
1761417640124460000,1.4384599609375,2.2228732109069824,3.0137462615966797,1.741994857788086
1761417640141284600,1.45528466796875,2.272196054458618,3.1475987434387207,2.1328306198120117
1761417640158109000,1.47210888671875,2.3150181770324707,3.1843748092651367,2.532663345336914
1761417640174931200,1.48893115234375,2.3949732780456543,3.2981314659118652,2.898818016052246
1761417640191756000,1.505756103515625,2.423093795776367,3.4804019927978516,3.2630720138549805
1761417640208581600,1.52258154296875,2.5545973777770996,3.151196241378784,4.051563262939453
1761417640225404700,1.53940478515625,2.7589521408081055,2.861621618270874,4.801257133483887
1761417640242228500,1.556228515625,3.0165929794311523,2.736891269683838,5.521227836608887
1761417640259053600,1.573053466796875,3.121971845626831,3.1262545585632324,5.917481422424316
1761417640275877000,1.589877197265625,2.821768283843994,4.380290985107422,5.1998748779296875
1761417640292700400,1.606700439453125,2.1996121406555176,5.1132402420043945,4.125639915466309
1761417640309538600,1.62353857421875,1.8487695455551147,5.253049373626709,3.1587324142456055
1761417640326360000,1.640360107421875,2.175654172897339,4.771763801574707,2.6610145568847656
1761417640343181600,1.657181640625,2.681703567504883,4.098302841186523,2.606989860534668
1761417640360010500,1.674010498046875,3.040682315826416,3.406383752822876,2.9101457595825195
1761417640376834000,1.690833984375,3.08565616607666,2.6843101978302,3.391242027282715
1761417640393656300,1.70765625,2.8427276611328125,2.0528721809387207,3.7991943359375
1761417640410480400,1.72448046875,2.3609395027160645,1.5135250091552734,3.901808738708496
1761417640427317800,1.74131787109375,1.9273701906204224,1.1045477390289307,3.7199745178222656
1761417640444141000,1.75814111328125,1.5596976280212402,0.7564325332641602,3.2446889877319336
1761417640460949000,1.774948974609375,1.41475248336792,0.33687853813171387,2.6168251037597656
1761417640477789400,1.79178955078125,1.4717514514923096,-0.11088824272155762,1.9304828643798828
1761417640494609700,1.808609619140625,1.6306278705596924,-0.5517885684967041,1.1684455871582031
1761417640511408600,1.82540869140625,1.730229139328003,-1.0067799091339111,0.3887014389038086
1761417640528261400,1.842261474609375,1.8341195583343506,-1.4912986755371094,-0.2316884994506836
1761417640545085000,1.8590849609375,1.9143552780151367,-2.085256576538086,-0.520207405090332
1761417640561891800,1.875891845703125,1.8453984260559082,-2.675528049468994,-0.6446199417114258
1761417640578712000,1.892712158203125,1.713026762008667,-3.223602771759033,-0.7261648178100586
1761417640595561500,1.9095615234375,1.5221917629241943,-3.6680872440338135,-0.9537763595581055
1761417640612381400,1.92638134765625,1.4168777465820312,-3.944387197494507,-1.4508428573608398
1761417640629205500,1.94320556640625,1.4639782905578613,-4.266164302825928,-1.876129150390625
1761417640646028300,1.9600283203125,1.6355339288711548,-4.617393970489502,-2.205204963684082
1761417640662854400,1.9768544921875,1.790939450263977,-4.923847675323486,-2.3580245971679688
1761417640679678200,1.99367822265625,1.9629795551300049,-5.068558692932129,-2.5127811431884766
1761417640696500000,2.0105,2.091362476348877,-5.212490081787109,-2.499209403991699
1761417640713322000,2.027322021484375,2.122471570968628,-5.480576515197754,-2.277831554412842
1761417640730134000,2.044134033203125,1.966642141342163,-5.791415691375732,-2.019298553466797
1761417640746960100,2.060960205078125,1.8636424541473389,-6.012531280517578,-1.7861638069152832
1761417640763793700,2.077793701171875,1.7631627321243286,-6.111863136291504,-1.5985727310180664
1761417640780606700,2.094606689453125,1.7596461772918701,-6.025986671447754,-1.479532241821289
1761417640797418000,2.11141796875,1.858262538909912,-6.290895938873291,-1.010624885559082
1761417640814248200,2.128248291015625,1.6617947816848755,-6.833570957183838,-0.43419456481933594
1761417640831082500,2.14508251953125,1.260642409324646,-6.787735939025879,-0.3947439193725586
1761417640847902200,2.161902099609375,1.1249679327011108,-5.5329790115356445,-1.302016258239746
1761417640864727000,2.17872705078125,1.2496534585952759,-3.808234214782715,-2.3955230712890625
1761417640881568300,2.195568359375,1.4913667440414429,-2.6656277179718018,-2.8228330612182617
1761417640898372600,2.21237255859375,1.7024123668670654,-2.454542636871338,-2.5757336616516113
1761417640915208200,2.229208251953125,1.775741696357727,-2.7294723987579346,-1.957026481628418
1761417640932040400,2.24604052734375,1.7109875679016113,-2.9785404205322266,-1.3645563125610352
1761417640948860000,2.26285986328125,1.5636564493179321,-3.1229212284088135,-0.8401775360107422
1761417640965676500,2.279676513671875,1.0477755069732666,-3.4178645610809326,-0.25867462158203125
1761417640982497800,2.296497802734375,0.49846363067626953,-3.67008900642395,0.29400157928466797
1761417640999334000,2.313333984375,0.1766146421432495,-3.6805427074432373,0.6157674789428711
1761417641016155600,2.33015576171875,0.11711323261260986,-3.3617026805877686,0.5802755355834961
1761417641032981000,2.34698095703125,0.14185166358947754,-2.7858128547668457,0.2201375961303711
1761417641049802800,2.363802734375,0.1170656681060791,-2.272385358810425,-0.2508583068847656
1761417641066624500,2.38062451171875,0.04783225059509277,-1.749879240989685,-0.7607488632202148
1761417641083455200,2.397455322265625,0.03356289863586426,-1.2988097667694092,-1.1338262557983398
1761417641100276500,2.4142763671875,0.08980298042297363,-0.864803671836853,-1.327500343322754
1761417641117083000,2.431082763671875,0.17655682563781738,-0.43136560916900635,-1.3416786193847656
1761417641133928000,2.447927978515625,0.13748836517333984,-0.08118414878845215,-1.1997480392456055
1761417641150731300,2.464731201171875,-0.06387901306152344,0.24402642250061035,-1.0861663818359375
1761417641167580000,2.481579833984375,-0.40056800842285156,0.5200750827789307,-1.0598382949829102
1761417641184397600,2.4983974609375,-0.6879527568817139,0.7467300891876221,-1.0500736236572266
1761417641201217300,2.51521728515625,-0.8052947521209717,1.0163086652755737,-0.9347858428955078
1761417641218043600,2.532043701171875,-0.7515887022018433,1.2793817520141602,-0.609562873840332
1761417641234863900,2.54886376953125,-0.5398783683776855,1.6034717559814453,-0.09677982330322266
1761417641251679700,2.5656796875,-0.3438246250152588,1.9551196098327637,0.4577198028564453
1761417641268498700,2.582498779296875,-0.18870282173156738,2.2332847118377686,1.1054754257202148
1761417641285325300,2.5993251953125,0.009630203247070312,2.428284168243408,1.7226543426513672
1761417641302137000,2.61613720703125,0.2676362991333008,2.784543514251709,2.2289199829101562
1761417641318973200,2.63297314453125,0.5072145462036133,3.026671886444092,2.8200998306274414
1761417641335797800,2.6497978515625,0.7157316207885742,3.235805034637451,3.359379768371582
1761417641352622600,2.66662255859375,0.9283442497253418,3.462045192718506,3.818675994873047
1761417641369448000,2.683447998046875,1.1023988723754883,3.4783947467803955,4.402021408081055
1761417641386295000,2.700294921875,1.26170015335083,2.7478058338165283,5.153721809387207
1761417641403107300,2.717107421875,1.601470708847046,2.081267833709717,5.528660774230957
1761417641419931000,2.733930908203125,2.31040358543396,2.262336254119873,5.365287780761719
1761417641436755700,2.750755615234375,2.885066509246826,3.248760938644409,4.781368255615234
1761417641453577000,2.767576904296875,2.9535884857177734,4.120021343231201,4.1201581954956055
1761417641470405400,2.7844052734375,2.5459470748901367,4.468505382537842,3.468751907348633
1761417641487214800,2.80121484375,2.1116974353790283,4.063409805297852,2.9411401748657227
1761417641504051200,2.81805126953125,2.191176414489746,3.439389944076538,2.55759334564209
1761417641520874000,2.8348740234375,2.6322481632232666,2.8361692428588867,2.513962745666504
1761417641537695500,2.851695556640625,3.02815842628479,2.1376514434814453,2.842209815979004
1761417641554518000,2.86851806640625,3.1289827823638916,1.4699406623840332,3.204071044921875
1761417641571348200,2.88534814453125,2.9902491569519043,1.0750715732574463,3.2314634323120117
1761417641588193500,2.902193603515625,2.7091102600097656,0.9160993099212646,2.865934371948242
1761417641604978000,2.91897802734375,2.385645627975464,0.7576644420623779,2.311769485473633
1761417641621841000,2.9358408203125,2.165748357772827,0.4651219844818115,1.8025398254394531
1761417641638630000,2.9526298828125,2.127469301223755,0.0978236198425293,1.242788314819336
1761417641655461600,2.969461669921875,2.1290557384490967,-0.26168203353881836,0.5980501174926758
1761417641672295200,2.986295166015625,2.087193250656128,-0.6213507652282715,-0.058417320251464844
1761417641689097700,3.00309765625,2.003089427947998,-0.9729348421096802,-0.6377811431884766
1761417641705938400,3.0199384765625,1.809946060180664,-1.3990484476089478,-1.0360803604125977
1761417641722745300,3.036745361328125,1.515106201171875,-1.8849449157714844,-1.2555112838745117
1761417641739582200,3.053582275390625,1.2068564891815186,-2.3826093673706055,-1.4199237823486328
1761417641756394200,3.070394287109375,0.96897292137146,-2.9033737182617188,-1.5527400970458984
1761417641773223200,3.08722314453125,0.8201096057891846,-3.4645445346832275,-1.6089239120483398
1761417641790044000,3.1040439453125,0.7568094730377197,-3.8989689350128174,-1.7373247146606445
1761417641806868500,3.120868408203125,0.7977981567382812,-4.251086711883545,-1.8947687149047852
1761417641823692000,3.137692138671875,0.8403267860412598,-4.592863082885742,-2.0213918685913086
1761417641840516900,3.154516845703125,0.868823766708374,-4.923280715942383,-2.0536160469055176
1761417641857339600,3.171339599609375,0.9260427951812744,-5.260189056396484,-1.945559024810791
1761417641874165000,3.1881650390625,0.9323651790618896,-5.59432315826416,-1.7782821655273438
1761417641891001900,3.205001953125,0.8708209991455078,-5.949793815612793,-1.549051284790039
1761417641907809500,3.2218095703125,0.8147356510162354,-6.236586570739746,-1.2548856735229492
1761417641924649700,3.238649658203125,0.7139217853546143,-6.392301559448242,-1.1158323287963867
1761417641941474600,3.255474609375,0.6624627113342285,-6.2786149978637695,-1.3042221069335938
1761417641958297600,3.272297607421875,0.6673693656921387,-6.387063980102539,-1.1539802551269531
1761417641975118000,3.2891181640625,0.5179893970489502,-7.119193077087402,-0.3966503143310547
1761417641991959300,3.305959228515625,0.004012346267700195,-7.548844337463379,-0.14922428131103516
1761417642008749600,3.32274951171875,-0.43608927726745605,-6.964102745056152,-0.8836708068847656
1761417642025582600,3.33958251953125,-0.20499944686889648,-5.400351524353027,-2.1135478019714355
1761417642042406000,3.356406005859375,0.21550798416137695,-3.7737464904785156,-2.9292831420898438
1761417642059213300,3.37321337890625,0.8252720832824707,-2.8340795040130615,-2.887942314147949
1761417642076055000,3.390054931640625,1.3084728717803955,-2.6779589653015137,-2.1082825660705566
1761417642092882400,3.40688232421875,1.4584925174713135,-2.8106002807617188,-1.2434897422790527
1761417642109698600,3.423698486328125,1.2506020069122314,-2.9425418376922607,-0.5725650787353516
1761417642126517200,3.440517333984375,0.8168737888336182,-3.1176950931549072,-0.050551414489746094
1761417642143347700,3.45734765625,0.18453645706176758,-3.3104543685913086,0.4236316680908203
1761417642160171300,3.474171142578125,-0.4062635898590088,-3.418231964111328,0.7060365676879883
1761417642177018400,3.491018310546875,-0.7126731872558594,-3.276012897491455,0.5652341842651367
1761417642193832400,3.50783251953125,-0.8230783939361572,-2.864427089691162,0.138916015625
1761417642210656800,3.52465673828125,-0.9091331958770752,-2.4041805267333984,-0.3584861755371094
1761417642227462700,3.541462646484375,-0.9506669044494629,-1.9905116558074951,-0.7864494323730469
1761417642244291800,3.558291748046875,-0.8158409595489502,-1.598503828048706,-1.2059803009033203
1761417642261117200,3.5751171875,-0.5527347326278687,-1.1973708868026733,-1.4907464981079102
1761417642277939200,3.591939208984375,-0.2689371109008789,-0.7396514415740967,-1.6569452285766602
1761417642294762800,3.6087626953125,0.0013065338134765625,-0.2803688049316406,-1.5694937705993652
1761417642311587300,3.62558740234375,0.21526551246643066,0.22786808013916016,-1.2941923141479492
1761417642328395500,3.6423955078125,0.2571423053741455,0.6775362491607666,-0.9205036163330078
1761417642345223700,3.6592236328125,0.15014195442199707,1.1352040767669678,-0.5940961837768555
1761417642362058000,3.67605810546875,0.05010342597961426,1.6346467733383179,-0.23995590209960938
1761417642378890000,3.692889892578125,0.03188133239746094,2.1209259033203125,0.23202133178710938
1761417642395694800,3.70969482421875,0.10390138626098633,2.545954704284668,0.7066097259521484
1761417642412520200,3.726520263671875,0.19638347625732422,2.8662936687469482,1.085648536682129
1761417642429343000,3.743343017578125,0.35336756706237793,3.0693039894104004,1.3981733322143555
1761417642446167600,3.76016748046875,0.6478512287139893,3.2248730659484863,1.673187255859375
1761417642462989800,3.77698974609375,0.9241063594818115,3.2813663482666016,1.9924583435058594
1761417642479816200,3.793816162109375,1.1586172580718994,3.3083367347717285,2.2901458740234375
1761417642496636700,3.81063671875,1.3014264106750488,3.2556989192962646,2.590611457824707
1761417642513462300,3.827462158203125,1.3458375930786133,3.2407519817352295,2.798656463623047
1761417642530301400,3.844301513671875,1.367394208908081,3.262714385986328,3.0237197875976562
1761417642547101000,3.861100830078125,1.3215234279632568,3.1458311080932617,3.4957494735717773
1761417642563943400,3.877943359375,1.3164527416229248,2.448913097381592,4.271458625793457
1761417642580773000,3.894773193359375,1.4687669277191162,1.6775100231170654,4.628787994384766
1761417642597593600,3.911593505859375,2.0944206714630127,1.741300106048584,4.406307220458984
1761417642614417700,3.928417724609375,2.7649571895599365,2.606142282485962,3.9493846893310547
1761417642631251200,3.945251220703125,3.084846019744873,3.4743492603302,3.7371835708618164
1761417642648075000,3.962074951171875,2.9007582664489746,3.8579399585723877,3.677248001098633
1761417642664923100,3.978923095703125,2.4561257362365723,3.645362377166748,3.5053462982177734
1761417642681732400,3.995732421875,2.294929027557373,3.1603450775146484,3.220254898071289
1761417642698540000,4.0125400390625,2.819486618041992,2.7165048122406006,3.279782295227051
1761417642715374600,4.02937451171875,3.348393440246582,2.010833501815796,3.8733577728271484
1761417642732175600,4.046175537109375,3.516810417175293,1.1804161071777344,4.47499942779541
1761417642749010200,4.06301025390625,3.231851100921631,0.41072607040405273,4.597456932067871
1761417642765833200,4.079833251953125,2.6709766387939453,-0.11828446388244629,4.011543273925781
1761417642782658000,4.096657958984375,2.0016520023345947,-0.4745333194732666,3.075699806213379
1761417642799481000,4.113481201171875,1.3771977424621582,-0.821812629699707,2.2378416061401367
1761417642816306000,4.130305908203125,0.8305339813232422,-1.1553032398223877,1.5246782302856445
1761417642833118000,4.147117919921875,0.47273826599121094,-1.5298500061035156,0.9312238693237305
1761417642849958000,4.1639580078125,0.17841386795043945,-1.973707675933838,0.43668174743652344
1761417642866787300,4.180787353515625,-0.11301660537719727,-2.442939281463623,-0.027948379516601562
1761417642883614200,4.1976142578125,-0.4854886531829834,-2.9043941497802734,-0.4504737854003906
1761417642900443000,4.21444287109375,-0.875993013381958,-3.3353614807128906,-0.7606048583984375
1761417642917254700,4.231254638671875,-1.2728700637817383,-3.7453269958496094,-1.015944480895996
1761417642934083300,4.248083251953125,-1.6691102981567383,-4.0812788009643555,-1.3125901222229004
1761417642950923000,4.264923095703125,-2.0606532096862793,-4.2801408767700195,-1.726344108581543
1761417642967718100,4.28171826171875,-2.3273532390594482,-4.454880237579346,-2.046245574951172
1761417642984559000,4.29855908203125,-2.4406256675720215,-4.571271896362305,-2.357828140258789
1761417643001380600,4.315380615234375,-2.39937424659729,-4.705947399139404,-2.496514320373535
1761417643018207700,4.332207763671875,-2.353407144546509,-4.897421360015869,-2.556425094604492
1761417643035027200,4.349027099609375,-2.1933717727661133,-5.079821586608887,-2.648989200592041
1761417643051854000,4.36585400390625,-2.0419344902038574,-5.400910377502441,-2.552536964416504
1761417643068682000,4.382681884765625,-1.880937099456787,-5.839593887329102,-2.227532386779785
1761417643085511700,4.39951171875,-1.678410530090332,-6.169522762298584,-1.898484706878662
1761417643102311000,4.416310791015625,-1.598282814025879,-6.303208351135254,-1.7838315963745117
1761417643119150600,4.433150634765625,-1.6358346939086914,-6.090555667877197,-1.921224594116211
1761417643135955500,4.44995556640625,-1.598182201385498,-5.697185516357422,-2.066617965698242
1761417643152800300,4.46680029296875,-1.6951136589050293,-6.062264442443848,-1.5204534530639648
1761417643169622000,4.4836220703125,-1.945664882659912,-6.3446760177612305,-1.0893049240112305
1761417643186430000,4.500429931640625,-2.004512310028076,-6.120563983917236,-0.9988150596618652
1761417643203269400,4.517269287109375,-1.7217588424682617,-5.368295192718506,-1.1547670364379883
1761417643220077000,4.5340771484375,-1.0690579414367676,-4.262730598449707,-1.394054889678955
1761417643236905700,4.55090576171875,-0.37381410598754883,-3.311723232269287,-1.3711605072021484
1761417643253728500,4.567728515625,0.06531906127929688,-3.135714530944824,-0.6811904907226562
1761417643270551600,4.584551513671875,0.16246771812438965,-3.3990488052368164,0.11129283905029297
1761417643287376600,4.601376708984375,0.22179627418518066,-3.4167027473449707,0.5269308090209961
1761417643304199700,4.61819970703125,0.3979454040527344,-3.3740739822387695,0.9233713150024414
1761417643321025300,4.635025390625,0.4877943992614746,-3.2943038940429688,1.3791532516479492
1761417643337837000,4.651837158203125,0.5162069797515869,-3.0268030166625977,1.7500429153442383
1761417643354681300,4.668681396484375,0.6615521907806396,-2.4942550659179688,1.7915000915527344
1761417643371513300,4.685513427734375,1.0186240673065186,-1.715442419052124,1.5363407135009766
1761417643388326100,4.702326171875,1.2550761699676514,-0.9861330986022949,0.9308605194091797
1761417643405164800,4.719164794921875,1.2678382396697998,-0.4646732807159424,0.14178943634033203
1761417643421966600,4.735966552734375,1.212113618850708,0.018375873565673828,-0.6144046783447266
1761417643438788600,4.75278857421875,1.2330114841461182,0.49887824058532715,-1.061631202697754
1761417643455630000,4.769630126953125,1.3648879528045654,0.9676332473754883,-1.0368456840515137
1761417643472452900,4.786452880859375,1.5055294036865234,1.3969829082489014,-0.646601676940918
1761417643489277400,4.80327734375,1.4310119152069092,1.809779167175293,-0.34313011169433594
1761417643506089500,4.82008935546875,1.1793761253356934,2.17333722114563,-0.20457077026367188
1761417643522908200,4.836908203125,0.8488945960998535,2.416804075241089,-0.11672019958496094
1761417643539753200,4.853753173828125,0.6619706153869629,2.5423038005828857,0.1780071258544922
1761417643556554500,4.870554443359375,0.6319029331207275,2.596567392349243,0.6270008087158203
1761417643573380400,4.88738037109375,0.7078981399536133,2.6436707973480225,1.0754766464233398
1761417643590207200,4.904207275390625,0.8586521148681641,2.703317642211914,1.4756793975830078
1761417643607025200,4.921025146484375,1.0689013004302979,2.8359427452087402,1.7492752075195312
1761417643623843300,4.93784326171875,1.3288426399230957,2.950432777404785,1.863459587097168
1761417643640665900,4.954665771484375,1.5351545810699463,3.024505853652954,1.8294458389282227
1761417643657491700,4.97149169921875,1.728588342666626,2.9696497917175293,1.9238224029541016
1761417643674313000,4.98831298828125,2.0200233459472656,2.901677131652832,2.1589536666870117
1761417643691140000,5.00514013671875,2.3754501342773438,2.885303497314453,2.443963050842285
1761417643707962000,5.021962158203125,2.6645286083221436,2.7780890464782715,2.9042530059814453
1761417643724786400,5.038786376953125,2.661545515060425,2.0985703468322754,3.5591936111450195
1761417643741611000,5.055611083984375,2.765637159347534,1.8033466339111328,3.8157873153686523
1761417643758439700,5.072439697265625,3.267671823501587,1.9675226211547852,3.9419941902160645
1761417643775258400,5.08925830078125,3.7135345935821533,2.693821907043457,3.8716630935668945
1761417643792089600,5.106089599609375,3.8147363662719727,3.7067244052886963,3.5739359855651855
1761417643808905200,5.1229052734375,3.3413290977478027,4.519270896911621,3.1811881065368652
1761417643825743400,5.139743408203125,2.609135150909424,4.717134952545166,2.9886860847473145
1761417643842568000,5.15656787109375,2.0184242725372314,4.3692755699157715,2.998027801513672
1761417643859390700,5.173390625,1.8894381523132324,3.86177396774292,3.1940646171569824
1761417643876213800,5.1902138671875,2.000930070877075,3.0439929962158203,3.804595470428467
1761417643893025500,5.207025634765625,1.932173252105713,1.9553356170654297,4.473763465881348
1761417643909858000,5.223858154296875,1.6010265350341797,0.983208179473877,4.739351272583008
1761417643926707000,5.24070703125,1.2078523635864258,0.25478267669677734,4.602683067321777
1761417643943523600,5.257523681640625,0.8178446292877197,-0.312136173248291,4.30964469909668
1761417643960344000,5.274343994140625,0.4205598831176758,-0.7702484130859375,3.8634986877441406
1761417643977159000,5.291158935546875,0.11518669128417969,-1.1030447483062744,3.1866350173950195
1761417643993998000,5.307998046875,-0.12976956367492676,-1.4416522979736328,2.366334915161133
1761417644010816800,5.324816650390625,-0.30312252044677734,-1.8671324253082275,1.534881591796875
1761417644027640600,5.341640625,-0.4406871795654297,-2.2813985347747803,0.8019847869873047
1761417644044470500,5.358470458984375,-0.686694860458374,-2.666111469268799,0.2095479965209961
1761417644061291500,5.37529150390625,-1.0090305805206299,-3.0507097244262695,-0.3208141326904297
1761417644078114800,5.39211474609375,-1.3312311172485352,-3.3883471488952637,-0.8758249282836914
1761417644094940400,5.4089404296875,-1.6300439834594727,-3.6799135208129883,-1.414191722869873
1761417644111762200,5.42576220703125,-1.8424365520477295,-3.919050693511963,-1.8899893760681152
1761417644128587500,5.44258740234375,-1.915632724761963,-4.110722064971924,-2.31795597076416
1761417644145408000,5.459407958984375,-1.9479444026947021,-4.353221416473389,-2.640169620513916
1761417644162238500,5.476238525390625,-1.9118332862854004,-4.645658493041992,-2.8284034729003906
1761417644179058400,5.493058349609375,-1.8708946704864502,-4.909854888916016,-2.937173366546631
1761417644195872500,5.50987255859375,-1.8802123069763184,-5.181583404541016,-2.9735779762268066
1761417644212694000,5.526694091796875,-1.9055063724517822,-5.46630859375,-2.9049997329711914
1761417644229524500,5.5435244140625,-1.9627556800842285,-5.780561447143555,-2.7523794174194336
1761417644246340600,5.560340576171875,-2.036123037338257,-6.027988910675049,-2.6020660400390625
1761417644263165400,5.57716552734375,-2.057684898376465,-6.108321666717529,-2.4858360290527344
1761417644279988500,5.593988525390625,-2.003382444381714,-5.995710372924805,-2.3911638259887695
1761417644296800300,5.61080029296875,-1.8209786415100098,-5.647520065307617,-2.3209714889526367
1761417644313636400,5.62763623046875,-1.5571870803833008,-5.329700469970703,-1.9898290634155273
1761417644330463500,5.64446337890625,-1.5223193168640137,-5.9417619705200195,-0.9220247268676758
1761417644347290600,5.66129052734375,-1.815793752670288,-6.70725679397583,-0.05130481719970703
1761417644364118300,5.6781181640625,-2.047916889190674,-6.728034973144531,0.10584640502929688
1761417644380950000,5.694949951171875,-1.7349755764007568,-5.332005023956299,-0.5245809555053711
1761417644397771000,5.71177099609375,-0.965228796005249,-3.6811327934265137,-1.0368261337280273
1761417644414589700,5.728589599609375,-0.4025843143463135,-2.6313631534576416,-0.9267482757568359
1761417644431422200,5.745422119140625,-0.09813809394836426,-2.616981267929077,-0.20633506774902344
1761417644448242000,5.762241943359375,0.004132747650146484,-2.825286865234375,0.4226961135864258
1761417644465062000,5.779061767578125,0.2247147560119629,-2.918931484222412,0.8040189743041992
1761417644481894100,5.79589404296875,0.2988929748535156,-3.110848903656006,1.2616586685180664
1761417644498697700,5.81269775390625,0.19984722137451172,-3.0914688110351562,1.617940902709961
1761417644515533800,5.829533935546875,0.1474449634552002,-2.7413506507873535,1.6987648010253906
1761417644532350000,5.846349853515625,0.07261991500854492,-2.19670033454895,1.5248985290527344
1761417644549171200,5.863171142578125,-0.20540785789489746,-1.545306921005249,0.9037036895751953
1761417644566009900,5.880009765625,-0.5060949325561523,-0.8689181804656982,0.1262798309326172
1761417644582822000,5.89682177734375,-0.5654751062393188,-0.3059980869293213,-0.46034717559814453
1761417644599654000,5.91365380859375,0.048526763916015625,0.14402127265930176,-0.5871038436889648
1761417644616485000,5.930485107421875,0.9911644458770752,0.5394001007080078,-0.2840251922607422
1761417644633305600,5.9473056640625,1.7098846435546875,1.0094480514526367,0.056099891662597656
1761417644650129000,5.96412890625,2.065016746520996,1.464797019958496,0.21338367462158203
1761417644666937300,5.980937255859375,2.2017295360565186,1.9185216426849365,0.2010650634765625
1761417644683759400,5.99775927734375,2.150155544281006,2.410642623901367,0.08234119415283203
1761417644700587800,6.014587890625,2.115090847015381,2.7589898109436035,0.0935220718383789
1761417644717411300,6.031411376953125,2.155568838119507,2.9518320560455322,0.338623046875
1761417644734233000,6.048233154296875,2.2639658451080322,3.121670722961426,0.6612100601196289
1761417644751062000,6.06506201171875,2.4020466804504395,3.2283456325531006,1.062058448791504
1761417644767870500,6.081870361328125,2.5165300369262695,3.3265671730041504,1.3337326049804688
1761417644784709400,6.09870947265625,2.434044361114502,3.418010711669922,1.4258899688720703
1761417644801528300,6.1155283203125,2.1991589069366455,3.4440722465515137,1.565450668334961
1761417644818375000,6.132375,2.0242581367492676,3.334550619125366,1.7181406021118164
1761417644835199000,6.149198974609375,2.186630964279175,3.297703266143799,1.8597526550292969
1761417644852016400,6.166016357421875,2.523632049560547,3.3685760498046875,1.990762710571289
1761417644868821000,6.182821044921875,2.972808361053467,3.5564446449279785,2.2027359008789062
1761417644885667600,6.19966748046875,3.304263114929199,3.2622413635253906,2.862759590148926
1761417644902506000,6.216506103515625,3.476508140563965,2.7906455993652344,3.510552406311035
1761417644919312400,6.2333125,3.9109435081481934,2.8183887004852295,4.019591331481934
1761417644936139500,6.250139404296875,4.235905170440674,3.1676158905029297,4.554670333862305
1761417644952946400,6.266946533203125,4.257187843322754,3.908277988433838,4.869365692138672
1761417644969781500,6.283781494140625,3.6617813110351562,4.679136276245117,4.601010322570801
1761417644986615000,6.300614990234375,2.5645785331726074,4.796561241149902,3.93881893157959
1761417645003432700,6.3174326171875,1.7602092027664185,4.1834917068481445,3.1806678771972656
1761417645020256300,6.33425634765625,1.6936204433441162,3.437264919281006,2.756582260131836
1761417645037080600,6.35108056640625,2.211726665496826,2.6314051151275635,3.1169471740722656
1761417645053903400,6.3679033203125,2.6252646446228027,1.6186189651489258,3.929652214050293
1761417645070729700,6.384729736328125,2.6620688438415527,0.6759359836578369,4.522304534912109
1761417645087550700,6.40155078125,2.3537521362304688,-0.0823051929473877,4.65427303314209
1761417645104376000,6.4183759765625,1.8526628017425537,-0.7327589988708496,4.517546653747559
1761417645121186300,6.435186279296875,1.2656147480010986,-1.297037124633789,4.173653602600098
1761417645138017300,6.452017333984375,0.7010111808776855,-1.7102949619293213,3.541558265686035
1761417645154851300,6.468851318359375,0.3166189193725586,-2.0221896171569824,2.671602249145508
1761417645171654100,6.485654052734375,0.05637192726135254,-2.3378608226776123,1.6731147766113281
1761417645188461600,6.502461669921875,-0.11536478996276855,-2.7499797344207764,0.7517709732055664
1761417645205306400,6.519306396484375,-0.3012268543243408,-3.162036418914795,-0.06451892852783203
1761417645222113300,6.53611328125,-0.4684774875640869,-3.6423397064208984,-0.6458168029785156
1761417645238944000,6.552944091796875,-0.6968193054199219,-4.115481853485107,-1.0025835037231445
1761417645255777300,6.56977734375,-0.9760890007019043,-4.51719331741333,-1.3501625061035156
1761417645272599300,6.586599365234375,-1.1716716289520264,-4.8703107833862305,-1.7053823471069336
1761417645289427500,6.603427490234375,-1.260667085647583,-5.193312168121338,-1.9968981742858887
1761417645306253000,6.620253173828125,-1.2150413990020752,-5.413699150085449,-2.3082776069641113
1761417645323080000,6.637079833984375,-1.125228762626648,-5.6174726486206055,-2.5555005073547363
1761417645339911700,6.65391162109375,-1.0421853065490723,-5.824702739715576,-2.645200252532959
1761417645356718300,6.67071826171875,-1.0048253536224365,-5.965993881225586,-2.6969642639160156
1761417645373536500,6.68753662109375,-1.0796546936035156,-6.204012870788574,-2.6201066970825195
1761417645390382000,6.704382080078125,-1.175257682800293,-6.539986610412598,-2.443394660949707
1761417645407207700,6.721207763671875,-1.172877550125122,-6.826842308044434,-2.2759528160095215
1761417645424027100,6.738027099609375,-1.1234724521636963,-6.995601654052734,-2.1767234802246094
1761417645440851500,6.7548515625,-1.0823917388916016,-6.975852012634277,-2.195037841796875
1761417645457682200,6.77168212890625,-1.0061213970184326,-6.627439498901367,-2.4667396545410156
1761417645474499000,6.7884990234375,-0.8849499225616455,-6.172419548034668,-2.7819581031799316
1761417645491323400,6.805323486328125,-0.8232672214508057,-6.480685234069824,-2.3249473571777344
1761417645508142300,6.822142333984375,-1.1245793104171753,-7.197831153869629,-1.7053260803222656
1761417645524974000,6.83897412109375,-1.3252408504486084,-7.175265312194824,-1.728703498840332
1761417645541794600,6.855794677734375,-1.114309549331665,-6.146886825561523,-2.167271614074707
1761417645558609400,6.872609375,-0.7374081611633301,-4.8340253829956055,-2.52009916305542
1761417645575432000,6.889431884765625,-0.3639559745788574,-4.014700412750244,-2.1454925537109375
1761417645592269800,6.906269775390625,-0.12777161598205566,-3.9284863471984863,-1.2149782180786133
1761417645609095000,6.923094970703125,-0.1687633991241455,-4.269148826599121,-0.16916561126708984
1761417645625917400,6.93991748046875,-0.08913016319274902,-4.485812664031982,0.7051229476928711
1761417645642741800,6.95674169921875,-0.10900235176086426,-4.648458957672119,1.5718011856079102
1761417645659548400,6.97354833984375,-0.22840452194213867,-4.526483058929443,2.2066030502319336
1761417645676376600,6.99037646484375,-0.19741439819335938,-3.86881685256958,2.405270576477051
1761417645693199600,7.00719970703125,0.04446291923522949,-3.0282583236694336,2.23123836517334
1761417645710024200,7.024024169921875,0.43883252143859863,-2.065081834793091,1.7686166763305664
1761417645726844400,7.040844482421875,0.830812931060791,-1.0894293785095215,1.1455516815185547
1761417645743662300,7.057662353515625,1.104050874710083,-0.16073203086853027,0.661503791809082
1761417645760495400,7.074495361328125,1.1482467651367188,0.6622762680053711,0.3859443664550781
1761417645777320200,7.0913203125,1.3022587299346924,1.2567718029022217,0.5190868377685547
1761417645794139000,7.108138916015625,1.6187641620635986,1.7876503467559814,0.8208999633789062
1761417645810972400,7.124972412109375,1.8409497737884521,2.319389820098877,1.0307855606079102
1761417645827786200,7.1417861328125,1.6869194507598877,2.6770970821380615,1.0092782974243164
1761417645844612400,7.1586123046875,1.3312175273895264,2.9136734008789062,0.7753419876098633
1761417645861437000,7.17543701171875,1.1195402145385742,3.165630578994751,0.39600086212158203
1761417645878248400,7.19224853515625,1.1597862243652344,3.3667869567871094,0.15599918365478516
1761417645895074600,7.209074462890625,1.3318161964416504,3.4599721431732178,0.23172760009765625
1761417645911898600,7.225898681640625,1.6334078311920166,3.4795069694519043,0.4614400863647461
1761417645928722400,7.242722412109375,1.8725495338439941,3.3818867206573486,0.7676210403442383
1761417645945547000,7.259547119140625,1.9675498008728027,3.3749794960021973,0.902094841003418
1761417645962370300,7.276370361328125,1.966794490814209,3.541497230529785,0.724390983581543
1761417645979196000,7.29319580078125,1.867957592010498,3.5306320190429688,0.8119211196899414
1761417645996018200,7.31001806640625,1.7100276947021484,3.103926658630371,1.4608039855957031
1761417646012862000,7.326862060546875,1.701228141784668,2.649181842803955,2.1340436935424805
1761417646029674800,7.3436748046875,1.6340603828430176,2.418870210647583,2.573481559753418
1761417646046499800,7.360499755859375,1.3681583404541016,2.4994893074035645,2.6695032119750977
1761417646063329800,7.377329833984375,1.1617648601531982,2.0262417793273926,3.198068618774414
1761417646080151300,7.3941513671875,1.0883159637451172,1.2663516998291016,3.8203516006469727
1761417646096971500,7.410971435546875,1.5363681316375732,0.9367127418518066,4.139595985412598
1761417646113813000,7.42781298828125,2.130732536315918,1.4649150371551514,4.116392135620117
1761417646130639400,7.444639404296875,2.024732828140259,2.7519583702087402,4.319167137145996
1761417646147443500,7.461443359375,1.0997540950775146,3.7315616607666016,4.9902777671813965
1761417646164269600,7.47826953125,0.28055477142333984,3.975186586380005,5.405398845672607
1761417646181084400,7.49508447265625,-0.13120150566101074,3.6814708709716797,4.752208709716797
1761417646197918000,7.51191796875,0.18934845924377441,3.1557395458221436,3.804877281188965
1761417646214742800,7.52874267578125,0.9555213451385498,2.958580493927002,3.4474430084228516
1761417646231565600,7.545565673828125,1.5859594345092773,2.494499444961548,4.460981369018555
1761417646248390100,7.56239013671875,1.8159120082855225,2.178016424179077,5.816982269287109
1761417646265213400,7.57921337890625,1.1289656162261963,1.798166275024414,7.111142158508301
1761417646282038300,7.596038330078125,-0.08640074729919434,1.0348858833312988,7.632036209106445
1761417646298874400,7.612874267578125,-1.8058972358703613,0.48502516746520996,7.260525703430176
1761417646315687200,7.629687255859375,-3.119680404663086,-0.3177039623260498,6.66718864440918
1761417646332523300,7.646523193359375,-3.322772741317749,-1.1100552082061768,6.020536422729492
1761417646349347800,7.663347900390625,-2.6747074127197266,-1.8908201456069946,5.213960647583008
1761417646366171000,7.6801708984375,-2.232598304748535,-2.7299644947052,4.3844194412231445
1761417646382975200,7.696975341796875,-2.1942195892333984,-3.4512014389038086,3.3780269622802734
1761417646399818800,7.71381884765625,-2.8093807697296143,-4.018324375152588,2.230778694152832
1761417646416644900,7.730644775390625,-3.506488084793091,-4.537407875061035,1.313471794128418
1761417646433469400,7.747469482421875,-4.0149970054626465,-5.018312931060791,0.7312183380126953
1761417646450303500,7.764303466796875,-4.160114288330078,-5.570610046386719,0.33080101013183594
1761417646467104300,7.781104248046875,-4.116193771362305,-6.118770122528076,0.10042953491210938
1761417646483939600,7.797939697265625,-3.8656716346740723,-6.617006301879883,0.2387242317199707
1761417646500755000,7.8147548828125,-3.5646586418151855,-6.765969276428223,0.24878835678100586
1761417646517594400,7.831594482421875,-3.7544238567352295,-6.923580169677734,-0.07958316802978516
1761417646534410500,7.848410400390625,-4.359689235687256,-7.184117317199707,-0.33200645446777344
1761417646551234800,7.86523486328125,-4.730584144592285,-7.145141124725342,-0.49727678298950195
1761417646568058400,7.882058349609375,-4.843177795410156,-6.782591819763184,-0.22264337539672852
1761417646584878800,7.89887890625,-4.491644859313965,-6.196316719055176,0.7651925086975098
1761417646601710000,7.9157099609375,-3.7052440643310547,-5.907523155212402,1.9421472549438477
1761417646618518000,7.93251806640625,-2.269280433654785,-5.761618614196777,2.783719539642334
1761417646635336400,7.94933642578125,-0.821108341217041,-5.402141571044922,2.8153939247131348
1761417646652164900,7.966164794921875,-0.0025153160095214844,-5.056008338928223,2.368340015411377
1761417646668988200,7.98298828125,0.059189796447753906,-5.331223964691162,2.289882183074951
1761417646685792000,7.9997919921875,-0.6590609550476074,-5.517580986022949,2.2293477058410645
1761417646702635800,8.0166357421875,-1.1744418144226074,-4.639730930328369,1.7310771942138672
1761417646719460400,8.03346044921875,-0.6086735725402832,-3.1958558559417725,1.0098705291748047
1761417646736284200,8.0502841796875,0.7382297515869141,-1.9764022827148438,0.4466414451599121
1761417646753108500,8.0671083984375,2.124666213989258,-1.6002459526062012,0.40328264236450195
1761417646769931500,8.083931640625,2.552403450012207,-1.8686614036560059,0.7145330905914307
1761417646786773500,8.1007734375,1.7112503051757812,-2.207657814025879,0.8319299221038818
1761417646803589000,8.117589111328124,0.13780879974365234,-2.082716464996338,0.52842116355896
1761417646820422100,8.134422119140625,-1.1471796035766602,-1.7312849760055542,0.09801578521728516
1761417646837224700,8.151224609375,-1.58906888961792,-1.5217719078063965,0.04230189323425293
1761417646854064000,8.168064208984376,-1.668168067932129,-1.436055302619934,0.22757744789123535
1761417646870893000,8.18489306640625,-1.598099708557129,-1.2384229898452759,0.3766155242919922
1761417646887713800,8.2017138671875,-1.7458133697509766,-1.8534737825393677,0.4586293697357178
1761417646904536600,8.21853662109375,-2.1555614471435547,-2.0273852348327637,0.5069873332977295
1761417646921361400,8.235361328125,-2.7604684829711914,-1.7934139966964722,0.2254958152770996
1761417646938175200,8.25217529296875,-3.6645889282226562,-1.5761679410934448,-0.27573204040527344
1761417646955009500,8.269009521484374,-4.692529678344727,-1.469528317451477,-0.7729132175445557
1761417646971832300,8.285832275390625,-5.205320835113525,-1.4412925243377686,-1.228369116783142
1761417646988653600,8.302653564453125,-5.104501247406006,-1.4239921569824219,-1.5360549688339233
1761417647005478400,8.319478515625,-4.721804141998291,-1.365341067314148,-1.582230806350708
1761417647022311000,8.336310791015626,-4.308409690856934,-1.3005256652832031,-1.5498180389404297
1761417647039111700,8.353111572265625,-3.690638542175293,-1.1616560220718384,-1.4786489009857178
1761417647055952400,8.369952392578124,-3.0443735122680664,-0.7961902618408203,-1.5312085151672363
1761417647072749300,8.386749267578125,-2.513509750366211,-0.24140286445617676,-1.3495264053344727
1761417647089598200,8.40359814453125,-1.5073089599609375,0.32299208641052246,-0.786423921585083
1761417647106423800,8.420423828125,-0.12532615661621094,1.1488690376281738,-0.5808603763580322
1761417647123215600,8.437215576171875,0.641937255859375,1.4688785076141357,-0.6412267684936523
1761417647140045600,8.454045654296875,1.1640300750732422,1.2549341917037964,-1.2392473220825195
1761417647156871000,8.470870849609375,2.0674171447753906,1.418358564376831,-0.8602843284606934
1761417647173694500,8.487694580078125,5.620760917663574,1.0424180030822754,0.21747541427612305
1761417647190518300,8.504518310546874,6.968805313110352,0.8986096382141113,1.0100746154785156
1761417647207341300,8.52134130859375,7.298807144165039,1.0960443019866943,1.5779228210449219
1761417647224166100,8.538166259765624,6.953035354614258,1.195346474647522,2.3968257904052734
1761417647240989000,8.554989013671875,6.221661567687988,0.8779399394989014,2.8674702644348145
1761417647257813500,8.5718134765625,5.950295448303223,0.3061107397079468,2.429293632507324
1761417647274654500,8.588654541015625,5.068002700805664,0.6074910163879395,1.6678986549377441
1761417647291474400,8.605474365234375,4.7051191329956055,0.9401191473007202,0.9648857116699219
1761417647308297500,8.62229736328125,4.84599494934082,0.6444976329803467,0.3219575881958008
1761417647325122000,8.6391220703125,5.162517547607422,0.5381031036376953,-0.2185649871826172
1761417647341945300,8.6559453125,4.485899925231934,0.700573205947876,-0.47131943702697754
1761417647358758400,8.67275830078125,3.6463756561279297,1.1800312995910645,-0.41377711296081543
1761417647375606800,8.689606689453125,2.680389404296875,1.062668800354004,-0.7321140766143799
1761417647392432000,8.70643212890625,1.5302457809448242,0.7682199478149414,-0.9999129772186279
1761417647409258500,8.723258544921874,0.4864015579223633,0.6220088005065918,-1.0102334022521973
1761417647426073900,8.740073974609375,-0.23804378509521484,0.6324740648269653,-0.6869442462921143
1761417647442891500,8.7568916015625,-0.4606485366821289,0.29791808128356934,-0.3171696662902832
1761417647459711000,8.7737109375,0.4670095443725586,0.08458733558654785,0.05550551414489746
1761417647476550700,8.790550537109375,1.079695701599121,-0.06843078136444092,0.4293205738067627
1761417647493375500,8.80737548828125,0.7245798110961914,-0.6309735774993896,0.6237959861755371
1761417647510198500,8.824198486328125,0.36842918395996094,-0.39697515964508057,0.5997648239135742
1761417647527021600,8.841021484375,-0.11943721771240234,-0.21356511116027832,0.5655198097229004
1761417647543847400,8.857847412109376,0.6909303665161133,-0.3601371645927429,-0.14345550537109375
1761417647560671000,8.8746708984375,-0.7690267562866211,-0.19467777013778687,-0.1460707187652588
1761417647577477400,8.891477294921875,-1.7523422241210938,-0.022099614143371582,0.5671958923339844
