time,seconds_elapsed,z,y,x
1761307734663963400,0.22696337890625,-2.087770462036133,0.7874550819396973,-2.4467592239379883
1761307734680761900,0.243761962890625,-2.258540153503418,1.8225226402282715,-3.7808618545532227
1761307734697602000,0.26060205078125,-2.0402488708496094,2.239065647125244,-4.615991592407227
1761307734714411800,0.277411865234375,-1.2173194885253906,0.9735281467437744,-3.793093204498291
1761307734731231000,0.29423095703125,-1.0118865966796875,0.06211709976196289,-2.913395881652832
1761307734748047400,0.31104736328125,-1.000868797302246,-0.33404016494750977,-2.735238790512085
1761307734764878300,0.32787841796875,-0.916290283203125,-1.5658891201019287,-1.4330716133117676
1761307734781697000,0.344697021484375,-1.0384483337402344,-2.262909173965454,-1.0197269916534424
1761307734798518300,0.361518310546875,0.08300971984863281,-1.3815845251083374,-1.767549991607666
1761307734815340300,0.37834033203125,0.6026201248168945,-0.878727376461029,-3.1015894412994385
1761307734832161500,0.39516162109375,1.2825298309326172,-0.9631551504135132,-1.7941389083862305
1761307734849000200,0.412000244140625,1.2892861366271973,-2.2278432846069336,-1.1948490142822266
1761307734865802200,0.42880224609375,0.25340747833251953,-2.2000279426574707,-1.1522274017333984
1761307734882636500,0.445636474609375,-0.4425930976867676,-1.579073429107666,-1.8863043785095215
1761307734899465500,0.462465576171875,-0.5488481521606445,-1.390896201133728,-2.126927375793457
1761307734916283400,0.479283447265625,-0.5914764404296875,-1.2860462665557861,-2.0897703170776367
1761307734933104000,0.496104248046875,-0.4091525077819824,-1.3667751550674438,-1.9165711402893066
1761307734949933300,0.512933349609375,0.08304882049560547,-1.9815595149993896,-1.3056316375732422
1761307734966741500,0.529741455078125,0.9813694953918457,-2.162324905395508,-1.2549500465393066
1761307734983543600,0.54654345703125,1.5243430137634277,-2.1632938385009766,-1.653177261352539
1761307735000386000,0.563385986328125,1.5243663787841797,-2.131246566772461,-2.005474090576172
1761307735017223700,0.5802236328125,1.4022340774536133,-1.8904190063476562,-2.2961931228637695
1761307735034014000,0.597013916015625,1.0975923538208008,-1.740830898284912,-2.359612464904785
1761307735050859800,0.61385986328125,0.7902894020080566,-1.6351115703582764,-2.335150718688965
1761307735067643100,0.63064306640625,1.0763425827026367,-1.6447670459747314,-1.4013710021972656
1761307735084482300,0.647482421875,1.4511606693267822,-1.7213623523712158,-0.4846029281616211
1761307735101310000,0.66431005859375,1.8105249404907227,-1.4135514497756958,0.12096023559570312
1761307735118128000,0.681128173828125,1.6558687686920166,-0.8210103511810303,0.023202896118164062
1761307735134949600,0.69794970703125,1.4633793830871582,-0.24115371704101562,-0.3348712921142578
1761307735151751000,0.7147509765625,1.4241113662719727,0.09501385688781738,-0.33736705780029297
1761307735168610300,0.7316103515625,1.7937493324279785,0.347933292388916,-0.08948230743408203
1761307735185414000,0.748413818359375,2.3159172534942627,0.575661301612854,0.16532611846923828
1761307735202249500,0.76524951171875,2.5171897411346436,0.7142870426177979,0.31295108795166016
1761307735219069700,0.782069580078125,2.7001585960388184,1.121976613998413,0.2720479965209961
1761307735235877600,0.798877685546875,2.747921943664551,1.1890301704406738,0.6266012191772461
1761307735252700700,0.81570068359375,2.6838550567626953,1.4609663486480713,0.8839302062988281
1761307735269522000,0.83252197265625,2.6868679523468018,1.8542990684509277,1.0113143920898438
1761307735286331600,0.84933154296875,2.818798542022705,2.2851078510284424,1.084050178527832
1761307735303165400,0.86616552734375,3.104611396789551,2.577698230743408,1.5405817031860352
1761307735319987000,0.882987060546875,3.5700838565826416,2.806014060974121,2.2076282501220703
1761307735336809000,0.89980908203125,3.8048267364501953,3.198333263397217,2.584315299987793
1761307735353644300,0.916644287109375,3.7913546562194824,3.0866098403930664,2.972825050354004
1761307735370465300,0.93346533203125,3.5115795135498047,3.3596510887145996,2.919365882873535
1761307735387285000,0.950284912109375,3.386075973510742,3.5748584270477295,2.735487461090088
1761307735404108300,0.9671083984375,3.2985215187072754,3.570518970489502,2.8541183471679688
1761307735420930600,0.9839306640625,3.4183223247528076,3.0623626708984375,3.3728723526000977
1761307735437751600,1.00075146484375,3.7277681827545166,2.530142307281494,3.9015049934387207
1761307735454575600,1.01757568359375,3.9842278957366943,2.292335271835327,4.143125057220459
1761307735471384300,1.03438427734375,4.088510513305664,2.3954169750213623,4.089293479919434
1761307735488213500,1.051213623046875,4.080818176269531,2.992978096008301,3.7692995071411133
1761307735505038300,1.068038330078125,3.914024829864502,3.636664390563965,3.405508041381836
1761307735521834800,1.084834716796875,3.684471368789673,3.9861111640930176,3.1722774505615234
1761307735538675000,1.101675048828125,3.5981435775756836,4.1415557861328125,3.0045299530029297
1761307735555492900,1.118492919921875,3.516355037689209,4.060675621032715,2.82850980758667
1761307735572298800,1.135298828125,3.519277811050415,3.878999710083008,2.6614437103271484
1761307735589131800,1.1521318359375,3.5267951488494873,3.3951516151428223,2.711941719055176
1761307735605953000,1.168953125,3.4974257946014404,2.7419700622558594,2.840146064758301
1761307735622775300,1.185775390625,3.389791488647461,2.0864758491516113,2.998190402984619
1761307735639596800,1.2025966796875,3.3003969192504883,1.5325956344604492,3.1168947219848633
1761307735656436500,1.2194365234375,3.2338342666625977,1.0033793449401855,3.1898036003112793
1761307735673250300,1.236250244140625,3.0792555809020996,0.5101604461669922,3.0887398719787598
1761307735690078200,1.253078125,2.884687900543213,0.18420028686523438,2.667823314666748
1761307735706881300,1.26988134765625,2.7631001472473145,-0.10363292694091797,2.16117000579834
1761307735723697700,1.28669775390625,2.6129486560821533,-0.37109375,1.6543292999267578
1761307735740529400,1.303529296875,2.3723926544189453,-0.6936216354370117,1.1703004837036133
1761307735757347800,1.320347900390625,2.0233402252197266,-1.004373550415039,0.6626091003417969
1761307735774169000,1.337169189453125,1.773239016532898,-1.3945269584655762,0.2266988754272461
1761307735790990800,1.353990966796875,1.6253776550292969,-1.7364137172698975,-0.2243804931640625
1761307735807811800,1.370811767578125,1.4832104444503784,-1.9934773445129395,-0.6152887344360352
1761307735824651300,1.3876513671875,1.3183010816574097,-2.212869644165039,-0.949681282043457
1761307735841449500,1.404449462890625,1.0606307983398438,-2.375645637512207,-1.3054351806640625
1761307735858290400,1.42129052734375,0.8198859691619873,-2.4711077213287354,-1.7580418586730957
1761307735875113200,1.43811328125,0.6138589382171631,-2.5954678058624268,-2.13641357421875
1761307735891921000,1.4549208984375,0.4478573799133301,-2.7884979248046875,-2.3281164169311523
1761307735908738600,1.471738525390625,0.38633131980895996,-2.8272581100463867,-2.4896059036254883
1761307735925575200,1.4885751953125,0.31391096115112305,-2.8686842918395996,-2.634957790374756
1761307735942423800,1.505423828125,0.2498610019683838,-3.009814977645874,-2.6785497665405273
1761307735959224000,1.52222412109375,0.2112579345703125,-3.226104259490967,-2.621241569519043
1761307735976038100,1.5390380859375,0.28388428688049316,-3.4481735229492188,-2.500178813934326
1761307735992833000,1.5558330078125,0.35506558418273926,-3.7120909690856934,-2.307760715484619
1761307736009684500,1.5726845703125,0.3587989807128906,-3.911562204360962,-2.1173295974731445
1761307736026506800,1.5895068359375,0.3820650577545166,-3.933483600616455,-2.023914337158203
1761307736043305700,1.6063056640625,0.4114418029785156,-3.9942946434020996,-1.9560413360595703
1761307736060132600,1.623132568359375,0.44967222213745117,-4.028653144836426,-1.9349970817565918
1761307736076960300,1.639960205078125,0.5151693820953369,-4.057641983032227,-1.794560432434082
1761307736093779500,1.656779541015625,0.4804832935333252,-4.250308990478516,-1.4535493850708008
1761307736110600400,1.673600341796875,0.44791877269744873,-4.540996074676514,-1.0009040832519531
1761307736127404300,1.690404296875,0.4059826135635376,-4.957028388977051,-0.5264511108398438
1761307736144243500,1.707243408203125,0.31386399269104004,-5.091793060302734,-0.4636650085449219
1761307736161079600,1.72407958984375,0.3698352575302124,-4.373540878295898,-1.1900005340576172
1761307736177900500,1.740900634765625,0.7092856168746948,-3.0675902366638184,-2.1389236450195312
1761307736194713300,1.75771337890625,1.0916310548782349,-1.8179295063018799,-2.7563724517822266
1761307736211548200,1.774548095703125,1.351381540298462,-0.8215910196304321,-3.017519950866699
1761307736228353800,1.791353759765625,1.3405019044876099,-0.24637365341186523,-2.9804043769836426
1761307736245171000,1.8081708984375,1.1656033992767334,-0.16381430625915527,-2.5864057540893555
1761307736261994500,1.824994384765625,1.028449535369873,-0.4354727268218994,-1.9907474517822266
1761307736278816000,1.84181591796875,0.9313260316848755,-0.9625194072723389,-1.1962242126464844
1761307736295638000,1.858637939453125,0.9205586910247803,-1.6858699321746826,-0.34049320220947266
1761307736312462600,1.875462646484375,1.0476799011230469,-2.263354778289795,0.2482614517211914
1761307736329298200,1.892298095703125,1.2087821960449219,-2.5519819259643555,0.5985784530639648
1761307736346107400,1.909107421875,1.4619474411010742,-2.4840810298919678,0.7344179153442383
1761307736362938000,1.925938232421875,1.8046046495437622,-2.0254316329956055,0.564610481262207
1761307736379755500,1.942755615234375,2.08514404296875,-1.3880689144134521,0.17095470428466797
1761307736396568600,1.959568603515625,2.2830731868743896,-0.7229404449462891,-0.23107624053955078
1761307736413402400,1.97640234375,2.3807222843170166,-0.09871554374694824,-0.5482597351074219
1761307736430224400,1.993224365234375,2.548150062561035,0.4487648010253906,-0.7155427932739258
1761307736447039700,2.010039794921875,2.6711015701293945,0.8832159042358398,-0.6960048675537109
1761307736463873300,2.026873291015625,2.5855722427368164,1.1580309867858887,-0.5116453170776367
1761307736480664800,2.043664794921875,2.293196201324463,1.3123974800109863,-0.2102813720703125
1761307736497506300,2.06050634765625,1.9456827640533447,1.4452214241027832,0.07960033416748047
1761307736514316000,2.07731591796875,1.7367963790893555,1.6015541553497314,0.34774112701416016
1761307736531131000,2.094130859375,1.547101378440857,1.7723994255065918,0.604248046875
1761307736547958300,2.110958251953125,1.3859800100326538,1.8827834129333496,0.8956174850463867
1761307736564786000,2.127785888671875,1.4759206771850586,2.051152229309082,1.1895627975463867
1761307736581591600,2.144591552734375,1.735364317893982,2.298236846923828,1.407510757446289
1761307736598425900,2.16142578125,1.8895056247711182,2.5688140392303467,1.4828004837036133
1761307736615247000,2.1782470703125,2.0471479892730713,2.8884503841400146,1.4331927299499512
1761307736632086800,2.195086669921875,2.1482207775115967,3.241384267807007,1.3478264808654785
1761307736648887800,2.2118876953125,2.3184146881103516,3.5102391242980957,1.3668065071105957
1761307736665709800,2.228709716796875,2.627365827560425,3.6780576705932617,1.6199793815612793
1761307736682528000,2.245528076171875,2.874537229537964,3.703043222427368,2.123732566833496
1761307736699366000,2.262365966796875,3.050321578979492,3.7316770553588867,2.541759967803955
1761307736716177400,2.279177490234375,3.0173749923706055,3.728142261505127,2.836453914642334
1761307736732998700,2.29599853515625,2.8631319999694824,3.7319581508636475,3.155660629272461
1761307736749820200,2.312820068359375,2.5913453102111816,3.645991802215576,3.593346118927002
1761307736766642000,2.329641845703125,2.408045768737793,3.4952592849731445,3.9805445671081543
1761307736783463200,2.346463134765625,2.3260340690612793,3.3526487350463867,4.23580265045166
1761307736800282600,2.36328271484375,2.3576488494873047,3.1192123889923096,4.431668758392334
1761307736817125000,2.380125,2.545863151550293,2.852011203765869,4.5644450187683105
1761307736833925400,2.39692529296875,2.8688650131225586,2.6935696601867676,4.570133209228516
1761307736850763500,2.413763427734375,3.164926528930664,2.7168381214141846,4.444916725158691
1761307736867565800,2.43056591796875,3.387179136276245,2.9053421020507812,4.2139482498168945
1761307736884409300,2.447409423828125,3.423675537109375,3.2378487586975098,3.789762496948242
1761307736901227000,2.46422705078125,3.2847065925598145,3.4921226501464844,3.3463211059570312
1761307736918051000,2.481051025390625,3.0252509117126465,3.6492509841918945,2.882131576538086
1761307736934866200,2.4978662109375,2.739614248275757,3.507880687713623,2.5030198097229004
1761307736951692000,2.514692138671875,2.546926975250244,3.084747791290283,2.2037129402160645
1761307736968514600,2.5315146484375,2.473203182220459,2.3131659030914307,2.1367106437683105
1761307736985319200,2.548319091796875,2.509990930557251,1.315312385559082,2.2618370056152344
1761307737002154000,2.565154052734375,2.5821642875671387,0.3475327491760254,2.368748664855957
1761307737018965200,2.58196533203125,2.6745951175689697,-0.5658760070800781,2.4005041122436523
1761307737035787300,2.598787353515625,2.6342294216156006,-1.4209270477294922,2.2948713302612305
1761307737052611300,2.615611328125,2.495211124420166,-2.1763062477111816,2.1189451217651367
1761307737069427000,2.632427001953125,2.269977569580078,-2.7435643672943115,1.8448600769042969
1761307737086249200,2.649249267578125,2.031399726867676,-2.9979701042175293,1.3663606643676758
1761307737103075000,2.666074951171875,1.8242202997207642,-3.070422649383545,0.7326135635375977
1761307737119912200,2.682912109375,1.694453477859497,-3.0687544345855713,0.01954936981201172
1761307737136730600,2.699730712890625,1.5699341297149658,-3.047327756881714,-0.6502838134765625
1761307737153534700,2.71653466796875,1.458465576171875,-3.0497448444366455,-1.1755609512329102
1761307737170373000,2.733373046875,1.2839361429214478,-3.091221809387207,-1.6296653747558594
1761307737187178500,2.750178466796875,1.0540196895599365,-3.1713778972625732,-2.111933708190918
1761307737203999000,2.7669990234375,0.8446662425994873,-3.305140972137451,-2.6160941123962402
1761307737220823800,2.78382373046875,0.7326064109802246,-3.4970803260803223,-3.0585832595825195
1761307737237645800,2.800645751953125,0.6628139019012451,-3.7179980278015137,-3.392239570617676
1761307737254467300,2.81746728515625,0.5666077136993408,-3.887495994567871,-3.6519975662231445
1761307737271285500,2.834285400390625,0.4294111728668213,-3.988279342651367,-3.894355297088623
1761307737288113400,2.851113525390625,0.3633713722229004,-4.022469520568848,-4.125133514404297
1761307737304932900,2.867932861328125,0.33325743675231934,-4.070743560791016,-4.291464805603027
1761307737321764000,2.88476416015625,0.31632208824157715,-4.139023780822754,-4.3570661544799805
1761307737338589000,2.9015888671875,0.38791918754577637,-4.233723163604736,-4.3184309005737305
1761307737355412500,2.91841259765625,0.4599003791809082,-4.446171283721924,-4.075565338134766
1761307737372229400,2.9352294921875,0.49656176567077637,-4.661863803863525,-3.7345380783081055
1761307737389057500,2.9520576171875,0.5787508487701416,-4.844273567199707,-3.2403645515441895
1761307737405848000,2.96884814453125,0.6476230621337891,-4.926189422607422,-2.691903591156006
1761307737422693400,2.985693359375,0.601191520690918,-4.951608180999756,-2.175307273864746
1761307737439509800,3.002509765625,0.5303761959075928,-4.941222190856934,-1.7334012985229492
1761307737456340500,3.019340576171875,0.5899636745452881,-4.909200191497803,-1.3643465042114258
1761307737473161500,3.036161376953125,0.6822454929351807,-4.835673809051514,-1.091257095336914
1761307737489982700,3.052982666015625,0.9951634407043457,-4.647724628448486,-0.8304958343505859
1761307737506788000,3.0697880859375,1.3335866928100586,-4.447190284729004,-0.4614372253417969
1761307737523612400,3.0866123046875,1.4195466041564941,-4.2298359870910645,-0.02527332305908203
1761307737540434200,3.10343408203125,1.3660775423049927,-3.8009657859802246,0.22488880157470703
1761307737557255200,3.120255126953125,1.5112565755844116,-2.9149930477142334,0.14219379425048828
1761307737574077400,3.137077392578125,1.693755030632019,-1.7401230335235596,-0.1254100799560547
1761307737590898700,3.153898681640625,1.8523527383804321,-0.5602974891662598,-0.3775472640991211
1761307737607721200,3.17072119140625,1.969887614250183,0.2610201835632324,-0.3728218078613281
1761307737624558300,3.187558349609375,1.9699970483779907,0.5812783241271973,-0.035294532775878906
1761307737641369600,3.20436962890625,1.9098395109176636,0.6991791725158691,0.30997467041015625
1761307737658204000,3.221203857421875,1.8421742916107178,0.5145969390869141,0.7399616241455078
1761307737675020300,3.238020263671875,1.8852261304855347,0.21225976943969727,1.2243995666503906
1761307737691814700,3.254814697265625,1.9989975690841675,-0.0015146732330322266,1.6709041595458984
1761307737708652800,3.27165283203125,2.126941204071045,-0.11136913299560547,2.0554189682006836
1761307737725471200,3.28847119140625,2.1791701316833496,-0.13046550750732422,2.218486785888672
1761307737742289700,3.30528955078125,2.180111885070801,-0.038132667541503906,2.1183223724365234
1761307737759101700,3.322101806640625,2.1693499088287354,0.2395033836364746,1.7839231491088867
1761307737775921400,3.33892138671875,2.048603057861328,0.6998133659362793,1.3598346710205078
1761307737792757000,3.355757080078125,1.8537399768829346,1.2445156574249268,0.9224891662597656
1761307737809582800,3.372582763671875,1.713964819908142,1.6843152046203613,0.6761970520019531
1761307737826413800,3.389413818359375,1.648705244064331,2.02982759475708,0.5546894073486328
1761307737843236600,3.406236572265625,1.6243531703948975,2.2841856479644775,0.42377376556396484
1761307737860054000,3.423053955078125,1.6255505084991455,2.5035905838012695,0.2687654495239258
1761307737876881000,3.439880859375,1.6299409866333008,2.6403586864471436,0.15733909606933594
1761307737893700400,3.456700439453125,1.6561275720596313,2.759613037109375,0.09038066864013672
1761307737910522400,3.4735224609375,1.6851301193237305,2.7947397232055664,0.10077285766601562
1761307737927327200,3.4903271484375,1.7572722434997559,2.8585431575775146,0.09436511993408203
1761307737944129800,3.5071298828125,1.8313014507293701,3.0093729496002197,0.07159996032714844
1761307737960991000,3.523990966796875,1.8494274616241455,3.1228973865509033,0.031975746154785156
1761307737977806600,3.540806640625,1.919179916381836,3.1727991104125977,-0.07347583770751953
1761307737994615000,3.557614990234375,2.0490407943725586,3.1464803218841553,-0.14949417114257812
1761307738011440600,3.574440673828125,2.1388702392578125,3.1609039306640625,-0.1874709129333496
1761307738028259300,3.59125927734375,2.238668918609619,3.1009058952331543,-0.14348506927490234
1761307738045081300,3.608081298828125,2.4033663272857666,2.9608840942382812,0.1626901626586914
1761307738061903000,3.624903076171875,2.5713918209075928,2.8192625045776367,0.8074631690979004
1761307738078724400,3.641724365234375,2.6739892959594727,2.807171583175659,1.6390290260314941
1761307738095556400,3.658556396484375,2.6675610542297363,2.8751673698425293,2.464935779571533
1761307738112371500,3.675371337890625,2.655792236328125,2.7963647842407227,3.2742834091186523
1761307738129202700,3.69220263671875,2.615079641342163,2.4662704467773438,4.087569236755371
1761307738146020400,3.709020263671875,2.6407434940338135,2.103544235229492,4.655993938446045
1761307738162849800,3.725849853515625,2.7342424392700195,1.7720189094543457,4.931168556213379
1761307738179664400,3.742664306640625,2.9574804306030273,1.4704489707946777,4.845452785491943
1761307738196472300,3.759472412109375,3.38332200050354,1.2967748641967773,4.439461708068848
1761307738213303000,3.776302978515625,3.8230652809143066,1.2976899147033691,3.8342366218566895
1761307738230107100,3.793107177734375,4.128544330596924,1.63685941696167,3.048581123352051
1761307738246942700,3.809942626953125,4.081542015075684,2.1147444248199463,2.2088475227355957
1761307738263759400,3.82675927734375,3.620847225189209,2.393679618835449,1.4521102905273438
1761307738280571600,3.843571533203125,3.1516716480255127,2.5156991481781006,0.7703800201416016
1761307738297413000,3.8604130859375,2.9580070972442627,2.386737823486328,0.25279808044433594
1761307738314240800,3.87724072265625,2.971338987350464,2.021878719329834,-0.04038238525390625
1761307738331041500,3.89404150390625,3.051651954650879,1.4429244995117188,0.07605552673339844
1761307738347876400,3.91087646484375,3.044022560119629,0.7035326957702637,0.774662971496582
1761307738364711400,3.92771142578125,2.8941144943237305,0.0355682373046875,1.6748113632202148
1761307738381510000,3.944510009765625,2.516007423400879,-0.4501018524169922,2.1699066162109375
1761307738398340000,3.961340087890625,2.0611319541931152,-0.8008432388305664,2.1624364852905273
1761307738415177200,3.97817724609375,1.8098341226577759,-0.9972805976867676,1.7458000183105469
1761307738431991300,3.9949912109375,1.8557720184326172,-1.1156342029571533,1.129547119140625
1761307738448796400,4.01179638671875,2.0649590492248535,-1.194586992263794,0.4091167449951172
1761307738465636400,4.02863623046875,2.2627573013305664,-1.3113460540771484,-0.32883644104003906
1761307738482440000,4.04543994140625,2.3895692825317383,-1.4919917583465576,-0.9442291259765625
1761307738499263500,4.062263427734375,2.4498305320739746,-1.700676679611206,-1.4120492935180664
1761307738516085800,4.079085693359375,2.3336997032165527,-1.9140326976776123,-1.7924628257751465
1761307738532907000,4.095906982421875,2.117403984069824,-2.118323802947998,-2.192007064819336
1761307738549728300,4.112728271484375,1.9107249975204468,-2.3268580436706543,-2.536681652069092
1761307738566549800,4.1295498046875,1.774513602256775,-2.5637214183807373,-2.787621021270752
1761307738583386600,4.14638671875,1.6966359615325928,-2.7625837326049805,-2.992542266845703
1761307738600207400,4.163207275390625,1.6706287860870361,-2.8733110427856445,-3.1589555740356445
1761307738617022200,4.180022216796875,1.625633716583252,-2.8668975830078125,-3.339776039123535
1761307738633856000,4.19685595703125,1.4776467084884644,-2.8270392417907715,-3.5106911659240723
1761307738650672400,4.21367236328125,1.2324129343032837,-2.75972318649292,-3.697445869445801
1761307738667493000,4.2304931640625,1.077923059463501,-2.7733421325683594,-3.780750274658203
1761307738684297500,4.24729736328125,1.145394206047058,-2.880186080932617,-3.6768593788146973
1761307738701122300,4.264122314453125,1.2854822874069214,-3.022393226623535,-3.4388465881347656
1761307738717946400,4.2809462890625,1.3613330125808716,-3.240267515182495,-3.101808547973633
1761307738734764300,4.297764404296875,1.358405351638794,-3.5121593475341797,-2.6537342071533203
1761307738751578600,4.31457861328125,1.3914257287979126,-3.7753381729125977,-2.147859573364258
1761307738768406000,4.331406005859375,1.4068289995193481,-3.908783197402954,-1.7108726501464844
1761307738785234200,4.348234130859375,1.4352953433990479,-3.8924083709716797,-1.3687448501586914
1761307738802064600,4.365064697265625,1.5287858247756958,-3.8896355628967285,-0.9898529052734375
1761307738818889000,4.381888916015625,1.6759552955627441,-3.943547487258911,-0.6222944259643555
1761307738835692500,4.398692626953125,1.829892873764038,-3.860714912414551,-0.37163543701171875
1761307738852530700,4.41553076171875,1.921152114868164,-3.778857469558716,-0.09535694122314453
1761307738869335600,4.43233544921875,1.8536161184310913,-3.787182092666626,0.2733421325683594
1761307738886194700,4.449194580078125,1.6903786659240723,-3.5740277767181396,0.537144660949707
1761307738903000800,4.466000732421875,1.6185492277145386,-2.5394275188446045,0.3213796615600586
1761307738919811800,4.482811767578125,1.6432416439056396,-0.9671144485473633,-0.17578125
1761307738936638700,4.499638671875,1.5759072303771973,0.3807637691497803,-0.4609079360961914
1761307738953460200,4.516460205078125,1.2615407705307007,1.0931172370910645,-0.47713375091552734
1761307738970251300,4.533251220703125,0.9245172739028931,1.2116310596466064,-0.4398517608642578
1761307738987090200,4.550090087890625,0.8758143186569214,1.083862066268921,-0.39359474182128906
1761307739003911200,4.5669111328125,0.991074800491333,0.7840619087219238,-0.22272014617919922
1761307739020732700,4.583732666015625,1.1618196964263916,0.2698206901550293,0.08554267883300781
1761307739037554000,4.600553955078125,1.3365647792816162,-0.31313657760620117,0.5020008087158203
1761307739054376200,4.617376220703125,1.4825079441070557,-0.6901559829711914,0.859583854675293
1761307739071213600,4.634213623046875,1.5493217706680298,-0.7488002777099609,1.0819683074951172
1761307739088033800,4.65103369140625,1.4841381311416626,-0.4977297782897949,1.126016616821289
1761307739104854000,4.66785400390625,1.3511674404144287,-0.03608369827270508,0.9144058227539062
1761307739121676500,4.684676513671875,1.2310048341751099,0.4834160804748535,0.5984992980957031
1761307739138493200,4.7014931640625,1.2266404628753662,0.9680452346801758,0.27767467498779297
1761307739155293400,4.71829345703125,1.334350824356079,1.3783092498779297,0.09019088745117188
1761307739172103000,4.73510302734375,1.5380715131759644,1.7396066188812256,0.05605506896972656
1761307739188951800,4.751951904296875,1.5659453868865967,1.9995408058166504,0.1193246841430664
1761307739205770000,4.76877001953125,1.4278478622436523,2.2157058715820312,0.18371295928955078
1761307739222591500,4.785591552734375,1.1483675241470337,2.398258686065674,0.19965744018554688
1761307739239413000,4.8024130859375,0.8322335481643677,2.5873889923095703,0.16077136993408203
1761307739256228900,4.819228759765625,0.6305965185165405,2.6600308418273926,0.17260360717773438
1761307739273070600,4.836070556640625,0.574591875076294,2.713858127593994,0.1480236053466797
1761307739289895400,4.8528955078125,0.6743688583374023,2.778944969177246,0.1580348014831543
1761307739306696700,4.86969677734375,0.7640531063079834,2.8591952323913574,0.2483806610107422
1761307739323531500,4.886531494140625,0.8107619285583496,3.0088396072387695,0.3486952781677246
1761307739340342300,4.90334228515625,0.7555018663406372,3.2020139694213867,0.4126009941101074
1761307739357160200,4.92016015625,0.7399071455001831,3.257910966873169,0.5201911926269531
1761307739374001000,4.9370009765625,0.882070779800415,3.1336510181427,0.8291206359863281
1761307739390820000,4.953820068359375,1.189486026763916,2.9116406440734863,1.2344098091125488
1761307739407626500,4.97062646484375,1.4668872356414795,2.6723697185516357,1.593329906463623
1761307739424468000,4.987468017578125,1.7699470520019531,2.4547371864318848,1.9829487800598145
1761307739441282600,5.004282470703125,2.058516025543213,2.3494787216186523,2.363349437713623
1761307739458090800,5.0210908203125,2.268031597137451,2.245741844177246,2.7441139221191406
1761307739474915300,5.037915283203125,2.436253070831299,2.114579677581787,3.0566744804382324
1761307739491740700,5.05474072265625,2.555251121520996,1.9911465644836426,3.1786484718322754
1761307739508554800,5.0715546875,2.8042891025543213,1.8480243682861328,3.2261648178100586
1761307739525380400,5.08838037109375,3.1420061588287354,1.69004487991333,3.275509834289551
1761307739542201600,5.10520166015625,3.5617589950561523,1.6240935325622559,3.2157063484191895
1761307739559068700,5.122068603515625,3.959937572479248,1.8394994735717773,3.018925666809082
1761307739575854300,5.138854248046875,4.1692328453063965,2.3882365226745605,2.6473169326782227
1761307739592684300,5.155684326171875,4.084465980529785,3.08895206451416,2.196920394897461
1761307739609501700,5.172501708984375,3.7580862045288086,3.597717523574829,1.876443862915039
1761307739626317600,5.189317626953125,3.394284248352051,3.6573333740234375,1.735008716583252
1761307739643144700,5.206144775390625,2.992708444595337,3.402714490890503,1.7364845275878906
1761307739659963600,5.222963623046875,2.68746280670166,2.901310920715332,1.9829158782958984
1761307739676760300,5.23976025390625,2.576277256011963,2.271259307861328,2.4921059608459473
1761307739693598000,5.256597900390625,2.628526210784912,1.6333394050598145,3.110637664794922
1761307739710415000,5.2734150390625,2.6816422939300537,1.1140131950378418,3.555018901824951
1761307739727239400,5.290239501953125,2.651266574859619,0.7285223007202148,3.607379913330078
1761307739744046300,5.30704638671875,2.629131555557251,0.4390993118286133,3.287137031555176
1761307739760872700,5.323872802734375,2.640130043029785,0.21027088165283203,2.7178096771240234
1761307739777737200,5.3407373046875,2.6701138019561768,0.046886444091796875,2.004274368286133
1761307739794540000,5.3575400390625,2.5579066276550293,-0.15367984771728516,1.2590360641479492
1761307739811344000,5.37434375,2.4655556678771973,-0.3600888252258301,0.5156517028808594
1761307739828198000,5.391197998046875,2.3578596115112305,-0.6116046905517578,-0.14921951293945312
1761307739845004000,5.408004150390625,2.2643566131591797,-0.96305251121521,-0.6643829345703125
1761307739861821700,5.42482177734375,2.0979442596435547,-1.3608074188232422,-1.1034679412841797
1761307739878651000,5.44165087890625,1.9553725719451904,-1.7269854545593262,-1.4509892463684082
1761307739895452200,5.4584521484375,1.7177555561065674,-2.0581212043762207,-1.7237129211425781
1761307739912290300,5.475290283203125,1.4264744520187378,-2.333418369293213,-2.039851188659668
1761307739929112600,5.492112548828125,1.2099751234054565,-2.474458694458008,-2.336747169494629
1761307739945906000,5.508906005859375,0.9688153266906738,-2.5359740257263184,-2.494534492492676
1761307739962741200,5.5257412109375,0.7980331182479858,-2.6200766563415527,-2.6143035888671875
1761307739979562800,5.542562744140625,0.769767165184021,-2.6185789108276367,-2.791022777557373
1761307739996384800,5.559384765625,0.674224853515625,-2.5800094604492188,-3.0059032440185547
1761307740013206000,5.5762060546875,0.49291205406188965,-2.625261068344116,-3.102597236633301
1761307740030027300,5.59302734375,0.43790316581726074,-2.7429306507110596,-3.10494327545166
1761307740046867000,5.609866943359375,0.469989538192749,-3.0258545875549316,-2.985407829284668
1761307740063684900,5.626684814453125,0.559687614440918,-3.350161075592041,-2.774564743041992
1761307740080501800,5.643501708984375,0.6520369052886963,-3.6041879653930664,-2.4851651191711426
1761307740097341400,5.660341552734375,0.6175711154937744,-3.853470802307129,-2.138533592224121
1761307740114150400,5.677150390625,0.5886650085449219,-3.98297119140625,-1.8719801902770996
1761307740130971400,5.693971435546875,0.5991833209991455,-3.946397542953491,-1.7052803039550781
1761307740147788800,5.710788818359375,0.6492528915405273,-3.926909923553467,-1.4816951751708984
1761307740164580400,5.727580322265625,0.6865088939666748,-4.009437561035156,-1.199319839477539
1761307740181422000,5.744422119140625,0.6893954277038574,-3.8622779846191406,-1.0755901336669922
1761307740198243800,5.761243896484375,0.7144894599914551,-3.6527485847473145,-0.8367643356323242
1761307740215065000,5.778065185546875,0.614393949508667,-3.693319320678711,-0.36655521392822266
1761307740231885800,5.7948857421875,0.39943480491638184,-3.8007922172546387,0.09316444396972656
1761307740248708000,5.8117080078125,0.24498248100280762,-3.3746044635772705,0.06863689422607422
1761307740265547500,5.828547607421875,0.38150739669799805,-2.1480209827423096,-0.4213590621948242
1761307740282365200,5.845365234375,0.5653555393218994,-0.7603611946105957,-0.9140815734863281
1761307740299188700,5.862188720703125,0.6492201089859009,0.22040724754333496,-1.0823078155517578
1761307740316008700,5.8790087890625,0.6146504878997803,0.605954647064209,-0.9901647567749023
1761307740332813600,5.8958134765625,0.4342789649963379,0.5765466690063477,-0.9619960784912109
1761307740349651700,5.912651611328125,0.34828221797943115,0.3687903881072998,-0.9206714630126953
1761307740366473500,5.929473388671875,0.3822237253189087,0.02855849266052246,-0.5361957550048828
1761307740383294200,5.946294189453125,0.4694101810455322,-0.48456501960754395,0.07517147064208984
1761307740400116700,5.96311669921875,0.5810596942901611,-0.8351547718048096,0.6311922073364258
1761307740416938000,5.97993798828125,0.7054030895233154,-0.8407182693481445,0.8680286407470703
1761307740433742600,5.99674267578125,0.7859852313995361,-0.4758167266845703,0.8441381454467773
1761307740450567000,6.01356689453125,0.7252655029296875,0.05149984359741211,0.7485685348510742
1761307740467389400,6.030389404296875,0.7048947811126709,0.6345615386962891,0.7016582489013672
1761307740484212200,6.047212158203125,0.764013409614563,1.1133241653442383,0.7090845108032227
1761307740501032200,6.0640322265625,0.9438124895095825,1.536757469177246,0.7431888580322266
1761307740517838800,6.0808388671875,1.1871613264083862,1.9499332904815674,0.7776193618774414
1761307740534706700,6.097706787109375,1.4211044311523438,2.2920408248901367,0.8821201324462891
1761307740551512000,6.114511962890625,1.5157442092895508,2.4819493293762207,1.077906608581543
1761307740568326700,6.13132666015625,1.5089530944824219,2.511366844177246,1.2846794128417969
1761307740585151700,6.14815185546875,1.4634329080581665,2.5577785968780518,1.2836976051330566
1761307740601980200,6.164980224609375,1.4109575748443604,2.6489362716674805,1.149449348449707
1761307740618812000,6.18181201171875,1.448047399520874,2.7641196250915527,1.0560669898986816
1761307740635618800,6.198618896484375,1.6463494300842285,2.8436782360076904,1.0691404342651367
1761307740652422700,6.215422607421875,1.9204368591308594,2.935859203338623,1.113563060760498
1761307740669248300,6.232248291015625,2.1193323135375977,3.1326675415039062,1.1212763786315918
1761307740686069800,6.24906982421875,2.0846142768859863,3.387478828430176,1.0816864967346191
1761307740702891300,6.265891357421875,1.7628765106201172,3.512855291366577,1.0835723876953125
1761307740719712500,6.28271240234375,1.560980200767517,3.5427331924438477,1.1490058898925781
1761307740736532000,6.299531982421875,1.5815320014953613,3.4090614318847656,1.452101707458496
1761307740753376800,6.316376708984375,1.7503474950790405,3.336881160736084,1.789440631866455
1761307740770190800,6.33319091796875,1.9122893810272217,3.1796135902404785,2.1850428581237793
1761307740787013000,6.35001318359375,2.116901159286499,2.9960379600524902,2.6851258277893066
1761307740803830800,6.366830810546875,2.2420105934143066,2.8212618827819824,3.3059139251708984
1761307740820660500,6.383660400390625,2.1849524974823,2.79935622215271,3.8033666610717773
1761307740837477600,6.4004775390625,1.9987084865570068,2.6990714073181152,4.029461860656738
1761307740854299000,6.417298828125,1.8991045951843262,2.8621864318847656,3.821971893310547
1761307740871117000,6.434116943359375,2.0062267780303955,2.9755029678344727,3.5772852897644043
1761307740887946500,6.450946533203125,2.1535825729370117,2.93585467338562,3.356724739074707
1761307740904764000,6.467763916015625,2.4178566932678223,2.8713724613189697,3.2475128173828125
1761307740921566000,6.48456591796875,2.660524845123291,2.854612350463867,3.1502156257629395
1761307740938393600,6.5013935546875,2.7635607719421387,3.039577007293701,3.0380449295043945
1761307740955217400,6.518217529296875,2.6190285682678223,3.320964813232422,3.0062098503112793
1761307740972021500,6.535021484375,2.245357036590576,3.277435302734375,3.0898008346557617
1761307740988844800,6.5518447265625,1.791337251663208,2.9730420112609863,3.1582841873168945
1761307741005678300,6.56867822265625,1.4521931409835815,2.4235024452209473,3.2444276809692383
1761307741022523100,6.585523193359375,1.4301105737686157,1.7628073692321777,3.3549232482910156
1761307741039336400,6.60233642578125,1.6001676321029663,1.087606430053711,3.366166114807129
1761307741056156200,6.61915625,1.7503314018249512,0.45897674560546875,3.1777729988098145
1761307741072977700,6.635977783203125,1.8312339782714844,0.015941619873046875,2.716188430786133
1761307741089806000,6.65280615234375,1.8400547504425049,-0.20230484008789062,2.039536476135254
1761307741106622700,6.669622802734375,1.7251036167144775,-0.29635000228881836,1.2981910705566406
1761307741123428000,6.686427978515625,1.4447548389434814,-0.32785606384277344,0.5907373428344727
1761307741140249300,6.703249267578125,1.140965223312378,-0.4210977554321289,-0.059182167053222656
1761307741157074000,6.720073974609375,1.1466662883758545,-0.707395076751709,-0.5025110244750977
1761307741173895700,6.736895751953125,1.2850172519683838,-1.1823093891143799,-0.7943210601806641
1761307741190717000,6.753717041015625,1.3806915283203125,-1.568936824798584,-1.0729894638061523
1761307741207539000,6.7705390625,1.1489591598510742,-1.8946430683135986,-1.4117441177368164
1761307741224356000,6.787356201171875,0.8660073280334473,-2.1085970401763916,-1.8386468887329102
1761307741241168600,6.804168701171875,0.5761973857879639,-2.341921806335449,-2.163283348083496
1761307741258017300,6.821017333984375,0.47261667251586914,-2.578238010406494,-2.302715301513672
1761307741274839000,6.837839111328125,0.2876145839691162,-2.63533878326416,-2.5054702758789062
1761307741291657500,6.854657470703125,0.22759461402893066,-2.5756514072418213,-2.7465643882751465
1761307741308486000,6.87148583984375,0.07233262062072754,-2.550916910171509,-2.865445137023926
1761307741325303300,6.88830322265625,0.042098283767700195,-2.489792823791504,-2.987736701965332
1761307741342126000,6.9051259765625,0.006372213363647461,-2.4224472045898438,-3.080458641052246
1761307741358932700,6.9219326171875,-0.009782075881958008,-2.365654706954956,-3.0669145584106445
1761307741375764200,6.93876416015625,-0.06383705139160156,-2.2666821479797363,-3.055058479309082
1761307741392595000,6.955594970703125,-0.2179093360900879,-2.3682446479797363,-2.9804859161376953
1761307741409395700,6.972395751953125,-0.18355226516723633,-2.5729079246520996,-2.74428653717041
1761307741426218800,6.98921875,-0.009915590286254883,-2.89475679397583,-2.242908477783203
1761307741443041000,7.006041015625,0.146437406539917,-3.207383155822754,-1.688058853149414
1761307741459858700,7.022858642578125,0.14195990562438965,-3.405151844024658,-1.268519401550293
1761307741476688400,7.0396884765625,0.14829587936401367,-3.5612423419952393,-0.9624729156494141
1761307741493493200,7.0564931640625,0.12087535858154297,-3.618100166320801,-0.7870883941650391
1761307741510344400,7.073344482421875,0.18350577354431152,-3.4865636825561523,-0.6954259872436523
1761307741527159000,7.090158935546875,0.40479254722595215,-3.4137909412384033,-0.5339822769165039
1761307741544009500,7.107009521484375,0.6689975261688232,-3.3890209197998047,-0.3599100112915039
1761307741560806100,7.12380615234375,0.9717612266540527,-3.2366018295288086,-0.2413187026977539
1761307741577627400,7.14062744140625,1.2608208656311035,-2.559309959411621,-0.3192901611328125
1761307741594452000,7.157451904296875,1.4867963790893555,-1.2494590282440186,-0.666447639465332
1761307741611268400,7.174268310546875,1.4957973957061768,0.0721900463104248,-0.9404058456420898
1761307741628074800,7.19107470703125,1.357830286026001,0.8325726985931396,-0.9301080703735352
1761307741644900000,7.207900146484375,1.2150323390960693,1.0073466300964355,-0.6763219833374023
1761307741661721600,7.2247216796875,1.1547832489013672,0.9918158054351807,-0.3819875717163086
1761307741678543600,7.241543701171875,1.0356276035308838,0.7928812503814697,-0.0012807846069335938
1761307741695365000,7.258365234375,1.058793306350708,0.5095841884613037,0.5133743286132812
1761307741712186600,7.2751865234375,0.9460210800170898,0.05083441734313965,1.097900390625
1761307741729011200,7.29201123046875,0.958646297454834,-0.2526988983154297,1.4174995422363281
1761307741745827300,7.308827392578125,0.9542524814605713,-0.2694234848022461,1.391860008239746
1761307741762679000,7.325678955078125,0.9291257858276367,-0.018304824829101562,1.1269807815551758
1761307741779486700,7.34248681640625,0.831475019454956,0.42232251167297363,0.6864337921142578
1761307741796318000,7.35931787109375,0.7396202087402344,0.916316032409668,0.18911266326904297
1761307741813130800,7.376130859375,0.7112650871276855,1.3220233917236328,-0.19445323944091797
1761307741829934600,7.3929345703125,0.7804064750671387,1.6162185668945312,-0.41547155380249023
1761307741846757000,7.409757080078125,0.8808407783508301,1.7870099544525146,-0.5243320465087891
1761307741863594200,7.42659423828125,0.9406991004943848,1.8669986724853516,-0.6019258499145508
1761307741880416500,7.44341650390625,0.9032034873962402,1.8439464569091797,-0.609375
1761307741897216800,7.460216796875,0.8969993591308594,1.8625710010528564,-0.5880165100097656
1761307741914049500,7.477049560546875,0.9631731510162354,1.9522557258605957,-0.5051288604736328
1761307741930854700,7.493854736328125,1.0248193740844727,2.120805263519287,-0.40492725372314453
1761307741947689200,7.510689208984375,1.095409631729126,2.4068901538848877,-0.38909912109375
1761307741964510500,7.527510498046875,1.1526830196380615,2.710202932357788,-0.4169292449951172
1761307741981332000,7.54433203125,1.1743412017822266,2.9630813598632812,-0.40767621994018555
1761307741998151700,7.561151611328125,1.2306079864501953,3.1722652912139893,-0.3462486267089844
1761307742014987000,7.577987060546875,1.371077299118042,3.357816457748413,-0.2560281753540039
1761307742031817200,7.594817138671875,1.5787487030029297,3.463866710662842,-0.0928192138671875
1761307742048632000,7.611632080078125,1.835646152496338,3.4458348751068115,0.17040777206420898
1761307742065438700,7.628438720703125,2.095466375350952,3.3032264709472656,0.5396590232849121
1761307742082276000,7.645276123046875,2.428852081298828,3.105433940887451,0.9705591201782227
1761307742099096800,7.662096923828125,2.7959470748901367,2.9205574989318848,1.4771075248718262
1761307742115918300,7.67891845703125,3.0709822177886963,2.764281749725342,2.033115863800049
1761307742132711200,7.695711181640625,3.173065185546875,2.6261932849884033,2.635803699493408
1761307742149547500,7.712547607421875,3.116569995880127,2.405586004257202,3.1596522331237793
1761307742166369500,7.72936962890625,3.1997342109680176,2.1594228744506836,3.564457893371582
1761307742183191300,7.74619140625,3.420358180999756,1.9529895782470703,3.7226662635803223
1761307742200012300,7.76301220703125,3.6988162994384766,1.736053466796875,3.7390565872192383
1761307742216834800,7.779834716796875,4.054123878479004,1.7856841087341309,3.5499324798583984
1761307742233673000,7.7966728515625,4.327147483825684,2.2907848358154297,3.1325368881225586
1761307742250485000,7.813485107421875,4.303393363952637,2.896784782409668,2.6759018898010254
1761307742267302000,7.830302001953125,3.9191956520080566,3.339202642440796,2.203990936279297
1761307742284130600,7.847130615234375,3.4833836555480957,3.4522056579589844,1.8619194030761719
1761307742300960500,7.86396044921875,3.1065239906311035,3.250955581665039,1.7286534309387207
1761307742317790700,7.880790771484375,2.6477530002593994,2.7949233055114746,1.7295026779174805
1761307742334599000,7.897598876953125,2.282043695449829,2.130892038345337,1.9873147010803223
1761307742351424300,7.91442431640625,1.9535326957702637,1.3627028465270996,2.4715099334716797
1761307742368239400,7.9312392578125,1.7027840614318848,0.5910544395446777,2.991745948791504
1761307742385036300,7.948036376953125,1.424152135848999,-0.0496673583984375,3.2596397399902344
1761307742401871600,7.96487158203125,1.0885038375854492,-0.41184377670288086,3.0666861534118652
1761307742418694100,7.981694091796875,0.8814435005187988,-0.5859193801879883,2.531808376312256
1761307742435515100,7.99851513671875,0.7835955619812012,-0.7483267784118652,1.827413558959961
1761307742452336600,8.015336669921876,0.7423050403594971,-0.9395537376403809,1.0734634399414062
1761307742469158100,8.032158203125,0.663017749786377,-1.2576196193695068,0.3950767517089844
1761307742485997300,8.048997314453125,0.5602855682373047,-1.4980058670043945,-0.2637968063354492
1761307742502808600,8.06580859375,0.36017799377441406,-1.737442970275879,-0.8047609329223633
1761307742519641000,8.08264111328125,0.06870746612548828,-1.9782848358154297,-1.2008094787597656
1761307742536458200,8.099458251953125,-0.16620254516601562,-2.2553679943084717,-1.5151724815368652
1761307742553280500,8.116280517578126,-0.28424549102783203,-2.3979151248931885,-1.8457565307617188
1761307742570101800,8.133101806640624,-0.48145627975463867,-2.4706320762634277,-2.1868724822998047
1761307742586923800,8.149923828125,-0.7891445159912109,-2.516904830932617,-2.427762031555176
1761307742603744500,8.16674462890625,-0.9760940074920654,-2.555267095565796,-2.5673880577087402
1761307742620549600,8.183549560546876,-1.0367250442504883,-2.575470447540283,-2.6286163330078125
1761307742637374200,8.200374267578125,-0.9928936958312988,-2.4620392322540283,-2.754096031188965
1761307742654196200,8.2171962890625,-1.0753912925720215,-2.283169746398926,-2.818331718444824
1761307742671017200,8.234017333984376,-1.2934985160827637,-2.202223300933838,-2.7626171112060547
1761307742687839700,8.25083984375,-1.5039010047912598,-2.1572985649108887,-2.6965079307556152
1761307742704660700,8.26766064453125,-1.5851681232452393,-2.160294532775879,-2.571152687072754
1761307742721483000,8.28448291015625,-1.4688117504119873,-2.303518295288086,-2.307042121887207
1761307742738300400,8.301300537109375,-1.2199277877807617,-2.5685179233551025,-1.937556266784668
1761307742755111000,8.31811083984375,-1.094268798828125,-2.865267276763916,-1.4936866760253906
1761307742771961300,8.33496142578125,-1.0177850723266602,-3.0819363594055176,-1.121321201324463
1761307742788782300,8.3517822265625,-0.975405216217041,-3.0931262969970703,-0.8095064163208008
1761307742805603300,8.368603271484375,-0.820319652557373,-3.1510705947875977,-0.5215826034545898
1761307742822413300,8.385413330078125,-0.6675205230712891,-3.147730827331543,-0.3565349578857422
1761307742839248600,8.40224853515625,-0.312802791595459,-3.015514850616455,-0.25684547424316406
1761307742856064500,8.419064453125,0.13866519927978516,-2.871328830718994,0.037261962890625
1761307742872877600,8.435877685546876,0.36481666564941406,-2.878988742828369,0.4320049285888672
1761307742889693200,8.452693115234375,0.5758609771728516,-2.736614465713501,0.6723899841308594
1761307742906519600,8.46951953125,0.8608107566833496,-1.9889824390411377,0.5779247283935547
1761307742923341600,8.486341552734375,0.9421377182006836,-0.8975372314453125,0.3986034393310547
1761307742940163000,8.5031630859375,0.7762222290039062,-0.04796457290649414,0.3455495834350586
1761307742956984800,8.51998486328125,0.42128801345825195,0.29676079750061035,0.3504619598388672
1761307742973809000,8.536808837890625,0.2218170166015625,0.3040282726287842,0.30878257751464844
1761307742990641700,8.5536416015625,0.12244606018066406,0.11269664764404297,0.2815361022949219
1761307743007463000,8.570462890625,0.14367389678955078,-0.17759466171264648,0.3370075225830078
1761307743024285000,8.587284912109375,0.1700429916381836,-0.4511270523071289,0.39184093475341797
1761307743041106700,8.604106689453126,0.253324031829834,-0.608816385269165,0.39275550842285156
1761307743057928400,8.620928466796874,0.34264087677001953,-0.5166940689086914,0.24955463409423828
1761307743074740700,8.63774072265625,0.29808473587036133,-0.30469512939453125,0.13256072998046875
1761307743091580200,8.654580078125,0.1208953857421875,0.08613920211791992,-0.0885014533996582
1761307743108356000,8.671356201171875,0.015980243682861328,0.4918398857116699,-0.2711501121520996
1761307743125200600,8.68820068359375,0.0551915168762207,0.9029636383056641,-0.41179561614990234
1761307743142022000,8.70502197265625,0.12334680557250977,1.2283034324645996,-0.5112652778625488
1761307743158840800,8.7218408203125,0.286527156829834,1.4763312339782715,-0.5567126274108887
1761307743175665400,8.73866552734375,0.560274600982666,1.650728702545166,-0.5603981018066406
1761307743192490000,8.755489990234375,0.7396888732910156,1.840303897857666,-0.5885128974914551
1761307743209325300,8.7723251953125,0.7733192443847656,1.9991393089294434,-0.5801081657409668
1761307743226132200,8.78913232421875,0.780982255935669,2.170365810394287,-0.46628856658935547
1761307743242965800,8.8059658203125,0.8795547485351562,2.3410000801086426,-0.30312013626098633
1761307743259787000,8.822787109375,1.1252679824829102,2.496675968170166,-0.10326480865478516
1761307743276608500,8.8396083984375,1.419525146484375,2.702826976776123,0.0704808235168457
1761307743293430500,8.856430419921875,1.611250400543213,2.940390110015869,0.2156977653503418
1761307743310252000,8.873251953125,1.6826415061950684,3.2332396507263184,0.28612470626831055
1761307743327073500,8.890073486328125,1.7429149150848389,3.4910600185394287,0.28380775451660156
1761307743343893200,8.906893310546875,1.8673441410064697,3.603848934173584,0.3455233573913574
1761307743360700000,8.923699951171875,2.0388195514678955,3.5867388248443604,0.42966222763061523
1761307743377524500,8.9405244140625,2.3507866859436035,3.419680595397949,0.6196622848510742
1761307743394346000,8.957345947265624,2.7691287994384766,3.2371485233306885,0.8001613616943359
1761307743411158300,8.974158203125,3.170823097229004,2.9989089965820312,1.0479607582092285
1761307743427993000,8.9909931640625,3.441554307937622,2.906958818435669,1.2858195304870605
1761307743444811000,9.00781103515625,3.403069496154785,2.708751678466797,1.5990033149719238
1761307743461650000,9.02464990234375,3.2028534412384033,2.4846036434173584,1.7725849151611328
1761307743478451200,9.041451171875,3.0870471000671387,2.3157339096069336,1.7297611236572266
1761307743495289900,9.058289794921874,3.1909937858581543,2.1141068935394287,1.6470603942871094
1761307743512107000,9.07510693359375,3.4434874057769775,1.9256019592285156,1.5160274505615234
1761307743528920300,9.09192041015625,3.8220434188842773,1.864394187927246,1.3177075386047363
1761307743545740000,9.108739990234374,4.096152305603027,2.0405161380767822,0.9588112831115723
1761307743562586600,9.125586669921875,4.136312484741211,2.330997943878174,0.5576419830322266
1761307743579397600,9.142397705078125,3.9101836681365967,2.6341655254364014,0.14070653915405273
1761307743596200700,9.15920068359375,3.440805435180664,2.8029656410217285,-0.1688690185546875
1761307743613026800,9.17602685546875,2.98032283782959,2.7141308784484863,-0.35712480545043945
1761307743629848600,9.1928486328125,2.555938720703125,2.309314012527466,-0.4202284812927246
1761307743646670000,9.209670166015625,2.3112974166870117,1.7236547470092773,-0.3618593215942383
1761307743663491800,9.226491943359376,2.270883560180664,1.0082321166992188,-0.13451576232910156
1761307743680315600,9.243315673828125,2.3499755859375,0.334273099899292,0.3047018051147461
1761307743697136000,9.26013623046875,2.406735420227051,-0.19031667709350586,0.922182559967041
1761307743713970400,9.276970458984374,2.2904534339904785,-0.5524382591247559,1.424269676208496
1761307743730792000,9.2937919921875,1.8951058387756348,-0.72357177734375,1.598332405090332
1761307743747609600,9.310609619140624,1.4725289344787598,-0.8243081569671631,1.5201058387756348
1761307743764439300,9.327439208984375,1.2707533836364746,-0.8449394702911377,1.236149787902832
1761307743781257000,9.344257080078124,1.1966423988342285,-0.9291408061981201,0.7774205207824707
1761307743798073600,9.361073486328126,1.0067296028137207,-1.008882999420166,0.23302555084228516
1761307743814899700,9.377899658203125,0.8101396560668945,-1.138850450515747,-0.3185844421386719
1761307743831721700,9.3947216796875,0.6690502166748047,-1.2078664302825928,-0.9150919914245605
1761307743848528000,9.41152783203125,0.4511547088623047,-1.3155145645141602,-1.2852063179016113
1761307743865349400,9.428349365234375,0.10533905029296875,-1.4250574111938477,-1.5298724174499512
1761307743882172200,9.445172119140626,-0.2844820022583008,-1.5258045196533203,-1.7181758880615234
1761307743898990000,9.461989990234375,-0.7708377838134766,-1.6424540281295776,-1.8797082901000977
1761307743915820000,9.478820068359376,-1.1224565505981445,-1.67252516746521,-2.090024948120117
1761307743932637400,9.495637451171875,-1.3255243301391602,-1.7456904649734497,-2.137990951538086
1761307743949475800,9.512475830078126,-1.2591376304626465,-1.766204595565796,-2.1116127967834473
1761307743966294300,9.529294189453125,-1.3532443046569824,-1.7527157068252563,-2.1186952590942383
1761307743983116000,9.546115966796876,-1.4936285018920898,-1.741386890411377,-2.1429834365844727
1761307743999935500,9.562935546875,-1.6448087692260742,-1.7219599485397339,-2.1660995483398438
1761307744016780300,9.5797802734375,-1.7851991653442383,-1.7422959804534912,-2.0473103523254395
1761307744033564700,9.596564697265626,-1.985384464263916,-1.8215073347091675,-1.7978096008300781
1761307744050398500,9.6133984375,-2.124413013458252,-1.9249484539031982,-1.5366568565368652
1761307744067224000,9.63022412109375,-2.109488010406494,-2.111642599105835,-1.1685781478881836
1761307744084049200,9.647049072265625,-2.135038375854492,-2.344341278076172,-0.8332462310791016
1761307744100831700,9.663831787109375,-2.1255555152893066,-2.4941318035125732,-0.6647911071777344
1761307744117675300,9.68067529296875,-1.8036704063415527,-2.5700740814208984,-0.47909069061279297
1761307744134493200,9.6974931640625,-1.2757577896118164,-2.635744094848633,-0.21049165725708008
1761307744151318000,9.714318115234375,-0.7689261436462402,-2.4861462116241455,-0.015307903289794922
1761307744168127200,9.731127197265625,-0.34664344787597656,-2.2903034687042236,0.1101994514465332
1761307744184948200,9.7479482421875,-0.03527545928955078,-2.156466245651245,0.18370532989501953
1761307744201803800,9.7648037109375,0.15601491928100586,-2.0513691902160645,0.22346735000610352
1761307744218618000,9.7816181640625,0.31815576553344727,-1.924476981163025,0.32007455825805664
1761307744235440400,9.7984404296875,0.510777473449707,-1.6548161506652832,0.38852596282958984
1761307744252262100,9.81526220703125,0.7287230491638184,-0.9770333766937256,0.3748812675476074
1761307744269083000,9.832082763671876,0.8067145347595215,-0.17986798286437988,0.3409433364868164
1761307744285904600,9.848904541015624,0.774836540222168,0.45779991149902344,0.39390993118286133
1761307744302722600,9.86572265625,0.5478329658508301,0.6508471965789795,0.5320396423339844
1761307744319552300,9.88255224609375,0.26709604263305664,0.6064910888671875,0.5360593795776367
1761307744336352800,9.899352783203126,0.19533681869506836,0.41104984283447266,0.5892243385314941
1761307744353177000,9.916177001953125,0.5876998901367188,0.3245275020599365,0.7460212707519531
1761307744369996500,9.93299658203125,1.0283794403076172,0.44399571418762207,1.122579574584961
1761307744386823400,9.949823486328125,1.1576528549194336,0.6468102931976318,1.6548199653625488
1761307744403642000,9.96664208984375,1.3713798522949219,0.9721171855926514,2.118192672729492
1761307744420458200,9.983458251953126,1.7905492782592773,1.4897446632385254,2.2262797355651855
1761307744437302800,10.000302734375,2.382305145263672,2.15860915184021,2.2056045532226562
1761307744454107600,10.017107666015624,3.125345230102539,3.0951337814331055,2.2023019790649414
1761307744470900500,10.033900390625,2.0260448455810547,3.6353445053100586,2.214402198791504
1761307744487744500,10.05074462890625,2.466280937194824,3.691690444946289,1.9697527885437012
1761307744504579300,10.067579345703125,3.3140902519226074,4.414896011352539,1.6987228393554688
1761307744521413000,10.0844130859375,3.7280492782592773,4.258851528167725,2.07534122467041
1761307744538211800,10.1012119140625,3.8799800872802734,4.046713829040527,2.7835326194763184
1761307744555050000,10.118050048828126,4.354089260101318,3.3031013011932373,2.8546953201293945
1761307744571851500,10.1348515625,4.247536659240723,2.544095754623413,2.581023693084717
1761307744588680700,10.1516806640625,4.9396796226501465,2.3300509452819824,1.7609801292419434
1761307744605488400,10.16848828125,4.953250885009766,2.0157251358032227,1.0293545722961426
1761307744622322700,10.18532275390625,4.7456183433532715,1.2785435914993286,0.36870479583740234
1761307744639142000,10.202141845703125,3.688863754272461,0.7351024150848389,-0.09626054763793945
1761307744655969500,10.218969482421874,3.4977407455444336,1.4353806972503662,-1.1877384185791016
1761307744672788000,10.2357880859375,1.853065013885498,2.1604835987091064,-2.0140223503112793
1761307744689626600,10.252626708984375,0.15059137344360352,2.3834943771362305,-2.686276435852051
1761307744706443500,10.269443603515626,-0.48671865463256836,1.4183799028396606,-2.6231300830841064
1761307744723267800,10.286267822265625,-0.5762362480163574,0.8192216157913208,-2.3930130004882812
1761307744740084000,10.303083984375,-0.3059525489807129,0.6287667751312256,-2.050276279449463
1761307744756897500,10.3198974609375,0.025765419006347656,0.5456652045249939,-1.9508709907531738
1761307744773731300,10.3367314453125,0.704310417175293,-0.10716402530670166,-1.879709005355835
1761307744790536000,10.353535888671875,0.8525800704956055,-0.7490102648735046,-1.491865634918213
1761307744807374000,10.3703740234375,0.5334405899047852,-1.0308923721313477,-1.0987310409545898
1761307744824175900,10.38717578125,0.26163196563720703,-0.7669742703437805,-0.9169888496398926
1761307744841004000,10.404004150390625,-0.14469242095947266,-0.4654983878135681,-0.813300609588623
1761307744857823000,10.420822998046875,-0.5266485214233398,-0.6128032207489014,-0.6620292663574219
1761307744874649900,10.43764990234375,-0.2929878234863281,-0.8535645604133606,-0.3242626190185547
1761307744891468300,10.45446826171875,0.055622100830078125,-0.9301117658615112,-0.20145702362060547
1761307744908295200,10.471295166015626,0.4536619186401367,-0.9578122496604919,-0.42290306091308594
1761307744925130500,10.488130615234375,0.5644092559814453,-0.8178649544715881,-0.7950003147125244
1761307744941945900,10.50494580078125,0.10886573791503906,-0.4264603853225708,-1.3776600360870361
1761307744958773000,10.52177294921875,-0.5271730422973633,-0.36071690917015076,-1.3279938697814941
1761307744975590700,10.538590576171876,-0.49933528900146484,-0.5015787482261658,-0.7195224761962891
1761307744992412000,10.555411865234374,0.10094356536865234,-0.6604515910148621,-0.3465592861175537
1761307745009234000,10.57223388671875,0.6227302551269531,-0.6846508979797363,-0.38991761207580566
1761307745026057700,10.5890576171875,0.5592212677001953,-0.7632700204849243,-0.5584206581115723
1761307745042858000,10.60585791015625,0.12543869018554688,-0.9538237452507019,-0.454085111618042
1761307745059682600,10.6226826171875,-0.514744758605957,-0.9815607070922852,-0.17198610305786133
1761307745076498200,10.639498291015625,-1.1988935470581055,-1.0559368133544922,0.05116915702819824
1761307745093332700,10.656332763671875,-1.2181119918823242,-0.8082882165908813,0.3181116580963135
1761307745110149600,10.673149658203124,-0.8564319610595703,-1.022883415222168,0.34065937995910645
1761307745126971100,10.68997119140625,-0.2646932601928711,-0.9927444458007812,0.045993804931640625
1761307745143792600,10.706792724609375,-0.11104011535644531,-1.2553839683532715,-0.18942856788635254
1761307745160614000,10.72361376953125,-0.21419525146484375,-1.4874728918075562,0.21130084991455078
1761307745177453300,10.740453369140624,-0.7003889083862305,-1.4673576354980469,0.2447359561920166
1761307745194267600,10.757267578125,-0.9755525588989258,-1.3816598653793335,-0.10564565658569336
1761307745211096800,10.774096923828125,-1.5810651779174805,-1.220249891281128,-0.5797882080078125
1761307745227914200,10.790914306640625,-2.1739349365234375,-1.0636892318725586,-0.9915695190429688
1761307745244739800,10.80773974609375,-2.4473676681518555,-1.0854462385177612,-0.9864907264709473
1761307745261554400,10.824554443359375,-2.4679689407348633,-0.756385862827301,-1.0680650472640991
1761307745278368000,10.841367919921876,-2.4109373092651367,-0.7024163603782654,-0.9826700687408447
1761307745295172400,10.85817236328125,-0.6573619842529297,-0.6957373023033142,-0.8655974864959717
1761307745312002000,10.875001953125,-0.30661487579345703,-0.5587986707687378,-0.6696293354034424
1761307745328830500,10.89183056640625,-1.0695571899414062,-0.5135331153869629,-0.40376996994018555
1761307745345637400,10.908637451171876,-1.494783878326416,-0.13177847862243652,-0.39986705780029297
1761307745362473200,10.92547314453125,-1.0161495208740234,-0.01897120475769043,-0.3530442714691162
