time,seconds_elapsed,z,y,x
1761486733676324000,0.240323974609375,0.31456947326660156,0.42669057846069336,0.1540064811706543
1761486733693134300,0.25713427734375,0.5727410316467285,-0.09261822700500488,0.30133962631225586
1761486733709976600,0.2739765625,0.8926477432250977,-0.7042936086654663,1.0211610794067383
1761486733726802200,0.29080224609375,1.6920104026794434,-0.8042103052139282,2.003535270690918
1761486733743613700,0.30761376953125,1.8657007217407227,-1.2867318391799927,2.721013069152832
1761486733760455200,0.324455078125,1.5169167518615723,-1.5818326473236084,2.6391592025756836
1761486733777281300,0.34128125,0.9587903022766113,-1.5454293489456177,2.1144585609436035
1761486733794107000,0.35810693359375,0.38945722579956055,-1.810865879058838,1.670055866241455
1761486733810933200,0.374933349609375,-0.15576982498168945,-2.16426682472229,1.1376309394836426
1761486733827761700,0.39176171875,-0.7971162796020508,-2.424867868423462,0.7334694862365723
1761486733844587000,0.4085869140625,-1.383923053741455,-2.7846548557281494,0.5105447769165039
1761486733861410300,0.425410400390625,-1.70381498336792,-3.14709734916687,0.29180335998535156
1761486733878222000,0.44222216796875,-1.8513078689575195,-3.411000967025757,-0.01650094985961914
1761486733895063800,0.459063720703125,-1.724456787109375,-3.5357768535614014,-0.2294788360595703
1761486733911890200,0.47589013671875,-1.9865636825561523,-3.6515045166015625,-0.3191227912902832
1761486733928699400,0.492699462890625,-2.1752266883850098,-3.771775722503662,-0.3806014060974121
1761486733945530400,0.5095302734375,-2.2716307640075684,-3.7418251037597656,-0.42314910888671875
1761486733962368300,0.5263681640625,-2.486438751220703,-3.9208502769470215,-0.4416179656982422
1761486733979181800,0.543181884765625,-2.7011075019836426,-4.396862983703613,-0.16428661346435547
1761486733996006700,0.560006591796875,-2.638634204864502,-4.769582748413086,0.1362156867980957
1761486734012832300,0.576832275390625,-2.2739949226379395,-4.93393087387085,0.4031963348388672
1761486734029660200,0.59366015625,-1.8637380599975586,-5.133867263793945,0.729060173034668
1761486734046485800,0.61048583984375,-1.788717269897461,-5.194666385650635,0.9169669151306152
1761486734063311400,0.627311279296875,-1.6517024040222168,-5.2347612380981445,0.9113225936889648
1761486734080125000,0.644125,-1.5928616523742676,-6.03053617477417,1.696824550628662
1761486734096964400,0.66096435546875,-1.907567024230957,-7.666406631469727,2.718139171600342
1761486734113789700,0.677789794921875,-1.862912654876709,-8.20984172821045,2.888397693634033
1761486734130615800,0.69461572265625,-0.7673835754394531,-5.962008476257324,1.5785126686096191
1761486734147442200,0.711442138671875,0.49180030822753906,-3.2941486835479736,0.3637809753417969
1761486734164268300,0.728268310546875,0.6754245758056641,-3.020864486694336,0.6630864143371582
1761486734181105200,0.745105224609375,-0.13746929168701172,-4.3805437088012695,1.8439502716064453
1761486734197940700,0.761940673828125,-1.4528775215148926,-5.288215637207031,2.2996859550476074
1761486734214743800,0.778743896484375,-2.0673112869262695,-5.3698625564575195,2.071147918701172
1761486734231582500,0.79558251953125,-2.1017861366271973,-5.2440996170043945,1.594724178314209
1761486734248417300,0.812417236328125,-1.7251873016357422,-5.053783893585205,1.1925406455993652
1761486734265238800,0.82923876953125,-1.2752866744995117,-4.546045303344727,0.7479524612426758
1761486734282065000,0.84606494140625,-0.8821811676025391,-3.4210519790649414,0.7781696319580078
1761486734298891000,0.86289111328125,-0.16785240173339844,-2.9149158000946045,0.8363118171691895
1761486734315717600,0.879717529296875,-0.03440570831298828,-2.5080575942993164,1.1380863189697266
1761486734332543200,0.896543212890625,-0.1597585678100586,-2.164058208465576,1.0893750190734863
1761486734349376300,0.913376220703125,-0.5674428939819336,-1.9468998908996582,0.8511581420898438
1761486734366195000,0.93019482421875,-1.2258186340332031,-1.5210620164871216,0.23775482177734375
1761486734383027700,0.94702783203125,-2.056507110595703,-0.9993659257888794,-0.5075135231018066
1761486734399831300,0.963831298828125,-2.696747303009033,-0.7855806350708008,-1.1694927215576172
1761486734416654300,0.980654296875,-3.219696044921875,-0.7430059909820557,-1.5021376609802246
1761486734433503200,0.997503173828125,-3.464003086090088,-1.045750379562378,-1.5507330894470215
1761486734450310700,1.014310546875,-3.385373115539551,-1.2392492294311523,-1.647223949432373
1761486734467122000,1.031121826171875,-3.080986976623535,-1.0300767421722412,-1.7975339889526367
1761486734483964700,1.047964599609375,-2.6970701217651367,-0.7345150113105774,-1.741328477859497
1761486734500784600,1.06478466796875,-2.4536008834838867,-0.5723139047622681,-1.4922146797180176
1761486734517614000,1.081614013671875,-2.1763062477111816,-0.3909217119216919,-1.1372802257537842
1761486734534446300,1.0984462890625,-1.7096176147460938,-0.30754971504211426,-0.7230081558227539
1761486734551269400,1.115269287109375,-0.7985663414001465,-0.3751622438430786,-0.31952953338623047
1761486734568095500,1.132095458984375,0.3961677551269531,-0.4851374626159668,0.261260986328125
1761486734584910800,1.148910888671875,1.0241374969482422,-0.6824491024017334,1.2222566604614258
1761486734601744400,1.165744384765625,0.947606086730957,-0.661226749420166,2.0742411613464355
1761486734618577000,1.182576904296875,0.6194372177124023,-0.8172645568847656,2.5978732109069824
1761486734635400000,1.19939990234375,0.2845792770385742,-1.2472827434539795,3.1229043006896973
1761486734652226300,1.216226318359375,0.5160684585571289,-1.2816250324249268,3.392155647277832
1761486734669069000,1.233069091796875,1.8267545700073242,-0.5376737117767334,3.3966126441955566
1761486734685892900,1.249892822265625,3.202031135559082,0.49753332138061523,3.8486452102661133
1761486734702717400,1.266717529296875,3.825930595397949,1.0985758304595947,4.631702899932861
1761486734719540500,1.28354052734375,3.310429573059082,1.3729056119918823,5.105795383453369
1761486734736374500,1.30037451171875,2.1919021606445312,1.3676111698150635,4.982419967651367
1761486734753196500,1.317196533203125,0.9047670364379883,1.200774908065796,4.306767463684082
1761486734770022400,1.3340224609375,-0.2361602783203125,1.0506598949432373,3.143770217895508
1761486734786849300,1.350849365234375,-0.9845585823059082,1.1294457912445068,2.1517224311828613
1761486734803681000,1.367680908203125,-1.3016653060913086,0.4849693775177002,2.617556095123291
1761486734820499700,1.384499755859375,-1.2227787971496582,-0.28861498832702637,3.707810401916504
1761486734837329000,1.401328857421875,-1.3640422821044922,-0.6102159023284912,4.6031670570373535
1761486734854137600,1.4181376953125,-1.769996166229248,-0.8869125843048096,5.1388678550720215
1761486734870974700,1.434974609375,-2.3312878608703613,-1.178762435913086,5.035616397857666
1761486734887809800,1.451809814453125,-3.314998149871826,-1.5374325513839722,4.040153503417969
1761486734904631600,1.468631591796875,-3.5366222858428955,-1.7441831827163696,3.1715850830078125
1761486734921452000,1.4854521484375,-3.2205986976623535,-2.143585205078125,2.5030174255371094
1761486734938285800,1.502285888671875,-2.552851676940918,-2.6161282062530518,1.7796425819396973
1761486734955084300,1.519084228515625,-2.245299816131592,-2.654752731323242,0.688316822052002
1761486734971919000,1.535919189453125,-2.4530029296875,-2.903519630432129,-0.10598897933959961
1761486734988752000,1.552751953125,-3.108032703399658,-3.2422878742218018,-0.9879331588745117
1761486735005574400,1.569574462890625,-3.535951852798462,-3.400179862976074,-1.2694664001464844
1761486735022407200,1.5864072265625,-3.5802230834960938,-3.724552631378174,-1.1470122337341309
1761486735039214000,1.603214111328125,-3.721328020095825,-3.928614854812622,-0.9847240447998047
1761486735056040200,1.620040283203125,-3.560873031616211,-4.2935590744018555,-0.8279895782470703
1761486735072879000,1.636879150390625,-3.2908215522766113,-4.482010841369629,-0.6291494369506836
1761486735089705500,1.65370556640625,-3.1279540061950684,-4.821353912353516,-0.551508903503418
1761486735106531600,1.670531494140625,-3.283849000930786,-5.191781520843506,-0.2234487533569336
1761486735123358000,1.68735791015625,-3.801772117614746,-5.755528926849365,0.21125459671020508
1761486735140183600,1.70418359375,-4.20036506652832,-5.899660110473633,0.20891618728637695
1761486735157027000,1.721027099609375,-4.2603678703308105,-5.930193901062012,0.26793766021728516
1761486735173849900,1.737849853515625,-3.9363396167755127,-5.962785720825195,0.1245431900024414
1761486735190676200,1.75467626953125,-3.311605930328369,-5.655048370361328,-0.26248645782470703
1761486735207501600,1.77150146484375,-2.8100876808166504,-6.189927101135254,0.6594090461730957
1761486735224328400,1.788328369140625,-3.069823741912842,-7.122943878173828,1.7598590850830078
1761486735241139700,1.8051396484375,-3.095076560974121,-6.160370826721191,1.393376350402832
1761486735257975300,1.821975341796875,-2.052347183227539,-4.19638204574585,0.5996575355529785
1761486735274827800,1.838827880859375,-0.7557797431945801,-2.7215538024902344,1.5198063850402832
1761486735291633000,1.8556328125,0.2895221710205078,-3.191277027130127,3.21287202835083
1761486735308453000,1.872453125,0.08017683029174805,-3.589845895767212,3.696427822113037
1761486735325289200,1.889289306640625,-0.2965383529663086,-4.3037614822387695,3.598785400390625
1761486735342106600,1.906106689453125,-1.8869619369506836,-4.26896858215332,3.1927480697631836
1761486735358941400,1.92294140625,-2.200165271759033,-4.1801838874816895,2.699821949005127
1761486735375768800,1.939768798828125,-1.7925643920898438,-3.4508092403411865,1.8820676803588867
1761486735392584000,1.956583984375,-0.9905095100402832,-2.766464948654175,1.1345810890197754
1761486735409415400,1.97341552734375,-0.2333979606628418,-2.1758780479431152,0.46541500091552734
1761486735426237400,1.990237548828125,0.11147260665893555,-1.8029412031173706,0.21282482147216797
1761486735443058700,2.00705859375,-0.7676906585693359,-1.2871489524841309,-0.5907697677612305
1761486735459864800,2.02386474609375,-1.3337345123291016,0.05099129676818848,-1.2526779174804688
1761486735476711000,2.0407109375,-1.9579753875732422,1.0993903875350952,-1.7487106323242188
1761486735493531100,2.05753125,-2.2101845741271973,1.1614288091659546,-1.6759018898010254
1761486735510358500,2.074358642578125,-1.8952841758728027,0.6791644096374512,-1.1999492645263672
1761486735527185000,2.091184814453125,-1.4709081649780273,0.46104705333709717,-0.4565720558166504
1761486735544010500,2.108010498046875,-0.9560980796813965,0.7473580837249756,0.29995012283325195
1761486735560834000,2.124833984375,-0.4797377586364746,2.1346964836120605,0.5147881507873535
1761486735577665800,2.141665771484375,-0.846440315246582,3.5610289573669434,-0.42276573181152344
1761486735594489300,2.1584892578125,-1.2686052322387695,5.074339866638184,-1.9725475311279297
1761486735611315000,2.17531494140625,-0.87103271484375,5.907026290893555,-2.504322052001953
1761486735628128500,2.19212841796875,-0.6164035797119141,6.151800155639648,-1.070596694946289
1761486735644984600,2.208984619140625,0.42551612854003906,5.870221138000488,1.0671405792236328
1761486735661807900,2.225807861328125,0.9158844947814941,5.578569412231445,2.493043899536133
1761486735678616800,2.242616943359375,0.4579191207885742,5.9579176902771,3.010472297668457
1761486735695459000,2.259458984375,0.3986172676086426,6.483448028564453,2.7351622581481934
1761486735712283100,2.276283203125,0.21103191375732422,6.5757575035095215,2.9851317405700684
1761486735729115600,2.29311572265625,0.2689027786254883,5.998099327087402,4.136303424835205
1761486735745929500,2.309929443359375,0.09513139724731445,4.52504825592041,5.208914756774902
1761486735762764500,2.3267646484375,-1.0567989349365234,3.714550495147705,5.379043102264404
1761486735779590100,2.343590087890625,-0.8682656288146973,3.8499035835266113,5.213862895965576
1761486735796416500,2.36041650390625,0.49332237243652344,3.764936685562134,4.985433578491211
1761486735813240800,2.37724072265625,1.5705885887145996,3.7364721298217773,4.109339237213135
1761486735830069200,2.3940693359375,1.802506446838379,4.111024856567383,2.579277992248535
1761486735846894600,2.41089453125,1.8881034851074219,3.53145170211792,1.6299314498901367
1761486735863721500,2.427721435546875,1.6109352111816406,1.8161275386810303,1.8801894187927246
1761486735880547300,2.44454736328125,0.7901287078857422,0.6953506469726562,2.145174503326416
1761486735897373200,2.461373291015625,0.40653419494628906,0.16086411476135254,2.4497642517089844
1761486735914199000,2.478198974609375,0.26310110092163086,-0.4333467483520508,3.1293258666992188
1761486735931026000,2.49502587890625,-0.05497932434082031,-0.6517751216888428,3.553586006164551
1761486735947834000,2.511834228515625,0.12726640701293945,-0.7801554203033447,3.459475517272949
1761486735964664000,2.5286640625,-0.15959405899047852,-0.8059096336364746,3.1165261268615723
1761486735981490000,2.545489990234375,-0.40529489517211914,-0.773491382598877,2.531676769256592
1761486735998316500,2.562316650390625,-0.7214250564575195,-1.017709732055664,2.251267910003662
1761486736015142000,2.579141845703125,-1.1581525802612305,-1.3254104852676392,1.677046298980713
1761486736031968500,2.595968505859375,-1.658226490020752,-1.448364019393921,1.1866869926452637
1761486736048794400,2.61279443359375,-2.297334671020508,-1.6920225620269775,0.5996584892272949
1761486736065621000,2.62962109375,-2.643815040588379,-1.8826464414596558,0.039331912994384766
1761486736082443500,2.646443603515625,-2.871408462524414,-2.189879894256592,-0.6765451431274414
1761486736099276000,2.663276123046875,-2.91007137298584,-2.5913586616516113,-1.0748066902160645
1761486736116086000,2.6800859375,-3.0005831718444824,-3.001368522644043,-1.2509207725524902
1761486736132938500,2.6969384765625,-3.2060348987579346,-3.2562146186828613,-1.4816713333129883
1761486736149754000,2.713754150390625,-3.3761823177337646,-3.471247911453247,-1.5763540267944336
1761486736166591500,2.730591552734375,-3.708242177963257,-3.784423351287842,-1.6906442642211914
1761486736183419000,2.7474189453125,-3.931795597076416,-4.050363540649414,-1.6365890502929688
1761486736200241700,2.76424169921875,-3.980487585067749,-4.229310035705566,-1.551173210144043
1761486736217069600,2.781069580078125,-3.450430393218994,-4.404038906097412,-1.4911088943481445
1761486736233888800,2.797888671875,-4.090245246887207,-4.9034247398376465,-0.6476478576660156
1761486736250728400,2.814728515625,-3.9997708797454834,-5.392800331115723,-0.17917633056640625
1761486736267545300,2.83154541015625,-3.9875240325927734,-5.59910249710083,0.30620431900024414
1761486736284373200,2.848373291015625,-3.7468159198760986,-5.585270881652832,0.6328825950622559
1761486736301187300,2.865187255859375,-3.6208395957946777,-5.911391258239746,1.2998838424682617
1761486736318026500,2.882026611328125,-3.883772611618042,-6.864958763122559,1.9765214920043945
1761486736334850800,2.898850830078125,-3.828641414642334,-6.607073783874512,1.6820764541625977
1761486736351679700,2.9156796875,-2.9662532806396484,-4.423046588897705,0.36426639556884766
1761486736368504800,2.9325048828125,-1.9698872566223145,-2.730144739151001,0.06298112869262695
1761486736385326300,2.949326416015625,-1.4622535705566406,-2.7114601135253906,1.215390682220459
1761486736402161000,2.966160888671875,-1.5455708503723145,-3.616773843765259,2.7080063819885254
1761486736418983000,2.98298291015625,-1.9108119010925293,-4.00777530670166,3.382058620452881
1761486736435792100,2.999792236328125,-2.122300148010254,-3.789888620376587,3.307321071624756
1761486736452621300,3.016621337890625,-2.297757148742676,-3.3715994358062744,2.8765549659729004
1761486736469448200,3.0334482421875,-2.070183038711548,-2.8443801403045654,2.4092893600463867
1761486736486273500,3.0502734375,-1.6328129768371582,-2.1618590354919434,1.7445087432861328
1761486736503099600,3.067099609375,-1.1205229759216309,-1.2494616508483887,0.8169536590576172
1761486736519925800,3.08392578125,-0.687187671661377,-0.38429784774780273,-0.06139659881591797
1761486736536752400,3.10075244140625,-0.4898500442504883,0.31499600410461426,-0.6538543701171875
1761486736553574400,3.117574462890625,-0.42993736267089844,0.7946271896362305,-0.8965630531311035
1761486736570402000,3.134402099609375,-0.3328251838684082,1.2601289749145508,-1.03928804397583
1761486736587233500,3.151233642578125,-0.19670391082763672,1.6785659790039062,-0.975132942199707
1761486736604056600,3.168056640625,-0.08574056625366211,2.0128326416015625,-0.7662715911865234
1761486736620885200,3.18488525390625,-0.1983661651611328,2.297111749649048,-0.44194841384887695
1761486736637719000,3.201718994140625,-0.3636603355407715,2.463369846343994,0.06369352340698242
1761486736654552600,3.218552490234375,-0.46142578125,2.6106820106506348,0.5648107528686523
1761486736671361000,3.235361083984375,-0.4421114921569824,2.8513264656066895,0.9360775947570801
1761486736688200200,3.2522001953125,-0.2098841667175293,3.064638614654541,1.4264731407165527
1761486736705033700,3.26903369140625,-0.0037403106689453125,3.2022037506103516,2.0166263580322266
1761486736721853000,3.28585302734375,0.20130491256713867,3.2944698333740234,2.586636543273926
1761486736738679800,3.3026796875,0.36777639389038086,3.492434024810791,3.031250476837158
1761486736755505200,3.319505126953125,0.4943728446960449,3.6757311820983887,3.3867101669311523
1761486736772331300,3.336331298828125,0.5789608955383301,3.817589282989502,3.762416362762451
1761486736789137400,3.353137451171875,0.5826973915100098,3.9185190200805664,4.064786434173584
1761486736805970400,3.369970458984375,0.6089272499084473,3.9406604766845703,4.364217281341553
1761486736822793200,3.386793212890625,0.7207651138305664,4.032268524169922,4.608141899108887
1761486736839619600,3.40361962890625,0.86956787109375,3.6736323833465576,5.262342929840088
1761486736856448300,3.4204482421875,0.8326296806335449,2.7092642784118652,6.058315277099609
1761486736873274600,3.437274658203125,1.1004853248596191,2.5569257736206055,6.362011909484863
1761486736890100500,3.4541005859375,1.438063621520996,3.3901896476745605,6.126497745513916
1761486736906923300,3.47092333984375,1.4696879386901855,4.361910343170166,5.8082990646362305
1761486736923756000,3.487756103515625,1.3066973686218262,4.75527286529541,5.744949817657471
1761486736940579000,3.5045791015625,1.0969371795654297,4.297519207000732,5.8488593101501465
1761486736957404700,3.52140478515625,0.9770817756652832,3.6296639442443848,5.773097038269043
1761486736974231000,3.53823095703125,0.9948287010192871,2.9123783111572266,5.805632591247559
1761486736991054000,3.55505419921875,1.1309542655944824,2.0782411098480225,6.287671089172363
1761486737007886800,3.571886962890625,1.0163588523864746,1.3673954010009766,6.859349250793457
1761486737024697900,3.58869775390625,0.43668174743652344,0.8828539848327637,6.790652751922607
1761486737041533400,3.605533447265625,-0.43666696548461914,0.5828890800476074,6.1182169914245605
1761486737058357800,3.622357666015625,-1.1652531623840332,0.32192230224609375,5.253969669342041
1761486737075188500,3.6391884765625,-1.640798807144165,0.10421371459960938,4.369686603546143
1761486737092013000,3.656012939453125,-1.9014766216278076,-0.10282516479492188,3.514024257659912
1761486737108838100,3.672838134765625,-1.9912185668945312,-0.3670945167541504,2.757566452026367
1761486737125679900,3.689679931640625,-2.000058174133301,-0.7200419902801514,2.2191638946533203
1761486737142506200,3.70650634765625,-2.1419548988342285,-1.155104637145996,1.7509222030639648
1761486737159315500,3.7233154296875,-2.458425998687744,-1.574122667312622,1.255903720855713
1761486737176158200,3.740158203125,-2.839909791946411,-1.960651159286499,0.6549510955810547
1761486737192984000,3.756984130859375,-3.2434239387512207,-2.2934083938598633,-0.007486820220947266
1761486737209807400,3.773807373046875,-3.460184097290039,-2.6869311332702637,-0.5288205146789551
1761486737226636000,3.790635986328125,-3.51173734664917,-3.258965015411377,-0.779693603515625
1761486737243462400,3.80746240234375,-3.4695487022399902,-3.757201671600342,-0.9330806732177734
1761486737260269300,3.824269287109375,-3.5022120475769043,-4.19642448425293,-0.9998536109924316
1761486737277111000,3.841111083984375,-3.54604434967041,-4.575105667114258,-0.9676775932312012
1761486737293944800,3.85794482421875,-3.5914857387542725,-4.821392059326172,-0.9767136573791504
1761486737310767400,3.874767333984375,-3.7219152450561523,-5.1573944091796875,-0.9691743850708008
1761486737327589000,3.891589111328125,-3.928220272064209,-5.630233287811279,-0.8899574279785156
1761486737344407000,3.908406982421875,-4.060285568237305,-6.070156097412109,-0.8594460487365723
1761486737361237000,3.925237060546875,-4.070060729980469,-6.323754787445068,-0.940617561340332
1761486737378079700,3.942079833984375,-3.96700382232666,-6.27743673324585,-1.201125144958496
1761486737394897700,3.958897705078125,-3.7565457820892334,-5.964834213256836,-1.594395637512207
1761486737411720400,3.975720458984375,-3.2515370845794678,-6.328469276428223,-1.138228416442871
1761486737428534500,3.992534423828125,-3.4019508361816406,-7.579928398132324,-0.09563875198364258
1761486737445361400,4.009361328125,-3.768587827682495,-7.937699317932129,-0.026153087615966797
1761486737462188300,4.026188232421875,-3.8963589668273926,-6.5349297523498535,-1.2127633094787598
1761486737479012900,4.043012939453125,-3.184730052947998,-4.685225963592529,-2.240419864654541
1761486737495842300,4.05984228515625,-1.8655600547790527,-3.5437982082366943,-1.9125370979309082
1761486737512667000,4.0766669921875,-0.7795772552490234,-3.877316474914551,-0.13892602920532227
1761486737529490700,4.09349072265625,-0.6215224266052246,-4.798884391784668,1.800642490386963
1761486737546321000,4.11032080078125,-0.9856500625610352,-5.251652717590332,2.659689426422119
1761486737563144700,4.127144775390625,-1.9204683303833008,-4.850275993347168,2.414785861968994
1761486737579971000,4.14397119140625,-2.8807120323181152,-4.388581275939941,2.059370994567871
1761486737596798200,4.160798095703125,-3.3370635509490967,-3.995887279510498,1.8410630226135254
1761486737613633500,4.177633544921875,-3.154315948486328,-3.472804069519043,1.5758590698242188
1761486737630467000,4.194467041015625,-2.6914291381835938,-2.5541019439697266,0.9900779724121094
1761486737647272700,4.211272705078125,-2.197354793548584,-1.6406893730163574,0.3851795196533203
1761486737664111600,4.228111572265625,-1.5946481227874756,-0.7476575374603271,-0.12246513366699219
1761486737680946000,4.24494580078125,-0.9717211723327637,0.00468897819519043,-0.2763667106628418
1761486737697767200,4.26176708984375,-0.44020509719848633,0.6778049468994141,-0.1611804962158203
1761486737714593800,4.27859375,0.020942211151123047,1.2938332557678223,0.07807254791259766
1761486737731420000,4.295419921875,0.37038564682006836,1.9754161834716797,0.4054718017578125
1761486737748246000,4.31224609375,0.41300392150878906,2.6075518131256104,0.7311925888061523
1761486737765049600,4.329049560546875,0.023283004760742188,3.1345157623291016,0.9714293479919434
1761486737781898200,4.345898193359375,-0.4692249298095703,3.5230093002319336,1.301795482635498
1761486737798724000,4.36272412109375,-0.7236819267272949,3.8130884170532227,1.7390899658203125
1761486737815550500,4.379550537109375,-0.5551323890686035,3.9450137615203857,2.1934094429016113
1761486737832377600,4.396377685546875,-0.14129352569580078,4.04809045791626,2.6391234397888184
1761486737849202400,4.413202392578125,0.3825840950012207,4.160444259643555,3.1324992179870605
1761486737866029000,4.430029052734375,0.9944186210632324,4.321648597717285,3.662341594696045
1761486737882856200,4.446856201171875,1.4784541130065918,4.531206130981445,4.244787693023682
1761486737899677200,4.46367724609375,1.667928695678711,4.6933746337890625,4.811258792877197
1761486737916493800,4.480493896484375,1.7455918788909912,4.786341190338135,5.2629008293151855
1761486737933319400,4.4973193359375,1.8133792877197266,4.916618347167969,5.5325517654418945
1761486737950146000,4.51414599609375,2.12785005569458,4.712563514709473,6.2097272872924805
1761486737966959000,4.530958984375,2.522035837173462,3.818883180618286,7.213266372680664
1761486737983787300,4.547787353515625,3.281496524810791,3.918598175048828,7.59493350982666
1761486738000603100,4.56460302734375,3.9858882427215576,5.139449119567871,7.551939010620117
1761486738017450200,4.5814501953125,3.893120527267456,6.286705493927002,7.545474052429199
1761486738034275800,4.59827587890625,3.048384428024292,7.060695648193359,7.187686920166016
1761486738051102200,4.615102294921875,2.071934461593628,7.191479206085205,6.446743011474609
1761486738067922700,4.631922607421875,1.7211148738861084,6.577691555023193,5.620236396789551
1761486738084775000,4.64877490234375,2.292334794998169,5.787135601043701,4.989370822906494
1761486738101594000,4.665593994140625,3.319652795791626,5.070461750030518,5.002497673034668
1761486738118420200,4.682420166015625,3.8354907035827637,4.047643661499023,5.672497272491455
1761486738135246300,4.699246337890625,3.4751741886138916,2.962461471557617,6.2571635246276855
1761486738152068900,4.71606884765625,2.4100639820098877,2.131927013397217,6.220178604125977
1761486738168902700,4.732902587890625,1.2502508163452148,1.6200752258300781,5.770303726196289
1761486738185725000,4.749724853515625,0.33243799209594727,1.2768120765686035,5.1367082595825195
1761486738202551000,4.766551025390625,0.013272285461425781,0.9233207702636719,4.458484172821045
1761486738219364900,4.78336474609375,-0.00906515121459961,0.5236673355102539,3.72647762298584
1761486738236202800,4.80020263671875,-0.08193588256835938,0.05825996398925781,2.8632845878601074
1761486738253029000,4.817029052734375,-0.34076976776123047,-0.46004247665405273,2.0416979789733887
1761486738269855500,4.83385546875,-0.6601982116699219,-1.0377991199493408,1.2925171852111816
1761486738286681900,4.850681884765625,-1.0161514282226562,-1.584136724472046,0.6625199317932129
1761486738303501600,4.86750146484375,-1.4064042568206787,-2.193695068359375,0.20434999465942383
1761486738320318000,4.88431787109375,-1.7806825637817383,-2.7972657680511475,-0.1485123634338379
1761486738337143800,4.901143798828125,-2.1587343215942383,-3.2167413234710693,-0.5125589370727539
1761486738353986000,4.917986083984375,-2.5100958347320557,-3.4711501598358154,-0.9394903182983398
1761486738370811600,4.934811767578125,-2.7035624980926514,-3.750196695327759,-1.2740397453308105
1761486738387638000,4.951637939453125,-2.842822551727295,-4.169808387756348,-1.4064102172851562
1761486738404434700,4.9684345703125,-2.977260112762451,-4.405192852020264,-1.6511282920837402
1761486738421257000,4.985257080078125,-3.134042263031006,-4.585457801818848,-1.8673396110534668
1761486738438102500,5.0021025390625,-3.340085744857788,-4.848015785217285,-1.8943734169006348
1761486738454929200,5.01892919921875,-3.5078675746917725,-5.216094017028809,-1.7392001152038574
1761486738471746600,5.03574658203125,-3.543644666671753,-5.456030368804932,-1.56557035446167
1761486738488577300,5.052577392578125,-3.5264599323272705,-5.453732967376709,-1.5536141395568848
1761486738505407200,5.0694072265625,-3.5216567516326904,-5.2911787033081055,-1.7053346633911133
1761486738522233300,5.0862333984375,-3.4052162170410156,-5.447659492492676,-1.4437532424926758
1761486738539059500,5.1030595703125,-3.4972009658813477,-6.202740669250488,-0.6885461807250977
1761486738555877000,5.119877197265625,-3.6685919761657715,-6.521182537078857,-0.48534727096557617
1761486738572728800,5.136728759765625,-3.6308250427246094,-5.523752212524414,-1.2645835876464844
1761486738589551600,5.153551513671875,-3.0960566997528076,-3.8010592460632324,-2.3209333419799805
1761486738606377500,5.17037744140625,-1.9343969821929932,-1.8160953521728516,-2.7366838455200195
1761486738623187500,5.1871875,-0.5849061012268066,-0.8867123126983643,-1.7083244323730469
1761486738640029700,5.20402978515625,-0.2524571418762207,-1.473928451538086,0.2297506332397461
1761486738656855800,5.220855712890625,-0.6977810859680176,-2.441149950027466,1.7504138946533203
1761486738673682200,5.23768212890625,-1.5223512649536133,-2.9137420654296875,2.277491569519043
1761486738690508500,5.254508544921875,-2.567094564437866,-2.825683832168579,2.268967628479004
1761486738707334400,5.27133447265625,-3.532675266265869,-2.6160597801208496,2.351498603820801
1761486738724160500,5.288160400390625,-3.9077796936035156,-2.318603277206421,2.5244483947753906
1761486738740996400,5.304996337890625,-3.482801914215088,-1.6656594276428223,2.4085044860839844
1761486738757813000,5.32181298828125,-2.667123317718506,-0.8748934268951416,1.8639507293701172
1761486738774642000,5.338641845703125,-1.8342742919921875,-0.1755833625793457,1.2530393600463867
1761486738791444700,5.35544482421875,-1.0243198871612549,0.4387507438659668,0.7876009941101074
1761486738808255700,5.372255859375,-0.16916131973266602,1.0654058456420898,0.4743461608886719
1761486738825117000,5.389116943359375,0.7061004638671875,1.636608600616455,0.5046987533569336
1761486738841939000,5.40593896484375,1.4022495746612549,2.257261276245117,0.6088414192199707
1761486738858773000,5.42277294921875,1.705167531967163,2.849621295928955,0.7532391548156738
1761486738875595500,5.439595458984375,1.6381566524505615,3.2583060264587402,0.9538793563842773
1761486738892404700,5.45640478515625,1.505849838256836,3.59066104888916,1.164731502532959
1761486738909233700,5.473233642578125,1.4144213199615479,3.86898136138916,1.4186983108520508
1761486738926058800,5.490058837890625,1.4842066764831543,4.12685489654541,1.7449455261230469
1761486738942887000,5.506886962890625,1.4764466285705566,4.390507698059082,2.0458602905273438
1761486738959712300,5.523712158203125,1.3598155975341797,4.658766746520996,2.4470319747924805
1761486738976537900,5.540537841796875,1.274953842163086,4.916530609130859,2.828433036804199
1761486738993364200,5.5573642578125,1.205207109451294,5.17127799987793,3.1987814903259277
1761486739010190600,5.574190673828125,1.188671588897705,5.365935802459717,3.5080389976501465
1761486739027016700,5.5910166015625,1.236114740371704,5.480442047119141,3.7562170028686523
1761486739043842300,5.60784228515625,1.4799058437347412,5.47769832611084,4.067380428314209
1761486739060685800,5.624685791015625,1.8037936687469482,5.515872955322266,4.4512200355529785
1761486739077508900,5.6415087890625,2.171229124069214,5.5079851150512695,4.996131896972656
1761486739094334700,5.658334716796875,2.4918160438537598,4.631153106689453,5.934159278869629
1761486739111160800,5.675160888671875,2.7191998958587646,3.767788887023926,6.22285270690918
1761486739127986700,5.691986572265625,3.519287586212158,4.174864292144775,5.825475692749023
1761486739144813300,5.708813232421875,4.17689323425293,4.850275039672852,5.559617042541504
1761486739161639200,5.72563916015625,4.13901424407959,5.219487190246582,5.4199347496032715
1761486739178465000,5.742465087890625,3.675414562225342,4.677375316619873,5.352394104003906
1761486739195291100,5.759291015625,3.3265509605407715,3.627882957458496,5.106959342956543
1761486739212116700,5.77611669921875,3.5923266410827637,2.6921839714050293,4.8600687980651855
1761486739228943000,5.792943115234375,4.0231757164001465,2.033010959625244,4.702680587768555
1761486739245752600,5.809752685546875,4.194457530975342,1.5997257232666016,4.509195804595947
1761486739262595600,5.826595703125,4.007887840270996,1.478957176208496,3.975114345550537
1761486739279422000,5.843421875,3.570789098739624,1.5990033149719238,3.199247360229492
1761486739296248000,5.860248046875,3.1210100650787354,1.706770896911621,2.46295166015625
1761486739313065200,5.877065185546875,2.8240561485290527,1.78224778175354,1.8043560981750488
1761486739329908700,5.89390869140625,2.632131814956665,1.687880039215088,1.407022476196289
1761486739346726700,5.9107265625,2.4892466068267822,1.4647905826568604,1.1428852081298828
1761486739363552300,5.92755224609375,2.2678723335266113,1.093116283416748,0.9172377586364746
1761486739380374500,5.94437451171875,1.9978575706481934,0.5752213001251221,0.6768641471862793
1761486739397190700,5.961190673828125,1.6788537502288818,-0.09660840034484863,0.4321002960205078
1761486739414016800,5.978016845703125,1.1730899810791016,-0.7763426303863525,0.16037845611572266
1761486739430830000,5.994830078125,0.6968989372253418,-1.4239540100097656,-0.23148059844970703
1761486739447668700,6.011668701171875,0.44730424880981445,-1.9637172222137451,-0.6570043563842773
1761486739464495000,6.0284951171875,0.3282351493835449,-2.5195977687835693,-0.9837503433227539
1761486739481318400,6.045318359375,0.20626258850097656,-3.1002044677734375,-1.2060785293579102
1761486739498150700,6.062150634765625,-0.02583456039428711,-3.6855273246765137,-1.4867000579833984
1761486739514973200,6.07897314453125,-0.27034950256347656,-4.136112689971924,-1.9219093322753906
1761486739531799600,6.095799560546875,-0.37141942977905273,-4.503469944000244,-2.306790351867676
1761486739548643000,6.11264306640625,-0.37034153938293457,-4.817878723144531,-2.5077433586120605
1761486739565461500,6.12946142578125,-0.3415181636810303,-5.055771827697754,-2.702578067779541
1761486739582286800,6.146286865234375,-0.36603593826293945,-5.294826984405518,-2.8326187133789062
1761486739599114000,6.163114013671875,-0.42856311798095703,-5.402016639709473,-2.9590835571289062
1761486739615938300,6.179938232421875,-0.4642658233642578,-5.244940757751465,-3.107929229736328
1761486739632771800,6.196771728515625,-0.277951717376709,-4.90405797958374,-3.2025575637817383
1761486739649582000,6.21358203125,-0.24318647384643555,-5.34364652633667,-2.67855167388916
1761486739666424300,6.23042431640625,-1.0172977447509766,-5.9100542068481445,-2.297598361968994
1761486739683251000,6.2472509765625,-1.628610610961914,-5.653870582580566,-2.727875232696533
1761486739700074200,6.26407421875,-1.7879581451416016,-4.242905616760254,-3.669252872467041
1761486739716900600,6.280900634765625,-1.0987098217010498,-2.907562494277954,-3.9023470878601074
1761486739733726200,6.297726318359375,-0.26343345642089844,-2.3966379165649414,-3.0063443183898926
1761486739750552600,6.314552490234375,0.01168060302734375,-2.784355401992798,-1.7327523231506348
1761486739767378700,6.331378662109375,-0.21914291381835938,-3.278146266937256,-0.7338380813598633
1761486739784205000,6.348205078125,-0.723322868347168,-3.5062003135681152,-0.2340412139892578
1761486739801030700,6.36503076171875,-1.1456100940704346,-3.526608943939209,0.015534400939941406
1761486739817857300,6.381857177734375,-1.364290714263916,-3.4769210815429688,0.32299041748046875
1761486739834671900,6.398671875,-1.3140044212341309,-3.272736072540283,0.7739686965942383
1761486739851505000,6.4155048828125,-1.2461707592010498,-2.8543577194213867,1.2309942245483398
1761486739868333600,6.43233349609375,-1.240795373916626,-2.184657573699951,1.5438146591186523
1761486739885144000,6.44914404296875,-1.4501042366027832,-1.3911221027374268,1.5564088821411133
1761486739901974000,6.46597412109375,-1.826380729675293,-0.6375024318695068,1.4109153747558594
1761486739918799600,6.482799560546875,-2.114272117614746,-0.07187008857727051,1.285212516784668
1761486739935626000,6.4996259765625,-2.0950796604156494,0.4022822380065918,1.4387693405151367
1761486739952452400,6.516452392578125,-1.8596439361572266,0.7502973079681396,1.727921962738037
1761486739969278500,6.533278564453125,-1.3592398166656494,1.1036453247070312,1.7621469497680664
1761486739986090200,6.55009033203125,-1.27783203125,1.5910849571228027,1.7575650215148926
1761486740002915000,6.5669150390625,-1.3238248825073242,1.9515047073364258,1.8941335678100586
1761486740019759400,6.58375927734375,-1.2824206352233887,2.2373533248901367,1.872889518737793
1761486740036600000,6.60060009765625,-1.1621637344360352,2.4845690727233887,1.7734870910644531
1761486740053420300,6.617420166015625,-0.8764891624450684,2.753713369369507,1.7070355415344238
1761486740070248200,6.634248291015625,-0.5893924236297607,3.045713424682617,1.9691367149353027
1761486740087073300,6.6510732421875,-0.511016845703125,3.221191883087158,2.41493558883667
1761486740103902200,6.667902099609375,-0.5046186447143555,3.387207508087158,2.672706127166748
1761486740120726500,6.6847265625,-0.5858030319213867,3.457732915878296,2.900879383087158
1761486740137553200,6.70155322265625,-0.5708332061767578,3.4012961387634277,3.2586517333984375
1761486740154378800,6.718378662109375,-0.46613597869873047,3.235731601715088,3.689016819000244
1761486740171204600,6.73520458984375,-0.1405477523803711,3.1244571208953857,4.101974964141846
1761486740188031700,6.75203173828125,0.13519716262817383,3.2590394020080566,4.434603691101074
1761486740204857900,6.76885791015625,0.0024008750915527344,3.235727310180664,4.799998760223389
1761486740221679000,6.78567919921875,-0.5497565269470215,2.6512351036071777,5.282797336578369
1761486740238507800,6.8025078125,-0.9442193508148193,2.23386812210083,5.256947994232178
1761486740255326700,6.81932666015625,-0.5135412216186523,2.437488317489624,4.869766712188721
1761486740272170500,6.83617041015625,0.24048662185668945,2.6857175827026367,4.423319339752197
1761486740288987600,6.852987548828125,0.8701190948486328,2.7318568229675293,3.861387252807617
1761486740305814300,6.869814208984375,1.1966304779052734,2.275085210800171,3.304797649383545
1761486740322635500,6.886635498046875,0.9808840751647949,1.2471075057983398,2.7145800590515137
1761486740339470300,6.90347021484375,0.8906292915344238,0.26427364349365234,2.0639290809631348
1761486740356292000,6.9202919921875,1.1132535934448242,-0.5315513610839844,1.470383644104004
1761486740373101300,6.937101318359375,1.5302119255065918,-0.8112211227416992,1.306079387664795
1761486740389930200,6.95393017578125,2.0766243934631348,-0.8289263248443604,1.1243395805358887
1761486740406756600,6.970756591796875,2.646420478820801,-0.6797103881835938,1.017197608947754
1761486740423582700,6.987582763671875,3.049337863922119,-0.4128994941711426,0.851567268371582
1761486740440396000,7.00439599609375,3.014652729034424,-0.279996395111084,0.4415454864501953
1761486740457235000,7.02123486328125,2.7452855110168457,-0.2969963550567627,-0.16555309295654297
1761486740474060800,7.038060791015625,2.2714881896972656,-0.43332862854003906,-0.6154384613037109
1761486740490887200,7.05488720703125,1.7603940963745117,-0.6992366313934326,-0.92584228515625
1761486740507713500,7.071713623046875,1.2319211959838867,-0.9825940132141113,-1.354649543762207
1761486740524556500,7.088556640625,0.8250653743743896,-1.2817082405090332,-1.814743995666504
1761486740541375500,7.10537548828125,0.5388545989990234,-1.6460866928100586,-2.1633262634277344
1761486740558209000,7.122208984375,0.3624579906463623,-1.9804837703704834,-2.40219783782959
1761486740575031300,7.13903125,0.2865488529205322,-2.1730077266693115,-2.7147998809814453
1761486740591853000,7.15585302734375,0.19277119636535645,-2.384718894958496,-2.9869203567504883
1761486740608687900,7.17268798828125,0.08527517318725586,-2.640624523162842,-3.118587017059326
1761486740625482200,7.189482177734375,0.043548583984375,-2.914414405822754,-3.177642822265625
1761486740642336300,7.206336181640625,0.08955168724060059,-3.09793758392334,-3.1999435424804688
1761486740659161300,7.223161376953125,0.16905760765075684,-3.338038682937622,-3.096660614013672
1761486740675983400,7.2399833984375,0.40502214431762695,-3.7295360565185547,-2.9201574325561523
1761486740692801500,7.256801513671875,0.7033448219299316,-4.27838134765625,-2.682866096496582
1761486740709640000,7.273639892578125,0.9507303237915039,-4.688807964324951,-2.5320401191711426
1761486740726462000,7.2904619140625,1.1402297019958496,-4.8421549797058105,-2.296537399291992
1761486740743296500,7.307296630859375,1.2915477752685547,-4.7317705154418945,-2.0129313468933105
1761486740760102700,7.3241025390625,1.1529076099395752,-4.687959671020508,-1.4644007682800293
1761486740776945000,7.34094482421875,0.8718175888061523,-5.211998462677002,-0.5285043716430664
1761486740793770200,7.357770263671875,0.7626798152923584,-5.354961395263672,0.14227676391601562
1761486740810596400,7.374596435546875,0.5738325119018555,-4.462385654449463,0.4611473083496094
1761486740827423000,7.391423095703125,0.5710098743438721,-2.6500954627990723,0.15286540985107422
1761486740844249000,7.4082490234375,1.4426300525665283,-0.8222582340240479,0.10543251037597656
1761486740861057500,7.4250576171875,2.2011303901672363,-0.33913588523864746,1.1534318923950195
1761486740877884000,7.4418837890625,2.0175304412841797,-1.0290813446044922,2.5171546936035156
1761486740894713300,7.45871337890625,1.0874872207641602,-1.7096917629241943,3.0584964752197266
1761486740911539700,7.475539794921875,-0.21066927909851074,-2.09010910987854,2.798090934753418
1761486740928365300,7.492365234375,-1.4200670719146729,-2.110562562942505,2.2325010299682617
1761486740945188400,7.509188232421875,-2.1467537879943848,-1.8853018283843994,1.8004350662231445
1761486740962018000,7.52601806640625,-2.246269941329956,-1.3908357620239258,1.4397144317626953
1761486740978847000,7.542846923828125,-1.7451813220977783,-0.7302665710449219,1.7249059677124023
1761486740995669500,7.55966943359375,-1.2504980564117432,0.059644460678100586,1.9593276977539062
1761486741012508000,7.5765078125,-0.7939128875732422,0.6991000175476074,2.3013916015625
1761486741029336000,7.593336181640625,-0.48468828201293945,1.2004406452178955,2.6525659561157227
1761486741046141400,7.610141357421875,-0.06647133827209473,1.566465973854065,2.569427490234375
1761486741062991600,7.62699169921875,0.24919652938842773,1.889811396598816,2.438075065612793
1761486741079792600,7.643792724609375,0.24503517150878906,2.0558032989501953,2.6824731826782227
1761486741096640500,7.660640625,0.8667557239532471,2.0844063758850098,3.080472946166992
1761486741113466400,7.67746630859375,1.9967949390411377,2.314476728439331,2.9406871795654297
1761486741130276000,7.694276123046875,2.970332622528076,2.4383838176727295,2.4826574325561523
1761486741147101700,7.711101806640625,3.6127121448516846,2.373260021209717,2.2449512481689453
1761486741163944700,7.72794482421875,3.6341116428375244,1.9147638082504272,2.0391292572021484
1761486741180767200,7.744767333984375,3.690596103668213,1.3121578693389893,1.6459102630615234
1761486741197600000,7.76160009765625,3.830568313598633,0.9229250550270081,0.8518848419189453
1761486741214406000,7.778406005859375,3.732330083847046,0.6829500198364258,-0.17270374298095703
1761486741231245000,7.7952451171875,3.5772533416748047,0.38799482583999634,-0.9443855285644531
1761486741248079400,7.812079345703125,4.197108268737793,0.019385799765586853,-1.6688470840454102
1761486741264884200,7.82888427734375,4.327741622924805,-0.5911372303962708,-2.1167240142822266
1761486741281703200,7.845703125,4.974554061889648,-1.6724225282669067,-2.4674816131591797
1761486741298553600,7.8625537109375,5.520624160766602,-2.457780599594116,-2.5212550163269043
1761486741315379500,7.87937939453125,5.2754926681518555,-3.339552879333496,-2.50618314743042
1761486741332205000,7.896205078125,4.276220798492432,-3.6876380443573,-2.545166015625
1761486741349028400,7.9130283203125,3.356557846069336,-4.623170375823975,-1.860806941986084
1761486741365840600,7.929840576171875,2.057119846343994,-4.654802322387695,-1.758183479309082
1761486741382673400,7.94667333984375,1.8190312385559082,-5.907415390014648,-1.3364977836608887
1761486741399494000,7.963493896484375,1.3594903945922852,-5.894809246063232,-1.2937016487121582
1761486741416319500,7.980319580078125,1.8286638259887695,-5.5234761238098145,-1.1804966926574707
1761486741433147100,7.997147216796875,1.7002935409545898,-5.623507499694824,-1.1711020469665527
1761486741449978400,8.013978271484374,1.604400634765625,-5.180538177490234,-0.6948401927947998
1761486741466792400,8.03079248046875,0.7124481201171875,-5.718891143798828,-0.058211326599121094
1761486741483626500,8.04762646484375,-0.28687572479248047,-6.600866317749023,0.5923340320587158
1761486741500466000,8.0644658203125,-1.288839340209961,-7.165517330169678,1.06693434715271
1761486741517296000,8.081296142578125,-2.419814109802246,-7.178500175476074,1.0912964344024658
1761486741534084900,8.0980849609375,-3.167300224304199,-6.586880683898926,0.9005277156829834
1761486741550948900,8.114948974609375,-3.1667685508728027,-5.675689697265625,0.7842986583709717
1761486741567755000,8.131755126953125,-2.7902159690856934,-5.013587951660156,0.7847241163253784
1761486741584596700,8.1485966796875,-2.3458328247070312,-4.5311713218688965,0.7936906814575195
1761486741601422800,8.1654228515625,-2.52825927734375,-4.145522117614746,0.9811092615127563
1761486741618248700,8.182248779296875,-2.625105857849121,-3.8593099117279053,1.2691702842712402
1761486741635056400,8.199056396484375,-2.5944337844848633,-3.618258476257324,1.0455271005630493
1761486741651905500,8.215905517578125,-2.3688478469848633,-3.4005818367004395,0.5105530023574829
1761486741668727000,8.23272705078125,-1.9267749786376953,-3.332888126373291,0.2799769639968872
1761486741685553400,8.249553466796876,-1.5832233428955078,-3.183337926864624,0.2702360153198242
1761486741702379500,8.266379638671875,-1.2074460983276367,-2.8396546840667725,0.3077465295791626
1761486741719206400,8.283206298828125,-0.8451423645019531,-2.5091519355773926,0.3123094439506531
1761486741736015000,8.30001513671875,-0.9017200469970703,-2.03653621673584,0.263427734375
1761486741752857900,8.31685791015625,-1.2686052322387695,-1.9777915477752686,0.37871837615966797
1761486741769683700,8.33368359375,-1.2824268341064453,-1.689733862876892,0.35156136751174927
1761486741786494000,8.350493896484375,-0.9260835647583008,-1.3030049800872803,0.24218469858169556
1761486741803329500,8.36732958984375,-0.27955055236816406,-1.260782241821289,0.2969634532928467
1761486741820162000,8.384162109375,0.19147872924804688,-1.2504420280456543,0.351115882396698
1761486741836988000,8.40098779296875,1.2133855819702148,-1.4189810752868652,0.3983473777770996
1761486741853790700,8.417790771484375,1.72406005859375,-0.8591327667236328,0.774219810962677
1761486741870626000,8.4346259765625,1.0467872619628906,-1.22401762008667,1.8324203491210938
