time,seconds_elapsed,z,y,x
1761417542947824400,0.194824462890625,-1.4637489318847656,0.37618184089660645,-0.500940203666687
1761417542964644400,0.211644287109375,-0.4532346725463867,0.9052026271820068,-0.5066224336624146
1761417542981467400,0.22846728515625,-0.0917062759399414,0.9227075576782227,-0.42858409881591797
1761417542998297600,0.245297607421875,-0.3473062515258789,0.5689663887023926,-0.534623384475708
1761417543015119400,0.262119384765625,-0.16781902313232422,0.3459916114807129,-0.7515163421630859
1761417543031944000,0.27894384765625,-0.6972332000732422,-0.1233973503112793,0.07621923089027405
1761417543048769300,0.295769287109375,-0.06722736358642578,-0.4290950298309326,1.1539424657821655
1761417543065602600,0.3126025390625,1.8864374160766602,-3.16971492767334,3.564314126968384
1761417543082434800,0.329434814453125,1.4220914840698242,-3.5626282691955566,3.2518231868743896
1761417543099226400,0.346226318359375,-1.1711225509643555,-1.9224979877471924,0.45102691650390625
1761417543116061200,0.363061279296875,-3.734513282775879,1.035508394241333,-2.3731086254119873
1761417543132887000,0.379886962890625,-4.078770160675049,2.781297206878662,-3.7443485260009766
1761417543149715000,0.39671484375,-2.3686952590942383,-0.16736912727355957,-1.1694002151489258
1761417543166540000,0.4135400390625,-2.759984016418457,-3.055877685546875,0.7661037445068359
1761417543183364600,0.430364501953125,-2.233522415161133,-3.6008074283599854,2.218644380569458
1761417543200205800,0.447205810546875,-1.0581059455871582,-3.3343260288238525,3.0587759017944336
1761417543217027000,0.464027099609375,-0.5384602546691895,-3.2521255016326904,3.5862269401550293
1761417543233837600,0.480837646484375,-0.2413339614868164,-3.444190502166748,3.792923927307129
1761417543250679300,0.49767919921875,0.10520076751708984,-3.6830105781555176,3.088007926940918
1761417543267497500,0.51449755859375,-0.04673910140991211,-3.6832520961761475,2.6822032928466797
1761417543284325000,0.5313251953125,-0.20290851593017578,-3.5758883953094482,2.85970401763916
1761417543301150500,0.548150390625,0.7035117149353027,-4.067389965057373,2.8537802696228027
1761417543317963800,0.5649638671875,1.2498221397399902,-4.317607879638672,2.627918243408203
1761417543334785800,0.581785888671875,0.9656553268432617,-3.426048755645752,2.3907175064086914
1761417543351602200,0.598602294921875,0.7810087203979492,-3.039475679397583,2.3721237182617188
1761417543368471600,0.615471435546875,0.31665802001953125,-3.3800363540649414,2.612086296081543
1761417543385253600,0.632253662109375,-0.6800966262817383,-3.484712600708008,1.212827205657959
1761417543402096400,0.649096435546875,-0.9768772125244141,-3.012685775756836,0.36433887481689453
1761417543418880000,0.6658798828125,-0.6715893745422363,-3.6395041942596436,0.8900613784790039
1761417543435734800,0.68273486328125,0.31213855743408203,-3.841034412384033,1.8176422119140625
1761417543452556500,0.699556640625,1.549868106842041,-3.978452444076538,2.930972099304199
1761417543469380900,0.716380859375,2.1977458000183105,-4.039741516113281,3.3482141494750977
1761417543486214100,0.733214111328125,1.9566783905029297,-3.0854649543762207,2.524855613708496
1761417543503032000,0.750031982421875,1.890995979309082,-2.37735652923584,1.7065858840942383
1761417543519869400,0.766869384765625,1.8898134231567383,-2.019524335861206,1.3118658065795898
1761417543536692500,0.7836923828125,2.3177757263183594,-1.5739564895629883,1.1496210098266602
1761417543553513700,0.800513671875,2.8883275985717773,-1.0646995306015015,1.0827226638793945
1761417543570346200,0.81734619140625,2.695356845855713,-0.30533385276794434,0.782505989074707
1761417543587153200,0.834153076171875,2.359041690826416,0.22934508323669434,0.3905620574951172
1761417543603976700,0.850976806640625,1.764909267425537,0.41753482818603516,0.10616874694824219
1761417543620801500,0.867801513671875,1.3220186233520508,0.9359136819839478,-0.10499382019042969
1761417543637626000,0.884626220703125,1.295379638671875,1.5488473176956177,-0.41357994079589844
1761417543654447600,0.901447509765625,1.0030832290649414,1.8472228050231934,-0.5870676040649414
1761417543671273700,0.918273681640625,0.89839768409729,2.2140464782714844,-0.7358098030090332
1761417543688121300,0.935121337890625,0.7902429103851318,2.487032890319824,-0.7847251892089844
1761417543704937700,0.951937744140625,0.6566896438598633,2.759972095489502,-0.6942825317382812
1761417543721762800,0.9687626953125,0.6740818023681641,2.9337663650512695,-0.47246456146240234
1761417543738595800,0.985595947265625,0.6370296478271484,3.07545804977417,-0.3808021545410156
1761417543755409000,1.002408935546875,0.8345298767089844,2.936412811279297,-0.17177581787109375
1761417543772238600,1.019238525390625,1.0446205139160156,2.5959789752960205,0.12523365020751953
1761417543789042200,1.036042236328125,1.3547580242156982,2.2513580322265625,0.49313926696777344
1761417543805881600,1.052881591796875,1.5863170623779297,1.9189016819000244,0.9780130386352539
1761417543822713900,1.0697138671875,1.6741960048675537,1.7767300605773926,1.2803173065185547
1761417543839544300,1.08654443359375,1.682802677154541,1.9345028400421143,1.1870088577270508
1761417543856354300,1.103354248046875,1.9964218139648438,1.5131731033325195,1.6572647094726562
1761417543873183000,1.120182861328125,2.2958245277404785,0.8970072269439697,2.3789491653442383
1761417543890021400,1.137021484375,3.030040740966797,0.7548928260803223,2.699793815612793
1761417543906811400,1.153811279296875,3.7227838039398193,0.9318497180938721,2.6849870681762695
1761417543923643000,1.170642822265625,3.4807238578796387,2.0135536193847656,2.279179573059082
1761417543940470500,1.187470458984375,3.0583620071411133,2.7894320487976074,1.7149467468261719
1761417543957291800,1.204291748046875,2.574626922607422,2.668381690979004,1.7019424438476562
1761417543974116000,1.2211162109375,2.586226463317871,2.2439935207366943,1.8537673950195312
1761417543990941200,1.237941162109375,2.942455291748047,1.5583744049072266,2.2203073501586914
1761417544007782000,1.254781982421875,3.274768352508545,0.6504137516021729,2.819272994995117
1761417544024603600,1.271603759765625,3.4359307289123535,-0.28212928771972656,3.3248586654663086
1761417544041428000,1.288427978515625,3.1435775756835938,-1.0181975364685059,3.4929046630859375
1761417544058243800,1.305243896484375,2.5552139282226562,-1.4502484798431396,3.162494659423828
1761417544075059700,1.322059814453125,1.9536666870117188,-1.7018640041351318,2.534299850463867
1761417544091887900,1.338887939453125,1.6040101051330566,-2.0054473876953125,2.0138397216796875
1761417544108712200,1.355712158203125,1.394521713256836,-2.354330539703369,1.5065317153930664
1761417544125537000,1.372537109375,1.238987922668457,-2.7650139331817627,0.8874759674072266
1761417544142360800,1.38936083984375,1.0296683311462402,-3.172888994216919,0.1792736053466797
1761417544159185700,1.406185546875,0.894444465637207,-3.6020278930664062,-0.3016786575317383
1761417544176013000,1.423012939453125,0.7825717926025391,-4.072534561157227,-0.49277544021606445
1761417544192846300,1.439846435546875,0.6214251518249512,-4.5514445304870605,-0.5327320098876953
1761417544209673000,1.4566728515625,0.2885403633117676,-4.934714317321777,-0.6606349945068359
1761417544226501600,1.473501708984375,-0.18043136596679688,-5.205752849578857,-0.9947600364685059
1761417544243317500,1.4903173828125,-0.6782479286193848,-5.424442768096924,-1.3851594924926758
1761417544260147500,1.5071474609375,-0.9904587268829346,-5.689811706542969,-1.6220703125
1761417544276953600,1.52395361328125,-1.12135648727417,-6.036918640136719,-1.6933479309082031
1761417544293797600,1.540797607421875,-1.2227435111999512,-6.316473007202148,-1.7742557525634766
1761417544310609400,1.557609375,-1.2897272109985352,-6.421085834503174,-1.9364275932312012
1761417544327441700,1.574441650390625,-1.2963790893554688,-6.616155624389648,-1.9159598350524902
1761417544344268300,1.591268310546875,-1.237034559249878,-6.850524425506592,-1.7916102409362793
1761417544361068300,1.608068359375,-1.2032232284545898,-7.074163436889648,-1.6848430633544922
1761417544377914400,1.624914306640625,-1.2238216400146484,-7.339750289916992,-1.470304012298584
1761417544394739200,1.6417392578125,-1.1915907859802246,-7.5984039306640625,-1.2138128280639648
1761417544411550000,1.658550048828125,-0.9536070823669434,-7.715549468994141,-0.9352841377258301
1761417544428380700,1.675380615234375,-0.6505179405212402,-7.514620780944824,-0.9325299263000488
1761417544445202700,1.69220263671875,-0.3249549865722656,-7.225197792053223,-0.8995518684387207
1761417544462026200,1.709026123046875,-0.17879915237426758,-7.616589546203613,-0.1697087287902832
1761417544478852000,1.72585205078125,-0.3814840316772461,-8.363603591918945,0.6384720802307129
1761417544495693000,1.742693115234375,-0.6191325187683105,-8.154703140258789,0.4532437324523926
1761417544512514000,1.75951416015625,-0.3335990905761719,-6.900684356689453,-0.5690717697143555
1761417544529339100,1.776339111328125,0.3087449073791504,-5.6713714599609375,-1.1240601539611816
1761417544546129000,1.79312890625,0.7602109909057617,-5.274251937866211,-0.6850070953369141
1761417544562972700,1.80997265625,1.0983614921569824,-5.309267520904541,0.2714662551879883
1761417544579801000,1.826801025390625,1.4175643920898438,-5.185492515563965,1.029454231262207
1761417544596623000,1.843623046875,1.1155810356140137,-5.035118579864502,1.4940624237060547
1761417544613447000,1.860447021484375,0.4175529479980469,-5.021723747253418,1.808980941772461
1761417544630271700,1.877271728515625,-0.07974481582641602,-4.928225040435791,1.9380111694335938
1761417544647096600,1.8940966796875,-0.3069782257080078,-4.669951438903809,1.7815351486206055
1761417544663924200,1.91092431640625,-0.5113427639007568,-4.310775279998779,1.2507047653198242
1761417544680758800,1.9277587890625,-0.7350583076477051,-3.9006664752960205,0.5030422210693359
1761417544697580500,1.94458056640625,-0.8823843002319336,-3.4594995975494385,-0.32140541076660156
1761417544714406400,1.961406494140625,-0.8925447463989258,-2.9584243297576904,-0.9005188941955566
1761417544731237400,1.9782373046875,-0.8319792747497559,-2.5088887214660645,-1.2234249114990234
1761417544748074800,1.99507470703125,-0.6901195049285889,-2.0249695777893066,-1.3828926086425781
1761417544764877300,2.011877197265625,-0.3074836730957031,-1.4537723064422607,-1.3463029861450195
1761417544781709800,2.028709716796875,0.09793615341186523,-0.7172620296478271,-1.2844042778015137
1761417544798511900,2.045511962890625,0.21224737167358398,-0.12877130508422852,-1.158060073852539
1761417544815338000,2.062337890625,0.25261545181274414,0.2554415464401245,-0.9225177764892578
1761417544832163000,2.0791630859375,0.4611954689025879,0.6371258497238159,-0.7653727531433105
1761417544848988400,2.095988525390625,0.7819013595581055,1.0259381532669067,-0.5409040451049805
1761417544865831700,2.112831787109375,1.3197579383850098,1.3537405729293823,-0.11473941802978516
1761417544882635500,2.129635498046875,1.8965952396392822,1.5652766227722168,0.45879268646240234
1761417544899450600,2.14645068359375,2.3589365482330322,1.7619178295135498,1.047734260559082
1761417544916288000,2.1632880859375,2.6701769828796387,1.903658390045166,1.5235271453857422
1761417544933097500,2.180097412109375,2.7804882526397705,2.0443735122680664,1.8100757598876953
1761417544949924900,2.1969248046875,2.7089836597442627,2.2609705924987793,1.8993244171142578
1761417544966747000,2.213746826171875,2.697178602218628,2.332292079925537,2.0460329055786133
1761417544983575600,2.230575439453125,2.784153461456299,2.314798355102539,2.341557502746582
1761417545000398300,2.2473984375,2.9730217456817627,2.3238613605499268,2.492136001586914
1761417545017222700,2.26422265625,3.2320263385772705,2.4945991039276123,2.633453369140625
1761417545034047000,2.281046875,3.59006667137146,2.285080671310425,3.265634536743164
1761417545050873000,2.297873046875,3.5343856811523438,1.7796144485473633,3.981184959411621
1761417545067696600,2.314696533203125,3.9642326831817627,1.4241199493408203,4.181062698364258
1761417545084536000,2.3315361328125,4.263584613800049,1.8475933074951172,3.8410863876342773
1761417545101357800,2.34835791015625,3.988804817199707,2.3490142822265625,2.9614944458007812
1761417545118182100,2.36518212890625,3.321030378341675,2.5562610626220703,1.704702377319336
1761417545135007000,2.382007080078125,2.9658045768737793,2.367352247238159,0.4821462631225586
1761417545151830800,2.398830810546875,3.2203054428100586,1.9156744480133057,-0.24135875701904297
1761417545168655600,2.415655517578125,3.677107810974121,1.3261089324951172,-0.23610973358154297
1761417545185499000,2.432498779296875,4.067157745361328,0.5994918346405029,0.18968486785888672
1761417545202319600,2.449319580078125,4.053778648376465,0.08961677551269531,0.5148944854736328
1761417545219140000,2.46614013671875,3.7122511863708496,-0.1155238151550293,0.5085515975952148
1761417545235948300,2.4829482421875,3.2459964752197266,-0.17871689796447754,0.2675151824951172
1761417545252799200,2.49979931640625,2.803783893585205,-0.18745732307434082,0.07620811462402344
1761417545269612800,2.51661279296875,2.443206310272217,-0.2287755012512207,0.017622947692871094
1761417545286420000,2.533419921875,2.0918326377868652,-0.3255927562713623,0.060832977294921875
1761417545303264500,2.550264404296875,1.6356167793273926,-0.43766283988952637,0.08690071105957031
1761417545320094500,2.567094482421875,1.1083378791809082,-0.709649920463562,0.06879615783691406
1761417545336899000,2.583899169921875,0.5900936126708984,-0.9840028285980225,-0.13390350341796875
1761417545353732400,2.600732421875,0.1248769760131836,-1.2792880535125732,-0.4119863510131836
1761417545370551300,2.61755126953125,-0.060724735260009766,-1.6703555583953857,-0.5028514862060547
1761417545387361800,2.63436181640625,-0.026894092559814453,-2.3149971961975098,-0.5039710998535156
1761417545404200000,2.651199951171875,0.2551569938659668,-3.0988996028900146,-0.5277919769287109
1761417545421021700,2.668021728515625,0.7557694911956787,-3.714322328567505,-0.7420845031738281
1761417545437847600,2.68484765625,1.1711957454681396,-4.346355438232422,-0.9433135986328125
1761417545454668800,2.701668701171875,1.4105935096740723,-4.889536380767822,-1.234395980834961
1761417545471500500,2.71850048828125,1.5915770530700684,-5.311124801635742,-1.482724666595459
1761417545488330500,2.73533056640625,1.7250781059265137,-5.719860076904297,-1.5942516326904297
1761417545505163300,2.752163330078125,1.7975683212280273,-6.150628089904785,-1.6335668563842773
1761417545521984000,2.76898388671875,1.969907283782959,-6.6769866943359375,-1.4874658584594727
1761417545538787800,2.785787841796875,2.244696617126465,-7.24200439453125,-1.2186393737792969
1761417545555619600,2.80261962890625,2.4436919689178467,-7.663567543029785,-1.009364128112793
1761417545572440000,2.819440185546875,2.3028414249420166,-7.914877891540527,-0.9418392181396484
1761417545589252400,2.83625244140625,1.8959431648254395,-7.897623062133789,-0.9362425804138184
1761417545606092500,2.853092529296875,1.462153673171997,-8.45608139038086,-0.17443466186523438
1761417545622916900,2.869916748046875,0.8429861068725586,-9.39383316040039,0.8668994903564453
1761417545639741400,2.886741455078125,0.08026862144470215,-9.478796005249023,0.5566463470458984
1761417545656583400,2.90358349609375,-0.25118517875671387,-8.067205429077148,-1.235687255859375
1761417545673405200,2.9204052734375,-0.050572872161865234,-6.271559715270996,-2.9583444595336914
1761417545690224400,2.937224365234375,0.5265073776245117,-5.305582046508789,-3.2218751907348633
1761417545707053300,2.95405322265625,0.7388920783996582,-5.299310684204102,-2.3898134231567383
1761417545723873500,2.97087353515625,0.4378342628479004,-5.4034624099731445,-1.6462287902832031
1761417545740690000,2.98768994140625,-0.11325454711914062,-5.615662574768066,-1.0644712448120117
1761417545757492700,3.00449267578125,-0.5107035636901855,-6.124067306518555,-0.12526893615722656
1761417545774347300,3.02134716796875,-1.1582825183868408,-6.537240982055664,0.503413200378418
1761417545791159000,3.038158935546875,-1.4701275825500488,-6.511195659637451,0.44765377044677734
1761417545808009000,3.055009033203125,-1.5608406066894531,-5.8394951820373535,-0.32668304443359375
1761417545824809700,3.071809814453125,-1.5736002922058105,-4.9720377922058105,-1.2399682998657227
1761417545841652700,3.08865283203125,-1.58980131149292,-4.170720100402832,-1.9689083099365234
1761417545858457600,3.10545751953125,-1.354292392730713,-3.5384392738342285,-2.284173011779785
1761417545875284700,3.12228466796875,-0.8315038681030273,-3.123349905014038,-2.1770315170288086
1761417545892109000,3.139109130859375,-0.22835779190063477,-2.729789972305298,-1.90366792678833
1761417545908933400,3.155933349609375,0.2749600410461426,-2.4066529273986816,-1.4987554550170898
1761417545925761000,3.172760986328125,0.46982860565185547,-2.0596413612365723,-1.243276596069336
1761417545942585300,3.18958544921875,0.2938575744628906,-1.7454323768615723,-1.1634840965270996
1761417545959443700,3.206443603515625,-0.10286331176757812,-1.4190998077392578,-1.166961669921875
1761417545976245000,3.223244873046875,-0.3959667682647705,-0.9809722900390625,-1.1384716033935547
1761417545993065700,3.240065673828125,-0.4117164611816406,-0.6124997138977051,-0.8122730255126953
1761417546009898200,3.256898193359375,-0.21961188316345215,-0.3347160816192627,-0.27219486236572266
1761417546026717000,3.273717041015625,0.0917353630065918,-0.08269333839416504,0.3749856948852539
1761417546043526100,3.290526123046875,0.35832977294921875,0.12516868114471436,1.0275135040283203
1761417546060354300,3.307354248046875,0.4767313003540039,0.4157487154006958,1.5467815399169922
1761417546077160000,3.324159912109375,0.5277652740478516,0.7058365345001221,1.933807373046875
1761417546094008000,3.341008056640625,0.8309803009033203,1.179858684539795,2.1265335083007812
1761417546110812000,3.35781201171875,1.2558975219726562,1.6677072048187256,2.2690420150756836
1761417546127655700,3.37465576171875,1.6257338523864746,2.016083240509033,2.591097831726074
1761417546144493800,3.391493896484375,1.9325342178344727,2.3232429027557373,2.9963855743408203
1761417546161299700,3.4082998046875,2.169891357421875,2.5568795204162598,3.455183982849121
1761417546178135800,3.4251357421875,2.4088644981384277,2.5898404121398926,3.944591522216797
1761417546194955800,3.441955810546875,2.6659021377563477,1.9024156332015991,4.647266387939453
1761417546211780000,3.458780029296875,3.123828411102295,1.8715052604675293,4.767662048339844
1761417546228596700,3.4755966796875,3.750157117843628,2.7057223320007324,4.442865371704102
1761417546245437000,3.49243701171875,3.6470775604248047,3.827871561050415,3.798647880554199
1761417546262240300,3.509240234375,2.751439332962036,4.741235733032227,2.7716169357299805
1761417546279071200,3.5260712890625,1.8180546760559082,4.900156021118164,2.0113162994384766
1761417546295910400,3.542910400390625,1.5123183727264404,4.381209373474121,1.691019058227539
1761417546312732700,3.559732666015625,2.169827461242676,3.680306911468506,1.9299049377441406
1761417546329561000,3.57656103515625,3.0487453937530518,2.918154001235962,2.4205408096313477
1761417546346358300,3.593358154296875,3.611215114593506,2.1119518280029297,2.9027767181396484
1761417546363191300,3.61019140625,3.6980206966400146,1.5156362056732178,3.0621232986450195
1761417546380022300,3.627022216796875,3.322298049926758,1.225510835647583,2.7421207427978516
1761417546396853800,3.643853759765625,2.7692503929138184,1.0179342031478882,2.242940902709961
1761417546413652700,3.66065283203125,2.2734222412109375,0.8358889818191528,1.8125429153442383
1761417546430481400,3.6774814453125,1.9397294521331787,0.5325851440429688,1.5413455963134766
1761417546447317800,3.69431787109375,1.6919050216674805,0.059311866760253906,1.2048377990722656
1761417546464152800,3.71115283203125,1.501004695892334,-0.4559195041656494,0.7362184524536133
1761417546480961300,3.727961181640625,1.2599129676818848,-1.012721061706543,0.24728870391845703
1761417546497778000,3.74477783203125,0.943476676940918,-1.6111156940460205,-0.20744991302490234
1761417546514603500,3.761603515625,0.6576366424560547,-2.241344690322876,-0.5300083160400391
1761417546531428000,3.778427978515625,0.5002341270446777,-2.8719401359558105,-0.7444572448730469
1761417546548252400,3.79525244140625,0.3968496322631836,-3.4288108348846436,-0.9327068328857422
1761417546565076000,3.812075927734375,0.2780117988586426,-3.9621784687042236,-0.9882817268371582
1761417546581902000,3.828902099609375,0.10471153259277344,-4.430171966552734,-0.9832286834716797
1761417546598725400,3.845725341796875,0.004906177520751953,-4.88356876373291,-0.9222412109375
1761417546615549400,3.862549560546875,-0.02060842514038086,-5.3851165771484375,-0.8038959503173828
1761417546632375300,3.879375244140625,0.09242486953735352,-5.810368537902832,-0.6918883323669434
1761417546649199400,3.896199462890625,0.2335367202758789,-6.139246940612793,-0.6549167633056641
1761417546666025700,3.913025634765625,0.33190488815307617,-6.53330135345459,-0.4789848327636719
1761417546682845000,3.929844970703125,0.32582855224609375,-7.068240642547607,-0.10360240936279297
1761417546699687200,3.946687255859375,0.07444190979003906,-7.571115016937256,0.08118724822998047
1761417546716508700,3.9635087890625,-0.3856809139251709,-7.950284481048584,-0.07120132446289062
1761417546733333500,3.98033349609375,-0.9874064922332764,-8.268318176269531,-0.47441530227661133
1761417546750146600,3.997146484375,-1.3394036293029785,-8.16386604309082,-1.1563138961791992
1761417546766972000,4.013971923828125,-1.002605676651001,-8.146620750427246,-1.1370124816894531
1761417546783811000,4.03081103515625,-0.8181114196777344,-9.056632995605469,0.00047969818115234375
1761417546800648400,4.0476484375,-1.1217045783996582,-9.744962692260742,0.6229662895202637
1761417546817470200,4.06447021484375,-1.3905715942382812,-8.994484901428223,-0.39325952529907227
1761417546834273300,4.081273193359375,-0.9812278747558594,-7.39998722076416,-1.7787494659423828
1761417546851107800,4.09810791015625,-0.38773488998413086,-6.06386661529541,-2.3064498901367188
1761417546867926300,4.11492626953125,0.032413482666015625,-5.803928852081299,-1.6650390625
1761417546884757200,4.13175732421875,-0.01740407943725586,-6.107526779174805,-0.6512160301208496
1761417546901578000,4.148577880859375,-0.061682701110839844,-6.200881481170654,0.09902000427246094
1761417546918402800,4.16540283203125,-0.05294370651245117,-6.121576309204102,0.6643142700195312
1761417546935227600,4.1822275390625,-0.25636816024780273,-6.150571346282959,1.3093595504760742
1761417546952061700,4.199061767578125,-0.3364748954772949,-5.986130714416504,1.6399650573730469
1761417546968877000,4.215876953125,-0.13599061965942383,-5.404699802398682,1.358856201171875
1761417546985714700,4.232714599609375,0.07945680618286133,-4.682488918304443,0.7563838958740234
1761417547002539000,4.2495390625,0.08430290222167969,-3.9072632789611816,-0.020940780639648438
1761417547019360000,4.266360107421875,-0.21259260177612305,-3.3028125762939453,-0.7137117385864258
1761417547036174600,4.283174560546875,-0.5136351585388184,-2.916632652282715,-1.193593978881836
1761417547052995600,4.29999560546875,-0.5887503623962402,-2.5624406337738037,-1.5080184936523438
1761417547069826300,4.316826416015625,-0.3645644187927246,-2.260136127471924,-1.59796142578125
1761417547086647800,4.333647705078125,-0.04276323318481445,-1.9589272737503052,-1.5173091888427734
1761417547103471600,4.3504716796875,0.16285943984985352,-1.5791707038879395,-1.4038610458374023
1761417547120298000,4.367298095703125,0.1362924575805664,-1.2076743841171265,-1.3308706283569336
1761417547137115400,4.384115478515625,0.07750177383422852,-0.820975661277771,-1.1759910583496094
1761417547153947100,4.400947021484375,0.12368583679199219,-0.4277689456939697,-0.8710107803344727
1761417547170799600,4.417799560546875,0.3273200988769531,0.06334054470062256,-0.3693666458129883
1761417547187624200,4.434624267578125,0.7541179656982422,0.5220743417739868,0.3055734634399414
1761417547204415700,4.451415771484375,1.2345542907714844,0.8699809312820435,1.0455474853515625
1761417547221258500,4.468258544921875,1.6275651454925537,1.1433151960372925,1.7503242492675781
1761417547238085000,4.485085205078125,1.942742109298706,1.4728453159332275,2.195612907409668
1761417547254906600,4.50190673828125,2.1977996826171875,1.7970259189605713,2.53570556640625
1761417547271731700,4.518731689453125,2.306601047515869,2.1361584663391113,2.7666664123535156
1761417547288554500,4.535554443359375,2.3342037200927734,2.4402015209198,2.9812870025634766
1761417547305363200,4.55236328125,2.350569009780884,2.6607089042663574,3.198627471923828
1761417547322187000,4.56918701171875,2.4296998977661133,2.785550355911255,3.428603172302246
1761417547339014700,4.5860146484375,2.8744802474975586,2.323354959487915,4.089652061462402
1761417547355838500,4.60283837890625,3.4279239177703857,1.5523409843444824,4.9412384033203125
1761417547372660500,4.619660400390625,4.077645301818848,1.6164584159851074,5.202974319458008
1761417547389493000,4.636492919921875,4.267181396484375,2.594197988510132,4.703069686889648
1761417547406312700,4.653312744140625,3.720730781555176,3.719818592071533,3.8580288887023926
1761417547423154700,4.67015478515625,2.7571592330932617,4.582553863525391,2.8470005989074707
1761417547439975200,4.68697509765625,2.029515027999878,4.93641996383667,2.152036666870117
1761417547456800000,4.703800048828125,1.8666582107543945,4.747899532318115,2.0009212493896484
1761417547473631000,4.720630859375,2.269120454788208,4.410891532897949,2.2768287658691406
1761417547490437000,4.73743701171875,2.8870036602020264,3.9548325538635254,2.862384796142578
1761417547507272700,4.754272705078125,3.3966615200042725,3.21052622795105,3.699392795562744
1761417547524080600,4.77108056640625,3.3645615577697754,2.4929590225219727,4.3271803855896
1761417547540908500,4.787908447265625,2.692870855331421,1.9148304462432861,4.498368263244629
1761417547557715200,4.804715087890625,1.625169277191162,1.3778107166290283,4.3201398849487305
1761417547574557400,4.821557373046875,0.684025764465332,0.8065638542175293,3.884420394897461
1761417547591379000,4.83837890625,0.31822872161865234,0.20635056495666504,3.31268310546875
1761417547608210000,4.8552099609375,0.4551997184753418,-0.4593026638031006,2.7362890243530273
1761417547625053000,4.872052978515625,0.6137247085571289,-1.2311344146728516,2.311229705810547
1761417547641848000,4.88884814453125,0.49613523483276367,-1.9752551317214966,1.820237159729004
1761417547658677200,4.90567724609375,0.1504344940185547,-2.61826491355896,1.2754974365234375
1761417547675518200,4.922518310546875,-0.30730152130126953,-3.2104411125183105,0.8390588760375977
1761417547692330500,4.93933056640625,-0.7841796875,-3.7724406719207764,0.5395889282226562
1761417547709167000,4.9561669921875,-1.160024642944336,-4.252771377563477,0.30246400833129883
1761417547725991000,4.972990966796875,-1.5284161567687988,-4.701349258422852,0.13973569869995117
1761417547742804200,4.98980419921875,-1.7181167602539062,-5.102783203125,0.01752185821533203
1761417547759637000,5.006636962890625,-1.8245134353637695,-5.443068504333496,0.024358272552490234
1761417547776468200,5.02346826171875,-1.9956974983215332,-5.755953788757324,0.013646125793457031
1761417547793284900,5.040284912109375,-2.14939546585083,-6.046642303466797,-0.033093929290771484
1761417547810101000,5.05710107421875,-2.2728381156921387,-6.321876049041748,-0.0970163345336914
1761417547826918100,5.073918212890625,-2.3533787727355957,-6.531777858734131,-0.03397083282470703
1761417547843746600,5.09074658203125,-2.4200358390808105,-6.915322303771973,0.30899906158447266
1761417547860574500,5.107574462890625,-2.4244003295898438,-7.183989524841309,0.5679779052734375
1761417547877398300,5.124398193359375,-2.424386501312256,-7.356223106384277,0.6510953903198242
1761417547894221300,5.14122119140625,-2.4840617179870605,-7.405613899230957,0.631622314453125
1761417547911069700,5.158069580078125,-2.6637187004089355,-7.128823280334473,0.3837552070617676
1761417547927885600,5.174885498046875,-2.4924769401550293,-6.832695007324219,0.39123106002807617
1761417547944710000,5.1917099609375,-2.269874095916748,-7.506246089935303,1.4237737655639648
1761417547961535000,5.208534912109375,-2.557551860809326,-8.123602867126465,2.0379271507263184
1761417547978359000,5.225359130859375,-2.787360191345215,-7.484461784362793,1.3183660507202148
1761417547995179500,5.242179443359375,-2.368320941925049,-5.907209396362305,0.02192544937133789
1761417548011995000,5.258994873046875,-1.4974994659423828,-4.324906349182129,-0.7094311714172363
1761417548028819200,5.275819091796875,-0.35759544372558594,-3.6823482513427734,-0.14333581924438477
1761417548045642800,5.292642822265625,-0.026131153106689453,-3.956406593322754,0.9116864204406738
1761417548062467600,5.309467529296875,-0.44211530685424805,-4.234297752380371,1.3754963874816895
1761417548079292000,5.3262919921875,-1.1141910552978516,-4.454102993011475,1.6606993675231934
1761417548096105200,5.343105224609375,-1.774916172027588,-4.760002136230469,2.1894774436950684
1761417548112956400,5.359956298828125,-1.8787693977355957,-4.733315467834473,2.4466428756713867
1761417548129761000,5.376760986328125,-1.5585393905639648,-4.396538734436035,2.402780532836914
1761417548146607600,5.393607666015625,-1.3278708457946777,-3.9022226333618164,1.97420072555542
1761417548163415800,5.410415771484375,-1.3862881660461426,-3.345158576965332,1.2940568923950195
1761417548180252000,5.427251953125,-1.5681328773498535,-2.8741307258605957,0.6468372344970703
1761417548197077000,5.444076904296875,-1.697643756866455,-2.518587589263916,0.05705976486206055
1761417548213898000,5.46089794921875,-1.7927589416503906,-2.2457733154296875,-0.3497939109802246
1761417548230729700,5.477729736328125,-1.703200340270996,-2.039706230163574,-0.6815896034240723
1761417548247550500,5.494550537109375,-1.3557138442993164,-1.8335001468658447,-0.9360671043395996
1761417548264374800,5.511374755859375,-0.9222626686096191,-1.6220566034317017,-1.0466837882995605
1761417548281199400,5.528199462890625,-0.7717719078063965,-1.3455877304077148,-1.0081243515014648
1761417548298007000,5.545007080078125,-0.9062566757202148,-1.131096363067627,-1.0643420219421387
1761417548314831000,5.5618310546875,-0.905421257019043,-0.8218663930892944,-1.2212867736816406
1761417548331646700,5.578646728515625,-0.5256552696228027,-0.5743348598480225,-1.2708654403686523
1761417548348487000,5.59548681640625,0.07424545288085938,-0.34865373373031616,-1.1804065704345703
1761417548365308200,5.61230810546875,0.5807085037231445,-0.09471094608306885,-1.097062587738037
1761417548382132200,5.62913232421875,1.1076526641845703,0.2698742747306824,-1.1013879776000977
1761417548398974200,5.64597412109375,1.619612693786621,0.6488041877746582,-1.0705804824829102
1761417548415774500,5.6627744140625,2.087024211883545,0.9730525016784668,-0.8316202163696289
1761417548432624000,5.6796240234375,2.4021430015563965,1.2601077556610107,-0.41493940353393555
1761417548449424600,5.696424560546875,2.717378616333008,1.466872215270996,0.07170963287353516
1761417548466238500,5.713238525390625,3.102099895477295,1.7307813167572021,0.5089535713195801
1761417548483077000,5.7300771484375,3.6386828422546387,1.6645268201828003,1.348480224609375
1761417548499889400,5.746889404296875,3.841398239135742,1.0152533054351807,2.3201723098754883
1761417548516715800,5.7637158203125,4.351350784301758,1.1559607982635498,2.707425117492676
1761417548533540000,5.7805400390625,5.199868202209473,1.8519783020019531,2.7746028900146484
1761417548550364200,5.7973642578125,5.595982551574707,2.7607040405273438,2.8647079467773438
1761417548567191600,5.814191650390625,5.14906644821167,3.544870376586914,2.727649211883545
1761417548584011800,5.83101171875,4.0863566398620605,4.2781453132629395,2.1092233657836914
1761417548600838100,5.847838134765625,3.149207592010498,4.643510818481445,1.4463915824890137
1761417548617663700,5.864663818359375,2.6695399284362793,4.421281814575195,1.1683692932128906
1761417548634487600,5.881487548828125,2.9827184677124023,3.9294214248657227,1.1834721565246582
1761417548651312000,5.89831201171875,3.672605037689209,3.214980125427246,1.5515503883361816
1761417548668138000,5.915137939453125,3.8847227096557617,2.33900785446167,1.9656834602355957
1761417548684976600,5.9319765625,3.457955837249756,1.741158366203308,2.134580612182617
1761417548701798100,5.948798095703125,2.7050981521606445,1.367382287979126,2.151134967803955
1761417548718608600,5.965608642578125,2.0242738723754883,1.0385745763778687,2.1587233543395996
1761417548735447300,5.982447265625,1.5383620262145996,0.784927248954773,2.0566325187683105
1761417548752270300,5.999270263671875,1.2013001441955566,0.4375643730163574,1.8889241218566895
1761417548769096000,6.016095947265625,0.947117805480957,0.024811983108520508,1.6303439140319824
1761417548785917400,6.03291748046875,0.7042403221130371,-0.449802041053772,1.2168183326721191
1761417548802742300,6.0497421875,0.4896059036254883,-0.9113714694976807,0.755284309387207
1761417548819571700,6.06657177734375,0.4370298385620117,-1.358729362487793,0.4168357849121094
1761417548836393700,6.083393798828125,0.39138269424438477,-1.880460262298584,0.26291942596435547
1761417548853217800,6.1002177734375,0.17125701904296875,-2.398097038269043,0.12165260314941406
1761417548870042400,6.11704248046875,-0.20571422576904297,-2.852421998977661,-0.07322454452514648
1761417548886883800,6.1338837890625,-0.6022768020629883,-3.3532326221466064,-0.09454965591430664
1761417548903705900,6.150705810546875,-0.9473042488098145,-3.8140721321105957,-0.10979843139648438
1761417548920529700,6.16752978515625,-1.2884564399719238,-4.168614864349365,-0.23348522186279297
1761417548937333200,6.184333251953125,-1.5598745346069336,-4.462808609008789,-0.3536186218261719
1761417548954182400,6.201182373046875,-1.7843809127807617,-4.7024006843566895,-0.4159660339355469
1761417548970999000,6.2179990234375,-1.9073686599731445,-4.915539741516113,-0.42360687255859375
1761417548987810600,6.234810546875,-1.935204029083252,-5.144200325012207,-0.28923988342285156
1761417549004639000,6.251638916015625,-1.9833526611328125,-5.390386581420898,-0.13085126876831055
1761417549021463000,6.268463134765625,-2.1431431770324707,-5.675800323486328,0.03486442565917969
1761417549038287400,6.285287353515625,-2.257023334503174,-5.9551825523376465,0.22230768203735352
1761417549055111200,6.302111083984375,-2.293839454650879,-6.105010032653809,0.29126834869384766
1761417549071936000,6.31893603515625,-2.2800354957580566,-5.954687595367432,0.04527759552001953
1761417549088760800,6.3357607421875,-2.1361489295959473,-5.75255012512207,-0.09623956680297852
1761417549105602800,6.352602783203125,-2.069953441619873,-6.282505989074707,0.5093135833740234
1761417549122406400,6.369406494140625,-2.234119415283203,-6.721883773803711,0.8713192939758301
1761417549139247600,6.38624755859375,-2.12992525100708,-6.6847825050354,0.7756977081298828
1761417549156072000,6.403072021484375,-1.8289446830749512,-5.948662757873535,0.15371465682983398
1761417549172884700,6.419884765625,-1.2292842864990234,-4.72691011428833,-0.7010750770568848
1761417549189725200,6.43672509765625,-0.5582127571105957,-3.5411133766174316,-1.2665586471557617
1761417549206538200,6.453538330078125,-0.2922983169555664,-3.065577745437622,-1.0825238227844238
1761417549223373300,6.470373291015625,-0.6725564002990723,-3.298866033554077,-0.5960531234741211
1761417549240192000,6.48719189453125,-1.1937804222106934,-3.5982627868652344,-0.16350793838500977
1761417549257018600,6.5040185546875,-1.6202325820922852,-4.0406599044799805,0.4488811492919922
1761417549273826300,6.520826416015625,-1.7182106971740723,-4.524949073791504,1.170210361480713
1761417549290654200,6.537654296875,-1.5302443504333496,-4.693211555480957,1.670919418334961
1761417549307463400,6.55446337890625,-1.0156540870666504,-4.393630504608154,1.8491101264953613
1761417549324292600,6.571292724609375,-0.6393752098083496,-3.756898880004883,1.617724895477295
1761417549341127400,6.58812744140625,-0.794459342956543,-3.0652213096618652,1.1656064987182617
1761417549357952300,6.6049521484375,-1.3017330169677734,-2.483765125274658,0.55181884765625
1761417549374781700,6.62178173828125,-1.6490554809570312,-1.9633992910385132,-0.11551094055175781
1761417549391614500,6.638614501953125,-1.6372709274291992,-1.5725806951522827,-0.6269998550415039
1761417549408439300,6.655439208984375,-1.2757325172424316,-1.3400473594665527,-0.8275184631347656
1761417549425263600,6.672263671875,-0.7537479400634766,-1.1004877090454102,-0.9072575569152832
1761417549442089000,6.6890888671875,-0.3428068161010742,-0.8025853633880615,-0.9988279342651367
1761417549458891800,6.705891845703125,-0.09856557846069336,-0.45975446701049805,-0.9770016670227051
1761417549475738000,6.722738037109375,-0.09458684921264648,-0.12396621704101562,-0.8757648468017578
1761417549492548400,6.73954833984375,-0.14561986923217773,0.23208749294281006,-0.74444580078125
1761417549509372400,6.756372314453125,-0.06285715103149414,0.6587734222412109,-0.4796881675720215
1761417549526196500,6.773196533203125,0.23169183731079102,1.1610684394836426,-0.1559605598449707
1761417549543024000,6.790024169921875,0.6872568130493164,1.5651038885116577,0.3168807029724121
1761417549559839500,6.806839599609375,1.1843557357788086,1.9137694835662842,0.8383665084838867
1761417549576673500,6.823673583984375,1.573331356048584,2.1525323390960693,1.2665648460388184
1761417549593486600,6.840486572265625,1.709299087524414,2.35990047454834,1.433135986328125
1761417549610333000,6.8573330078125,1.5424823760986328,2.502730131149292,1.379166603088379
1761417549627140600,6.874140625,1.5937256813049316,2.502269983291626,1.4880361557006836
1761417549643982000,6.890982177734375,1.9862327575683594,2.4992246627807617,1.7753753662109375
1761417549660810500,6.907810546875,2.165950298309326,2.5012521743774414,2.083578586578369
1761417549677631000,6.924630859375,2.032041072845459,2.4323973655700684,2.420694351196289
1761417549694451000,6.941450927734375,1.8433666229248047,1.4488741159439087,3.0585641860961914
1761417549711283700,6.95828369140625,1.914729118347168,0.9959707260131836,3.204296588897705
1761417549728120600,6.97512060546875,2.7118682861328125,1.3472113609313965,2.988267421722412
1761417549744926500,6.991926513671875,3.2854232788085938,2.319955825805664,2.7158279418945312
1761417549761738000,7.008738037109375,3.1176815032958984,3.4047555923461914,2.5867438316345215
1761417549778571800,7.02557177734375,1.8865857124328613,3.859917163848877,2.6195621490478516
1761417549795380700,7.042380615234375,0.3108072280883789,3.614914894104004,2.664083480834961
1761417549812212700,7.059212646484375,-0.6763510704040527,3.140873432159424,2.3520469665527344
1761417549829037300,7.076037353515625,-0.23879718780517578,2.6067886352539062,2.2289514541625977
1761417549845862000,7.09286181640625,0.8834471702575684,1.4539258480072021,2.9428153038024902
1761417549862702800,7.109702880859375,1.7605924606323242,0.20666098594665527,3.768625259399414
1761417549879524400,7.1265244140625,2.185880184173584,-0.5412981510162354,4.378082752227783
1761417549896349200,7.14334912109375,2.003174304962158,-1.008331537246704,4.739948749542236
1761417549913179400,7.160179443359375,1.1429743766784668,-1.2968835830688477,4.473043918609619
1761417549929981700,7.176981689453125,0.11301851272583008,-1.32901132106781,3.7482147216796875
1761417549946805200,7.19380517578125,-0.5830283164978027,-1.4717484712600708,2.9321913719177246
1761417549963632400,7.21063232421875,-0.9821591377258301,-1.6347098350524902,2.183722972869873
1761417549980442400,7.2274423828125,-1.26287841796875,-1.8445357084274292,1.5383262634277344
1761417549997270000,7.24427001953125,-1.5116324424743652,-2.150876760482788,1.213646411895752
1761417550014094300,7.26109423828125,-1.870969295501709,-2.5504441261291504,1.1435351371765137
1761417550030919700,7.277919677734375,-2.412703514099121,-2.927616596221924,1.1683268547058105
1761417550047742500,7.294742431640625,-2.993159294128418,-3.218705892562866,1.1559300422668457
1761417550064568300,7.311568359375,-3.5425186157226562,-3.4034950733184814,1.032273292541504
1761417550081392600,7.328392578125,-3.926377773284912,-3.591550827026367,0.9619088172912598
1761417550098217700,7.3452177734375,-4.037262439727783,-3.695643901824951,0.9983625411987305
1761417550115040800,7.362040771484375,-3.8773093223571777,-3.7198331356048584,1.1151485443115234
1761417550131864800,7.37886474609375,-3.771604061126709,-3.8532602787017822,1.315319538116455
1761417550148705800,7.395705810546875,-3.7499289512634277,-4.109078407287598,1.4989733695983887
1761417550165526500,7.412526611328125,-3.7449254989624023,-4.402911186218262,1.5817275047302246
1761417550182346800,7.4293466796875,-3.655381202697754,-4.680182456970215,1.637420654296875
1761417550199180300,7.44618017578125,-3.4572620391845703,-5.022424697875977,1.7179975509643555
1761417550216000000,7.463,-2.995633602142334,-5.317625522613525,1.7828164100646973
1761417550232827600,7.47982763671875,-2.5829243659973145,-5.3768310546875,1.6686325073242188
1761417550249646300,7.496646240234375,-2.414867877960205,-5.100864410400391,1.2172536849975586
1761417550266473200,7.51347314453125,-2.346358299255371,-4.847268104553223,0.8327312469482422
1761417550283297800,7.5302978515625,-2.2567901611328125,-5.458821773529053,1.168006420135498
1761417550300122400,7.547122314453125,-2.2568817138671875,-6.29530143737793,1.4746747016906738
1761417550316947000,7.563947021484375,-2.0870823860168457,-6.35264778137207,1.2287135124206543
1761417550333771000,7.58077099609375,-1.6669044494628906,-5.596603870391846,0.6529927253723145
1761417550350595800,7.597595947265625,-1.1142430305480957,-4.296211242675781,-0.036704063415527344
1761417550367434000,7.61443408203125,-0.6882448196411133,-3.006807327270508,-0.45159053802490234
1761417550384258800,7.6312587890625,-0.7738432884216309,-2.3626761436462402,-0.34114503860473633
1761417550401082400,7.648082275390625,-1.2558016777038574,-2.5145339965820312,0.23317527770996094
1761417550417900500,7.664900634765625,-1.4770188331604004,-3.056084394454956,0.9772310256958008
1761417550434738700,7.68173876953125,-1.3226819038391113,-3.700209856033325,1.672750473022461
1761417550451556600,7.698556640625,-1.0497732162475586,-4.187959671020508,2.021158218383789
1761417550468382000,7.7153818359375,-0.7980661392211914,-4.176999092102051,1.901285171508789
1761417550485171500,7.73217138671875,-0.541222095489502,-3.845444679260254,1.5466232299804688
1761417550502016300,7.749016357421875,-0.44080352783203125,-3.3195624351501465,1.1572380065917969
1761417550518840600,7.765840576171875,-0.42075586318969727,-2.6600637435913086,0.7191095352172852
1761417550535667700,7.782667724609375,-0.7403159141540527,-0.718032956123352,2.4317498207092285
1761417550552489500,7.799489501953125,-2.788935661315918,-0.544414758682251,2.1001248359680176
1761417550569313800,7.816313720703125,-2.7492175102233887,-1.0035983324050903,0.13776636123657227
1761417550586155500,7.833155517578125,-1.1871790885925293,-1.5513736009597778,-1.149958610534668
1761417550602975700,7.849975830078125,0.3527498245239258,-1.585274577140808,-1.5353922843933105
1761417550619784200,7.8667841796875,1.4869017601013184,-1.173074722290039,-1.6503820419311523
1761417550636621000,7.88362109375,1.9631600379943848,-0.5794751644134521,-1.9183602333068848
1761417550653474600,7.900474609375,1.8356866836547852,-0.0009615421295166016,-2.23740291595459
1761417550670274000,7.917274169921875,1.580087661743164,0.5014550685882568,-2.296095848083496
1761417550687098600,7.9340986328125,1.4013595581054688,0.9561872482299805,-2.160013198852539
1761417550703923500,7.95092333984375,1.500589370727539,1.4658546447753906,-1.8885226249694824
1761417550720748300,7.967748291015625,1.677873134613037,1.8963065147399902,-1.3040423393249512
1761417550737555000,7.984554931640625,1.8163189888000488,2.3141002655029297,-0.6613368988037109
1761417550754378200,8.001378173828124,1.901303768157959,2.675098180770874,-0.127349853515625
1761417550771211800,8.018211669921875,1.8516483306884766,2.8548390865325928,0.39740610122680664
1761417550788032000,8.035031982421875,2.0164566040039062,2.9777169227600098,0.9101433753967285
1761417550804856000,8.05185595703125,2.437129497528076,3.112269401550293,1.4746646881103516
1761417550821680600,8.0686806640625,2.92387056350708,3.250337600708008,2.189810276031494
1761417550838505000,8.0855048828125,3.226902961730957,3.141091823577881,3.0607266426086426
1761417550855342800,8.1023427734375,2.8961710929870605,2.6679348945617676,3.646399974822998
1761417550872167400,8.11916748046875,3.0903573036193848,2.834937810897827,3.644469738006592
1761417550888989400,8.135989501953125,3.783736228942871,3.268529176712036,3.8128819465637207
1761417550905820400,8.1528203125,4.061862468719482,4.17011833190918,3.834110736846924
1761417550922641400,8.169641357421876,3.7913594245910645,5.405477046966553,3.4083032608032227
1761417550939465200,8.18646533203125,2.752338409423828,6.0928192138671875,3.1304049491882324
1761417550956289800,8.203289794921876,1.547194480895996,6.014132976531982,3.1569061279296875
1761417550973097700,8.22009765625,1.0722322463989258,5.76629638671875,3.141995429992676
1761417550989925400,8.23692529296875,1.4590368270874023,5.524544715881348,3.3160362243652344
1761417551006749400,8.25374951171875,2.306837558746338,4.879737377166748,3.97963809967041
1761417551023574000,8.270573974609375,3.0272040367126465,3.9548633098602295,4.955420970916748
1761417551040398800,8.28739892578125,3.4095191955566406,3.225836992263794,5.770812511444092
1761417551057210600,8.304210693359375,2.750159740447998,3.080256700515747,5.749765396118164
1761417551074064400,8.321064453125,2.021249771118164,1.61739182472229,5.781552791595459
1761417551090882600,8.337882568359374,1.336458683013916,0.7518634796142578,5.621979713439941
1761417551107731200,8.354731201171875,0.9741787910461426,0.9257535934448242,4.662399768829346
1761417551124534800,8.37153466796875,0.6477804183959961,0.9551424980163574,3.6432676315307617
1761417551141356300,8.388356201171876,0.07155561447143555,0.6406235694885254,3.0694336891174316
1761417551158171600,8.405171630859375,-0.6345725059509277,0.11351275444030762,2.7237753868103027
1761417551175009300,8.42200927734375,-1.4082927703857422,0.2358846664428711,2.0778555870056152
1761417551191832800,8.438832763671876,-1.4993410110473633,0.4204525947570801,1.2795615196228027
1761417551208656600,8.45565673828125,-1.6655969619750977,-0.6684329509735107,1.7102880477905273
1761417551225464300,8.47246435546875,-2.4544858932495117,-1.194655418395996,2.0917305946350098
1761417551242292200,8.489292236328126,-2.375697135925293,-2.1081480979919434,2.5766429901123047
1761417551259117000,8.506116943359375,-2.4909582138061523,-2.708845376968384,2.7505993843078613
1761417551275940900,8.52294091796875,-2.536111354827881,-3.0349698066711426,2.7525737285614014
1761417551292765400,8.539765380859375,-2.4281768798828125,-3.0177001953125,2.5375967025756836
1761417551309590500,8.556590576171875,-2.460805892944336,-2.6857213973999023,2.233245611190796
1761417551326428200,8.57342822265625,-2.812974452972412,-2.3870744705200195,2.0520730018615723
1761417551343248600,8.59024853515625,-3.3062124252319336,-2.541267156600952,2.057236671447754
1761417551360085000,8.6070849609375,-3.8555092811584473,-2.9262967109680176,2.1054389476776123
1761417551376889600,8.6238896484375,-4.248210906982422,-3.24442195892334,2.0506904125213623
1761417551393732900,8.64073291015625,-4.234556198120117,-3.4444613456726074,2.0611908435821533
1761417551410547700,8.657547607421876,-4.090598106384277,-3.572680711746216,2.2046163082122803
1761417551427377000,8.674376953125,-3.9554738998413086,-3.6375467777252197,2.4097378253936768
1761417551444199200,8.69119921875,-3.9488391876220703,-3.9054622650146484,2.554823160171509
1761417551461021000,8.70802099609375,-3.997697353363037,-4.331752777099609,2.446850538253784
1761417551477834500,8.72483447265625,-3.8387980461120605,-4.5622358322143555,2.15960955619812
1761417551494659000,8.7416591796875,-3.1401357650756836,-3.6841864585876465,1.5904686450958252
1761417551511483400,8.7584833984375,-1.746809482574463,-1.6927733421325684,0.564007043838501
1761417551528316200,8.775316162109375,-0.8076400756835938,-0.49104130268096924,0.07054352760314941
1761417551545132300,8.79213232421875,-0.8408298492431641,-0.5108779668807983,0.42548346519470215
1761417551561960400,8.80896044921875,-1.349283218383789,-1.3305346965789795,1.1940412521362305
1761417551578779000,8.82577880859375,-2.1093497276306152,-2.1657536029815674,1.647350788116455
1761417551595603200,8.842603271484375,-2.7528743743896484,-2.569077730178833,1.857605218887329
1761417551612444200,8.859444091796876,-3.0334725379943848,-2.6228232383728027,1.8349881172180176
1761417551629252000,8.876252197265625,-2.7849960327148438,-2.8368282318115234,1.8051910400390625
1761417551646077700,8.89307763671875,-2.574152946472168,-2.4245829582214355,1.6046814918518066
1761417551662917600,8.909917724609375,-2.080876350402832,-2.1421918869018555,1.5586047172546387
1761417551679742700,8.92674267578125,-1.45501708984375,-1.511631727218628,1.7410097122192383
1761417551696565800,8.943565673828125,-0.8545923233032227,-1.1573104858398438,1.352278709411621
1761417551713374000,8.9603740234375,-0.6218676567077637,-0.6614193916320801,0.7774496078491211
1761417551730201600,8.97720166015625,-0.2263484001159668,-0.09802865982055664,0.7969088554382324
1761417551747025700,8.994025634765626,0.19915294647216797,-0.020048141479492188,0.7819051742553711
1761417551763837400,9.01083740234375,0.22222566604614258,0.054375410079956055,0.21725130081176758
1761417551780671500,9.02767138671875,0.669466495513916,0.37876105308532715,-0.3178706169128418
1761417551797500400,9.04450048828125,0.9805612564086914,0.7583589553833008,-0.7168350219726562
1761417551814336500,9.06133642578125,1.0065460205078125,1.2243695259094238,-1.1155524253845215
1761417551831149800,9.07814990234375,1.223057746887207,1.6460976600646973,-1.6314635276794434
1761417551847971000,9.09497119140625,1.4962859153747559,1.9628393650054932,-2.0268616676330566
1761417551864796200,9.111796142578125,1.8690743446350098,2.079749822616577,-2.157928943634033
1761417551881621800,9.128621826171875,2.2275390625,1.9602751731872559,-2.0766654014587402
1761417551898457000,9.14545703125,2.5211071968078613,1.9623029232025146,-1.9671297073364258
1761417551915271000,9.16227099609375,2.733523368835449,2.0906636714935303,-1.909611701965332
1761417551932095200,9.17909521484375,3.054823398590088,2.3783836364746094,-1.8389325141906738
1761417551948919300,9.195919189453125,3.4234695434570312,2.663323402404785,-1.4941539764404297
1761417551965743900,9.212743896484374,3.6583876609802246,2.8249034881591797,-0.9872369766235352
1761417551982555600,9.2295556640625,3.986328601837158,3.01619553565979,-0.2876291275024414
1761417551999377400,9.24637744140625,4.504619598388672,3.0950047969818115,0.586097240447998
1761417552016204800,9.263204833984375,4.506125450134277,2.5317394733428955,1.6661090850830078
1761417552033030000,9.28002978515625,4.515561103820801,2.163090229034424,2.225402355194092
1761417552049865500,9.296865478515626,4.996916770935059,2.502915859222412,2.2457499504089355
1761417552066678500,9.313678466796874,6.093530178070068,3.1957080364227295,2.2320356369018555
1761417552083502600,9.330502685546875,6.552584648132324,4.092820167541504,2.4274158477783203
1761417552100326700,9.34732666015625,6.448304176330566,4.5751214027404785,2.753913402557373
1761417552117151200,9.364151123046875,5.629283428192139,4.38602876663208,2.9504990577697754
1761417552133977300,9.380977294921875,4.4065985679626465,4.332774639129639,2.474358081817627
1761417552150815500,9.3978154296875,3.5873498916625977,3.7835936546325684,1.972877025604248
1761417552167637200,9.41463720703125,2.918585777282715,3.5517330169677734,1.378671646118164
1761417552184461800,9.4314619140625,2.668539047241211,2.8568296432495117,1.195080280303955
1761417552201286400,9.448286376953124,3.132389545440674,1.643249750137329,1.762606143951416
1761417552218110500,9.4651103515625,3.5116477012634277,1.2376775741577148,2.081435203552246
1761417552234935300,9.481935302734374,3.601480484008789,1.258756160736084,2.12223482131958
1761417552251759600,9.498759521484375,3.3208465576171875,0.7513508796691895,2.368748664855957
1761417552268584200,9.515584228515625,2.6218690872192383,0.49066972732543945,2.2368669509887695
1761417552285408300,9.532408203125,1.917142391204834,0.4808986186981201,1.7163314819335938
1761417552302235400,9.5492353515625,1.1604361534118652,0.4215669631958008,1.0587701797485352
1761417552319081700,9.566081787109376,0.42858362197875977,0.3119945526123047,0.5551018714904785
1761417552335878400,9.58287841796875,-0.32570648193359375,0.6288316249847412,0.07590675354003906
1761417552352715800,9.5997158203125,-0.8223452568054199,0.3361058235168457,-0.20621490478515625
1761417552369533000,9.616532958984376,-1.6038203239440918,-0.15210676193237305,-0.14711713790893555
1761417552386369300,9.633369384765626,-2.134795665740967,-0.6591362953186035,0.05456066131591797
1761417552403193900,9.65019384765625,-2.5444908142089844,-0.7437336444854736,0.20146894454956055
1761417552420017700,9.667017578125,-2.5567612648010254,-0.7946867942810059,0.30577898025512695
1761417552436836000,9.683836181640626,-2.3952484130859375,-1.0644323825836182,0.46761178970336914
1761417552453649400,9.7006494140625,-2.216055393218994,-0.8596532344818115,0.34878063201904297
1761417552470478300,9.717478271484374,-2.171081066131592,-0.4237203598022461,0.00996255874633789
1761417552487301600,9.734301513671875,-1.3972277641296387,-0.45054662227630615,0.16874313354492188
1761417552504111900,9.75111181640625,-1.197993278503418,-0.7855304479598999,0.5077519416809082
1761417552520954600,9.76795458984375,-0.8821144104003906,-1.4222288131713867,1.1347222328186035
1761417552537775600,9.784775634765625,-0.6667613983154297,-1.9718221426010132,1.6294093132019043
1761417552554611200,9.801611083984374,-0.507659912109375,-2.090010643005371,1.4029569625854492
1761417552571442200,9.818442138671875,-0.45242929458618164,-1.5334317684173584,1.0964627265930176
1761417552588245800,9.835245849609375,-1.0268831253051758,-1.594236135482788,1.1554780006408691
1761417552605088000,9.852087890625,-1.7325639724731445,-1.846233606338501,1.3656373023986816
1761417552621916700,9.868916748046875,-2.1713061332702637,-1.8174700736999512,1.377701759338379
1761417552638713000,9.885713134765625,-1.9604129791259766,-1.428323745727539,1.2121648788452148
1761417552655560700,9.902560791015626,-0.4767889976501465,-0.6245280504226685,1.0343780517578125
