time,seconds_elapsed,z,y,x
1761486687849883000,0.1628828125,-1.0028879642486572,-0.38728857040405273,0.16340644657611847
1761486687862522400,0.1755224609375,-1.060920238494873,-0.5619960427284241,-0.009162978269159794
1761486687879346700,0.1923466796875,-1.1140655279159546,-1.1099421977996826,-0.34773504734039307
1761486687896171500,0.209171630859375,-1.2107349634170532,-1.3799445629119873,-0.36010506749153137
1761486687912998700,0.22599853515625,-1.3742940425872803,-1.0378600358963013,-0.14645494520664215
1761486687929824500,0.242824462890625,-1.373683214187622,-0.5771149396896362,0.05268712714314461
1761486687946653200,0.259653076171875,-1.1105530261993408,-0.5091561675071716,0.07971791177988052
1761486687963477200,0.276477294921875,-0.66584312915802,-0.9098837971687317,-0.13545936346054077
1761486687980304600,0.2933046875,-0.2379320114850998,-1.4902057647705078,-0.41401392221450806
1761486687997130500,0.310130615234375,0.024892758578062057,-2.172389507293701,-0.6189591884613037
1761486688013963500,0.326963623046875,0.10980302840471268,-2.4602596759796143,-0.7327328324317932
1761486688030782500,0.343782470703125,0.1765400618314743,-2.132377862930298,-0.7055493593215942
1761486688047607800,0.36060791015625,0.25763240456581116,-1.6329954862594604,-0.749531626701355
1761486688064422400,0.37742236328125,0.36010506749153137,-0.8315402865409851,-0.8097018599510193
1761486688081247500,0.39424755859375,0.43508878350257874,-0.3065016269683838,-0.8306240439414978
1761486688098078500,0.411078369140625,0.45265114307403564,0.16142113506793976,-0.8576548099517822
1761486688114892800,0.427892822265625,0.4358523488044739,0.41263946890830994,-0.8825475573539734
1761486688131728400,0.444728271484375,0.34987306594848633,0.375071257352829,-0.8248208165168762
1761486688148559600,0.4615595703125,0.2428189367055893,0.44806966185569763,-0.764955997467041
1761486688165395000,0.47839501953125,0.19792033731937408,0.40256020426750183,-0.7024950385093689
1761486688182221800,0.495221923828125,0.21807889640331268,0.4219551682472229,-0.5094616413116455
1761486688199047700,0.512047607421875,0.2811507284641266,0.5710062980651855,-0.23716843128204346
1761486688215875000,0.528875,0.28756481409072876,0.607200026512146,-0.022449297830462456
1761486688232701700,0.54570166015625,0.06994406878948212,0.817948579788208,0.08750644326210022
1761486688249527600,0.562527587890625,-0.35750889778137207,1.0746647119522095,0.10125091671943665
1761486688266349800,0.579349853515625,-0.541532039642334,0.7779368758201599,0.12064588814973831
1761486688283185400,0.596185302734375,-0.5755877494812012,0.4248567819595337,0.16523905098438263
1761486688299975400,0.612975341796875,-0.6241515874862671,0.18219055235385895,0.22586742043495178
1761486688316836000,0.629836181640625,-0.6815729141235352,0.06414084881544113,0.22357667982578278
1761486688333653200,0.6466533203125,-0.6490443348884583,0.32528573274612427,0.1612684279680252
1761486688350473500,0.663473388671875,-0.5867360830307007,0.7220427393913269,0.06780604273080826
1761486688367298600,0.680298583984375,-0.5751296281814575,0.9757044911384583,-0.0328340083360672
1761486688384125400,0.69712548828125,-0.6614143252372742,0.9625709056854248,-0.1514945775270462
1761486688400951300,0.713951416015625,-0.6918048858642578,0.5981897711753845,-0.3019201457500458
1761486688417779500,0.730779541015625,-0.7344127297401428,0.17180584371089935,-0.389426589012146
1761486688434607600,0.747607666015625,-0.7380779385566711,-0.12522737681865692,-0.29245173931121826
1761486688451441700,0.764441650390625,-0.6369797587394714,-0.19837848842144012,-0.01878410577774048
1761486688468274700,0.781274658203125,-0.5093088746070862,0.050243668258190155,0.3943135142326355
1761486688485092000,0.798092041015625,-0.46471574902534485,0.3937026560306549,0.7620543837547302
1761486688501917700,0.814917724609375,-0.46532660722732544,0.4558582007884979,0.9396634697914124
1761486688518754800,0.8317548828125,-0.4662429094314575,0.17898350954055786,0.870330274105072
1761486688535576600,0.84857666015625,-0.44547349214553833,-0.10766500234603882,0.6511823534965515
1761486688552396300,0.865396240234375,-0.35216382145881653,-0.2997821271419525,0.2226603776216507
1761486688569216000,0.882216064453125,-0.144622340798378,-1.069472312927246,-0.3147483170032501
1761486688586033000,0.899032958984375,-0.04153883829712868,-1.4088079929351807,-0.526107668876648
1761486688602868500,0.915868408203125,-0.09208793938159943,-1.3930782079696655,-0.44654250144958496
1761486688619696600,0.932696533203125,-0.20128010213375092,-1.0965031385421753,-0.26313021779060364
1761486688636501000,0.9495009765625,-0.28206703066825867,-0.9534079432487488,-0.10934487730264664
1761486688653360000,0.966360107421875,-0.26542094349861145,-0.7802276611328125,0.03375030308961868
1761486688670219000,0.983218994140625,-0.10797043144702911,-0.7003570199012756,0.11636982858181
1761486688687016400,1.000016357421875,-0.02367102913558483,-0.8132143616676331,0.11056660860776901
1761486688703847700,1.01684765625,-0.021991148591041565,-0.9071348905563354,0.08964447677135468
1761486688720661200,1.0336611328125,-0.05406157299876213,-0.9943358898162842,0.019547687843441963
1761486688737494500,1.05049462890625,-0.10995574295520782,-1.1016954183578491,-0.14263702929019928
1761486688754322700,1.06732275390625,-0.12446379661560059,-1.3394747972488403,-0.33597588539123535
1761486688771146800,1.084146728515625,-0.010231993161141872,-1.7547104358673096,-0.5647448897361755
1761486688787974000,1.100973876953125,0.21120665967464447,-2.0396790504455566,-0.7742717266082764
1761486688804799700,1.1177998046875,0.44257187843322754,-2.066251754760742,-0.944855809211731
1761486688821623000,1.134623046875,0.7429648637771606,-1.8857409954071045,-1.0616837739944458
1761486688838441200,1.151441162109375,1.1368201971054077,-1.7011070251464844,-1.0059423446655273
1761486688855265800,1.168265869140625,1.2466232776641846,-1.5665639638900757,-0.9135489463806152
1761486688872095000,1.185094970703125,1.112691044807434,-1.5606080293655396,-0.8816312551498413
1761486688888919800,1.201919921875,1.0118982791900635,-1.567480206489563,-0.8458956480026245
1761486688905744600,1.21874462890625,0.8118399381637573,-1.6916385889053345,-0.9434813857078552
1761486688922572000,1.235572021484375,0.5951354503631592,-1.7188221216201782,-1.004873275756836
1761486688939414500,1.25241455078125,0.39156460762023926,-1.465771198272705,-0.9986119866371155
1761486688956239400,1.2692392578125,0.1618792861700058,-1.0057896375656128,-0.916450560092926
1761486688973052700,1.286052734375,0.12339477986097336,-0.6050620079040527,-0.8338310718536377
1761486688989888800,1.302888671875,0.4509712755680084,-0.3400992155075073,-0.7799221873283386
1761486689006724400,1.319724365234375,0.7903069257736206,-0.10216721147298813,-0.7389942407608032
1761486689023528200,1.336528076171875,0.7768678665161133,0.007635815534740686,-0.46105054020881653
1761486689040350700,1.353350830078125,0.5786421298980713,-0.21074850857257843,-0.09743300825357437
1761486689057185000,1.37018505859375,0.4060726761817932,-0.6905831694602966,0.22220222651958466
1761486689074008600,1.387008544921875,0.30802878737449646,-1.3214542865753174,0.4743368625640869
1761486689090837500,1.40383740234375,0.3084869384765625,-1.9691240787506104,0.6667594313621521
1761486689107648800,1.420648681640625,0.4207334518432617,-2.0566306114196777,0.8888089060783386
1761486689124485600,1.437485595703125,0.7072292566299438,-2.364659309387207,1.1032226085662842
1761486689141334800,1.454334716796875,0.6624833345413208,-2.219120740890503,0.983951210975647
1761486689158156800,1.47115673828125,0.5134322643280029,-1.4963144063949585,0.9663888216018677
1761486689174981400,1.4879814453125,0.4040873646736145,-0.8191702961921692,0.9002626538276672
1761486689191791600,1.50479150390625,0.4086688458919525,-0.35033121705055237,0.8565858006477356
1761486689208631000,1.521631103515625,0.3831652104854584,-0.0039706239476799965,0.8620835542678833
1761486689225466400,1.53846630859375,0.3142901659011841,0.2649627923965454,0.926835298538208
1761486689242253300,1.55525341796875,0.22815817594528198,0.4427245855331421,1.0317513942718506
1761486689259113200,1.57211328125,0.10949759185314178,0.4505131244659424,1.1888965368270874
1761486689275941000,1.588941162109375,0.016340645030140877,0.4236350357532501,1.322981357574463
1761486689292745000,1.605744873046875,0.008857546374201775,0.3830125033855438,1.3605495691299438
1761486689309589500,1.622589599609375,0.14477506279945374,0.3098613917827606,1.3045027256011963
1761486689326400500,1.639400390625,0.34834590554237366,0.28985556960105896,1.1647672653198242
1761486689343237600,1.656237548828125,0.5925393104553223,0.280539870262146,0.9932668805122375
1761486689360060200,1.67306005859375,0.8174903988838196,0.1915062516927719,0.8074111342430115
1761486689376885000,1.689885009765625,0.902247965335846,-0.006719517521560192,0.6769914031028748
1761486689393698800,1.70669873046875,0.8917105197906494,-0.4882340431213379,0.6766859889030457
1761486689410540000,1.7235400390625,0.6759223937988281,-0.9256135821342468,0.7388415336608887
1761486689427381000,1.740381103515625,0.4534147381782532,-1.1748465299606323,0.8932377099990845
1761486689444204800,1.757204833984375,0.5487096905708313,-1.4049900770187378,0.901637077331543
1761486689461032200,1.7740322265625,0.650418758392334,-1.0604621171951294,0.6391177773475647
1761486689477840000,1.79083984375,0.7105889916419983,-0.8669704794883728,0.251676470041275
1761486689494685700,1.807685791015625,0.6688974499702454,-0.9277516007423401,-0.15836681425571442
1761486689511507000,1.8245068359375,0.5969680547714233,-1.1378892660140991,-0.5813909769058228
1761486689528323000,1.841322998046875,0.5803219676017761,-1.4457653760910034,-1.0147998332977295
1761486689545149200,1.858149169921875,0.6372851729393005,-1.5954272747039795,-1.2643383741378784
1761486689561977300,1.874977294921875,0.8168795704841614,-1.5931365489959717,-1.2067643404006958
1761486689578799000,1.891799072265625,1.0384708642959595,-1.4918856620788574,-0.8532260060310364
1761486689595628300,1.908628173828125,1.1102476119995117,-1.4595097303390503,-0.37751471996307373
1761486689612459300,1.925459228515625,1.0201449394226074,-1.5415184497833252,0.03390302136540413
1761486689629300200,1.94230029296875,0.9243918061256409,-1.6588045358657837,0.2603813111782074
1761486689646122000,1.9591220703125,0.9541715383529663,-1.7177530527114868,0.23900102078914642
1761486689662948600,1.975948486328125,1.1044443845748901,-1.69148588180542,-0.017562376335263252
1761486689679774500,1.9927744140625,1.3379476070404053,-1.596496343612671,-0.3828597962856293
1761486689696586000,2.0095859375,1.561829686164856,-1.4133894443511963,-0.6902777552604675
1761486689713427700,2.026427734375,1.680795669555664,-1.1788171529769897,-0.8781188130378723
1761486689730254300,2.04325439453125,1.6584991216659546,-0.8972083330154419,-0.9963212013244629
1761486689747081000,2.0600810546875,1.5502232313156128,-0.5609270334243774,-1.1024590730667114
1761486689763908900,2.076908935546875,1.418123722076416,-0.22617286443710327,-1.2195924520492554
1761486689780733200,2.093733154296875,1.2612839937210083,0.11591167747974396,-1.2977832555770874
1761486689797559000,2.11055908203125,1.1192578077316284,0.35353827476501465,-1.2906055450439453
1761486689814372400,2.127372314453125,1.0183123350143433,0.39416080713272095,-1.1606439352035522
1761486689831200300,2.1442001953125,0.9418014883995056,0.32971450686454773,-0.9013316631317139
1761486689848025300,2.161025390625,0.8512406945228577,0.21823160350322723,-0.5662720799446106
1761486689864849200,2.17784912109375,0.707534670829773,0.14676037430763245,-0.23594669997692108
1761486689881680600,2.1946806640625,0.5679519772529602,0.13729196786880493,0.005192354787141085
1761486689898509600,2.211509521484375,0.4888449013233185,0.1420261710882187,0.13209961354732513
1761486689915344600,2.2283447265625,0.44455718994140625,0.16142113506793976,0.2002110779285431
1761486689932171500,2.245171630859375,0.38698312640190125,0.23136521875858307,0.23396138846874237
1761486689948998000,2.261997802734375,0.299018532037735,0.27611109614372253,0.26419922709465027
1761486689965818000,2.278818115234375,0.18677204847335815,0.25366178154945374,0.2984076738357544
1761486689982658000,2.295657958984375,0.0529925599694252,0.20570887625217438,0.3214678466320038
1761486689999477500,2.3124775390625,-0.0884227454662323,0.23426681756973267,0.2981022298336029
1761486690016300000,2.329300048828125,-0.20295998454093933,0.3257438838481903,0.18600846827030182
1761486690033117700,2.34611767578125,-0.27779096364974976,0.4538728892803192,0.04841107130050659
1761486690049930200,2.36293017578125,-0.3911064863204956,0.6171266436576843,-0.04489859566092491
1761486690066766600,2.3797666015625,-0.5890268087387085,0.7238753437995911,-0.13469578325748444
1761486690083598000,2.39659814453125,-0.6856962442398071,0.8862127661705017,-0.3197879493236542
1761486690100423200,2.413423095703125,-0.5134322643280029,1.0557278394699097,-0.4314235746860504
1761486690117251800,2.430251953125,-0.19807305932044983,1.0248792171478271,-0.2632829248905182
1761486690134085400,2.44708544921875,-0.07941248267889023,0.7982481718063354,0.1108720451593399
1761486690150914600,2.46391455078125,-0.28955012559890747,0.4715879559516907,0.5503895878791809
1761486690167743000,2.480742919921875,-0.5726861953735352,0.14095716178417206,0.8993463516235352
1761486690184551400,2.497551513671875,-0.683863639831543,-0.1690569519996643,1.119410514831543
1761486690201390600,2.514390625,-0.6640105247497559,-0.3930917978286743,1.2661709785461426
1761486690218208300,2.531208251953125,-0.7127270102500916,-0.3891211748123169,1.3738359212875366
1761486690235053600,2.548053466796875,-0.8958339095115662,-0.11591167747974396,1.4460707902908325
1761486690251874600,2.56487451171875,-1.1244502067565918,0.2747366428375244,1.4272866249084473
1761486690268699100,2.58169921875,-1.2848023176193237,0.6113234162330627,1.3434454202651978
1761486690285523000,2.59852294921875,-1.3489432334899902,0.8423831462860107,1.2609785795211792
1761486690302333200,2.615333251953125,-1.3351987600326538,0.9375254511833191,1.2612839937210083
1761486690319162000,2.632162109375,-1.2667818069458008,0.9482156038284302,1.3756685256958008
1761486690335995600,2.64899560546875,-1.1838568449020386,0.8608618378639221,1.5451836585998535
1761486690352818400,2.665818359375,-1.1006264686584473,0.7012733221054077,1.730886697769165
1761486690369644800,2.682644775390625,-1.0302242040634155,0.5126686692237854,1.8878790140151978
1761486690386476000,2.69947607421875,-0.9692904353141785,0.3271183371543884,1.974927306175232
1761486690403313700,2.716313720703125,-0.9054549932479858,0.15577064454555511,1.961030125617981
1761486690420131800,2.7331318359375,-0.8448266386985779,0.025961773470044136,1.8736764192581177
1761486690436969500,2.749969482421875,-0.8148942589759827,-0.032528575509786606,1.7481436729431152
1761486690453788400,2.766788330078125,-0.8101600408554077,-0.021380282938480377,1.5890132188796997
1761486690470600000,2.783599853515625,-0.7831292152404785,0.03573561832308769,1.3848315477371216
1761486690487446500,2.800446533203125,-0.7081455588340759,0.05421429127454758,1.1527026891708374
1761486690504271600,2.817271728515625,-0.618195652961731,0.003359758760780096,0.9236282706260681
1761486690521079600,2.83407958984375,-0.5115996599197388,-0.12492194026708603,0.684474527835846
1761486690537909500,2.850909423828125,-0.40851613879203796,-0.26481008529663086,0.4156937897205353
1761486690554735400,2.8677353515625,-0.30085113644599915,-0.34926220774650574,0.09437867999076843
1761486690571563500,2.8845634765625,-0.1667662113904953,-0.3784310221672058,-0.2926044464111328
1761486690588388400,2.901388427734375,-0.01572977937757969,-0.31780263781547546,-0.6823364496231079
1761486690605215200,2.91821533203125,0.17058411240577698,-0.3599523603916168,-1.0062477588653564
1761486690622058500,2.93505859375,0.35353827476501465,-0.5392413139343262,-1.2936599254608154
1761486690638882800,2.9518828125,0.4778493344783783,-0.6656904220581055,-1.6488779783248901
1761486690655708000,2.9687080078125,0.5884159207344055,-0.637132465839386,-1.996307611465454
1761486690672518100,2.98551806640625,0.740368664264679,-0.49235737323760986,-2.166433572769165
1761486690689360600,3.002360595703125,0.9097310900688171,-0.4450153410434723,-2.0361666679382324
1761486690706184400,3.019184326171875,0.9761626720428467,-0.6328563690185547,-1.6157386302947998
1761486690723001300,3.03600146484375,0.9046914577484131,-0.9130908250808716,-1.1749993562698364
1761486690739819000,3.052819091796875,0.8185594081878662,-1.1803443431854248,-0.9451612234115601
1761486690756673800,3.069673828125,0.797789990901947,-1.3034337759017944,-0.9760099649429321
1761486690773486800,3.08648681640625,0.7852672934532166,-1.2377656698226929,-1.2281445264816284
1761486690790315000,3.10331494140625,0.7339546084403992,-1.0290025472640991,-1.5442672967910767
1761486690807129300,3.12012939453125,0.49327367544174194,-0.694553792476654,-1.8263343572616577
1761486690823961300,3.13696142578125,0.44425174593925476,-0.3095559775829315,-1.8002198934555054
1761486690840786400,3.153786376953125,0.3588833212852478,-0.004886921960860491,-1.810451865196228
1761486690857611300,3.170611328125,0.2822197377681732,0.35262197256088257,-1.8958202600479126
1761486690874430500,3.187430419921875,0.33429601788520813,0.6249151229858398,-2.063197374343872
1761486690891278000,3.204278076171875,0.35216382145881653,0.773202657699585,-2.2288944721221924
1761486690908105700,3.221105712890625,0.3686571717262268,0.8000807762145996,-2.2814290523529053
1761486690924922600,3.237922607421875,0.3776674270629883,0.7632761001586914,-2.1986567974090576
1761486690941753300,3.25475341796875,0.38011088967323303,0.7350236177444458,-2.0450241565704346
1761486690958587400,3.27158740234375,0.40286561846733093,0.7202101349830627,-1.8819230794906616
1761486690975396000,3.28839599609375,0.3952298164367676,0.7067710757255554,-1.7263051271438599
1761486690992236300,3.305236328125,0.3675881624221802,0.6934847831726074,-1.5897767543792725
1761486691009046300,3.32204638671875,0.34147366881370544,0.6739370822906494,-1.4897476434707642
1761486691025875500,3.33887548828125,0.30863967537879944,0.6783658266067505,-1.418123722076416
1761486691042687700,3.355687744140625,0.2715296149253845,0.7281513810157776,-1.3645201921463013
1761486691059532000,3.372531982421875,0.27458393573760986,0.7980954647064209,-1.324508547782898
1761486691076355300,3.389355224609375,0.2993239760398865,0.8240572214126587,-1.2646437883377075
1761486691093181200,3.40618115234375,0.31841349601745605,0.7638869881629944,-1.1484266519546509
1761486691110028500,3.423028564453125,0.2822197377681732,0.6656904220581055,-1.0122036933898926
1761486691126830000,3.439830078125,0.2076941877603531,0.5870414972305298,-0.8814785480499268
1761486691143675400,3.45667529296875,0.1036943718791008,0.555429220199585,-0.8008443117141724
1761486691160496000,3.47349609375,0.016340645030140877,0.5766568183898926,-0.9042332768440247
1761486691177324800,3.49032470703125,0.011301007121801376,0.6189591884613037,-1.0422887802124023
1761486691194154000,3.507154052734375,0.07284568250179291,0.6316346526145935,-0.9515753388404846
1761486691210980400,3.52398046875,0.05757404863834381,0.6539312601089478,-0.6951646208763123
1761486691227827700,3.54082763671875,-0.13973543047904968,0.5879577994346619,-0.33918291330337524
1761486691244634600,3.557634521484375,-0.4434881806373596,0.4329507350921631,0.03955352306365967
1761486691261452300,3.574452392578125,-0.6192646622657776,0.2217440903186798,0.3168863356113434
1761486691278275600,3.591275634765625,-0.5600107312202454,-0.08216137439012527,0.5532912015914917
1761486691295098400,3.608098388671875,-0.4060726761817932,-0.3674354553222656,0.8370380997657776
1761486691311926500,3.624926513671875,-0.42638394236564636,-0.47937649488449097,1.150259256362915
1761486691328738300,3.64173828125,-0.6633996367454529,-0.37308594584465027,1.4155274629592896
1761486691345579500,3.65857958984375,-1.0080803632736206,-0.11636982858181,1.5377005338668823
1761486691362406100,3.67540625,-1.2968668937683105,0.1560760736465454,1.5048664808273315
1761486691379246000,3.69224609375,-1.494939923286438,0.4231768846511841,1.4028520584106445
1761486691396071000,3.70907080078125,-1.6145168542861938,0.6313292384147644,1.31916344165802
1761486691412893700,3.725893798828125,-1.6756033897399902,0.7489207983016968,1.3318389654159546
1761486691429719800,3.7427197265625,-1.6965254545211792,0.7828238010406494,1.439351201057434
1761486691446555600,3.7595556640625,-1.6798794269561768,0.7225008606910706,1.575726866722107
1761486691463377000,3.776376953125,-1.6342172622680664,0.6102544069290161,1.6759088039398193
1761486691480199400,3.793199462890625,-1.5734361410140991,0.47678032517433167,1.7146987915039062
1761486691497003300,3.810003173828125,-1.5030338764190674,0.35903605818748474,1.6931657791137695
1761486691513843700,3.82684375,-1.4262176752090454,0.25305092334747314,1.614822268486023
1761486691530668300,3.843668212890625,-1.3321443796157837,0.17867808043956757,1.4911220073699951
1761486691547495400,3.860495361328125,-1.2362385988235474,0.168751522898674,1.3403910398483276
1761486691564321300,3.8773212890625,-1.1598803997039795,0.13729196786880493,1.187522053718567
1761486691581139000,3.894138916015625,-1.0797042846679688,0.041691552847623825,1.0558805465698242
1761486691597987000,3.910987060546875,-0.9564622640609741,-0.11041389405727386,0.9135489463806152
1761486691614819000,3.927819091796875,-0.7980954647064209,-0.25366178154945374,0.7496843934059143
1761486691631651600,3.944651611328125,-0.6148358583450317,-0.3170390725135803,0.5290092825889587
1761486691648470300,3.96147021484375,-0.4213443100452423,-0.30863967537879944,0.2477058619260788
1761486691665294800,3.978294921875,-0.23686300218105316,-0.2837468981742859,-0.05543602257966995
1761486691682088400,3.99508837890625,-0.06643159687519073,-0.2532036304473877,-0.33292156457901
1761486691698942700,4.011942626953125,0.14095716178417206,-0.25473082065582275,-0.5241223573684692
1761486691715778300,4.0287783203125,0.39248090982437134,-0.40912699699401855,-0.6666067242622375
1761486691732595200,4.04559521484375,0.5917757153511047,-0.5705481171607971,-0.8727737069129944
1761486691749427000,4.062427001953125,0.7594582438468933,-0.5685628056526184,-1.1385000944137573
1761486691766238500,4.079238525390625,0.9289733171463013,-0.4008803069591522,-1.317789077758789
1761486691783066400,4.09606640625,1.0667234659194946,-0.2695443034172058,-1.270447015762329
1761486691799891200,4.11289111328125,1.1548407077789307,-0.4153883755207062,-1.0004445314407349
1761486691816718300,4.12971826171875,1.1762210130691528,-0.7037167549133301,-0.6760751008987427
1761486691833544000,4.1465439453125,1.2038626670837402,-1.0242682695388794,-0.4193589985370636
1761486691850375700,4.163375732421875,1.281595230102539,-1.3255776166915894,-0.2594650089740753
1761486691867211000,4.1802109375,1.3417655229568481,-1.4466816186904907,-0.2736676335334778
1761486691884038000,4.197037841796875,1.3156510591506958,-1.3041973114013672,-0.4634940028190613
1761486691900846600,4.2138466796875,1.179580807685852,-1.0077749490737915,-0.7283040881156921
1761486691917684500,4.2306845703125,0.9870055317878723,-0.6655376553535461,-0.9821186065673828
1761486691934523400,4.2475234375,0.8315402865409851,-0.35384368896484375,-1.2460123300552368
1761486691951327000,4.264326904296875,0.7858781218528748,-0.09162978827953339,-1.522887110710144
1761486691968148500,4.2811484375,0.8402451276779175,0.11392636597156525,-1.761888027191162
1761486691984994800,4.297994873046875,0.9589056968688965,0.15057829022407532,-1.8671096563339233
1761486692001789000,4.314788818359375,1.0560332536697388,0.032070424407720566,-1.7837265729904175
1761486692018619600,4.33161962890625,1.0986411571502686,-0.15806138515472412,-1.5714508295059204
1761486692035458300,4.348458251953125,1.1140655279159546,-0.2528982162475586,-1.3321443796157837
1761486692052292000,4.3652919921875,1.1027644872665405,-0.2272418737411499,-1.141707181930542
1761486692069114000,4.382114013671875,1.046717643737793,-0.10873401165008545,-1.0094548463821411
1761486692085944600,4.398944580078125,0.9639453291893005,0.020005837082862854,-0.9152288436889648
1761486692102764000,4.415763916015625,0.8484918475151062,0.10354165732860565,-0.8219192028045654
1761486692119608800,4.43260888671875,0.7049384713172913,0.19532416760921478,-0.7246388792991638
1761486692136433400,4.449433349609375,0.5502368807792664,0.3084869384765625,-0.6594290137290955
1761486692153257500,4.466257568359375,0.394618958234787,0.40301835536956787,-0.5911648273468018
1761486692170086400,4.48308642578125,0.28909197449684143,0.44165557622909546,-0.4960225820541382
1761486692186914000,4.4999140625,0.26282477378845215,0.4285219609737396,-0.40393465757369995
1761486692203758600,4.516758544921875,0.26603180170059204,0.30695977807044983,-0.2880229651927948
1761486692220562400,4.5335625,0.25854870676994324,0.09483683109283447,-0.09605856239795685
1761486692237389000,4.55038916015625,0.2275473028421402,-0.14492778480052948,0.15592335164546967
1761486692254209500,4.56720947265625,0.13484850525856018,-0.3361285924911499,0.40256020426750183
1761486692271031300,4.58403125,0.028405234217643738,-0.4329507350921631,0.4977024495601654
1761486692287858200,4.600858154296875,0.055283304303884506,-0.38347065448760986,0.499382346868515
1761486692304684000,4.61768408203125,0.15225815773010254,-0.34605515003204346,0.6293439269065857
1761486692321512000,4.634511962890625,0.11178833991289139,-0.42531493306159973,0.9375254511833191
1761486692338340000,4.651340087890625,-0.10201449692249298,-0.5115996599197388,1.3348932266235352
1761486692355177500,4.668177490234375,-0.3723223805427551,-0.5827654600143433,1.7250834703445435
1761486692371999000,4.6849990234375,-0.5299255847930908,-0.6780604124069214,1.972331166267395
1761486692388835600,4.701835693359375,-0.5102251768112183,-0.7615962624549866,2.1085541248321533
1761486692405641000,4.718640869140625,-0.3891211748123169,-0.8498662710189819,2.3049473762512207
1761486692422484200,4.735484130859375,-0.2971859276294708,-0.9944885969161987,2.613128900527954
1761486692439308500,4.75230859375,-0.30375275015830994,-1.175152063369751,2.937345504760742
1761486692456134700,4.769134765625,-0.42989641427993774,-1.3055717945098877,3.1650454998016357
1761486692472958700,4.785958740234375,-0.6269004344940186,-1.2857186794281006,3.268892526626587
1761486692489774600,4.802774658203125,-0.8242099285125732,-1.1305588483810425,3.221245050430298
1761486692506588200,4.819588134765625,-1.0265589952468872,-0.7979426980018616,3.04042911529541
1761486692523426300,4.83642626953125,-1.198823094367981,-0.44058656692504883,2.8286116123199463
1761486692540256800,4.8532568359375,-1.3240504264831543,-0.16111570596694946,2.660012722015381
1761486692557080800,4.870080810546875,-1.4065172672271729,-0.00809396430850029,2.5327999591827393
1761486692573907000,4.886906982421875,-1.4463762044906616,0.02229658141732216,2.4410176277160645
1761486692590751700,4.903751708984375,-1.4430164098739624,-0.01237002108246088,2.3438899517059326
1761486692607578400,4.920578369140625,-1.4107933044433594,-0.03634648025035858,2.202627420425415
1761486692624395300,4.937395263671875,-1.3605495691299438,-0.025045474991202354,2.018298864364624
1761486692641209600,4.954209716796875,-1.305266261100769,0.007941247895359993,1.7945693731307983
1761486692658054400,4.971054443359375,-1.2385293245315552,0.04963280260562897,1.5433510541915894
1761486692674878700,4.987878662109375,-1.156978726387024,0.08017606288194656,1.2831224203109741
1761486692691676200,5.00467626953125,-1.053742527961731,0.07941248267889023,1.0267117023468018
1761486692708527600,5.021527587890625,-0.9182831645011902,0.05925392732024193,0.7858781218528748
1761486692725360400,5.0383603515625,-0.7791585922241211,0.016340645030140877,0.5929974317550659
1761486692742171000,5.0551708984375,-0.6328563690185547,-0.04642575979232788,0.413555771112442
1761486692758998000,5.071998046875,-0.45753806829452515,-0.06322455406188965,0.19349156320095062
1761486692775824000,5.088823974609375,-0.24037547409534454,-0.058337632566690445,-0.06780604273080826
1761486692792650200,5.105650146484375,0.014966198243200779,-0.03649919852614403,-0.31612277030944824
1761486692809473500,5.1224736328125,0.3222314119338989,-0.07070764899253845,-0.5218316316604614
1761486692826303500,5.139303466796875,0.6018549799919128,-0.13057245314121246,-0.7435756921768188
1761486692843166700,5.156166748046875,0.8486445546150208,-0.1547016203403473,-0.9918924570083618
1761486692859971000,5.17297119140625,1.1299480199813843,-0.031612277030944824,-1.164156436920166
1761486692876794600,5.189794677734375,1.5780175924301147,0.06322455406188965,-1.1731667518615723
1761486692893623000,5.206623046875,1.8614591360092163,0.036651913076639175,-0.9622654914855957
1761486692910448600,5.22344873046875,2.149634838104248,-0.1739438772201538,-0.584750771522522
1761486692927274500,5.2402744140625,2.2818870544433594,-0.5812382698059082,-0.197004035115242
1761486692944104000,5.25710400390625,2.3996315002441406,-1.0001391172409058,0.18341228365898132
1761486692960929300,5.27392919921875,2.5027148723602295,-1.2846496105194092,0.49144110083580017
1761486692977734400,5.290734375,2.624277114868164,-1.2258538007736206,0.6272059082984924
1761486692994571500,5.307571533203125,2.6870434284210205,-0.9512699246406555,0.5378668308258057
1761486693011393800,5.324393798828125,2.6778805255889893,-0.6914994716644287,0.35582900047302246
1761486693028217300,5.34121728515625,2.6426031589508057,-0.5462662577629089,0.22846360504627228
1761486693045049900,5.3580498046875,2.5642595291137695,-0.4954117238521576,0.20143280923366547
1761486693061874400,5.37487451171875,2.4808764457702637,-0.5057964324951172,0.25182920694351196
1761486693078716700,5.391716552734375,2.414444923400879,-0.5717698931694031,0.3488040566444397
1761486693095523600,5.408523681640625,2.292119026184082,-0.6875288486480713,0.451123982667923
1761486693112359400,5.425359375,2.1126773357391357,-0.8006916046142578,0.5082398653030396
1761486693129183500,5.44218359375,1.8920023441314697,-0.8651378750801086,0.4943426847457886
1761486693146005200,5.459005126953125,1.659262776374817,-0.8529205918312073,0.4366159439086914
1761486693162832100,5.47583203125,1.4271339178085327,-0.7831292152404785,0.3700316250324249
1761486693179658000,5.492657958984375,1.2176071405410767,-0.7128797173500061,0.35674530267715454
1761486693196469200,5.50946923828125,1.0358747243881226,-0.6771441102027893,0.42149701714515686
1761486693213314300,5.526314208984375,0.8669704794883728,-0.7192938327789307,0.5558874011039734
1761486693230134000,5.543134033203125,0.6969972252845764,-0.8206974864006042,0.7588473558425903
1761486693246962700,5.559962646484375,0.5442809462547302,-0.9291260242462158,0.9712757468223572
1761486693263791400,5.576791259765625,0.42959097027778625,-0.9746354818344116,1.1314750909805298
1761486693280603400,5.593603271484375,0.3410155177116394,-0.9663888216018677,1.2104294300079346
1761486693297443300,5.610443359375,0.24572055041790009,-0.9627236127853394,1.2518155574798584
1761486693314272800,5.627272705078125,0.10170906037092209,-0.9799805879592896,1.3098478317260742
1761486693331088400,5.64408837890625,-0.11820242553949356,-0.9943358898162842,1.384678840637207
1761486693347932700,5.6609326171875,-0.40714168548583984,-0.930347740650177,1.4243850708007812
1761486693364750000,5.67775,-0.7232644557952881,-0.703411340713501,1.3845261335372925
1761486693381571800,5.69457177734375,-1.0309878587722778,-0.4046982228755951,1.1716395616531372
1761486693398416600,5.711416748046875,-1.1798862218856812,-0.0029016099870204926,0.8558222055435181
1761486693415241200,5.7282412109375,-1.098793864250183,0.4053090810775757,0.70692378282547
1761486693432068600,5.745068603515625,-0.9793696999549866,0.5571091175079346,0.9288206100463867
1761486693448879000,5.761879150390625,-1.007622241973877,0.35964691638946533,1.4066699743270874
1761486693465705200,5.778705322265625,-1.0525208711624146,-0.023365596309304237,1.8541287183761597
1761486693482533400,5.795533447265625,-0.9257662892341614,-0.38957929611206055,2.1786508560180664
1761486693499360300,5.8123603515625,-0.6548475623130798,-0.6757696866989136,2.442850112915039
1761486693516186000,5.82918603515625,-0.4323398768901825,-0.7733554244041443,2.649322509765625
1761486693533014300,5.84601416015625,-0.43279802799224854,-0.6963863968849182,2.783712863922119
1761486693549817300,5.8628173828125,-0.6233879923820496,-0.5383250117301941,2.8426613807678223
1761486693566681900,5.879681884765625,-0.8323038816452026,-0.3315471112728119,2.8156306743621826
1761486693583507000,5.8965068359375,-0.973566472530365,-0.08827003091573715,2.744464874267578
1761486693600315000,5.91331494140625,-1.0848966836929321,0.1420261710882187,2.6955955028533936
1761486693617155000,5.930155029296875,-1.2003501653671265,0.33628132939338684,2.6723828315734863
1761486693633974500,5.946974609375,-1.2832751274108887,0.4476115107536316,2.649933338165283
1761486693650806000,5.963805908203125,-1.328937292098999,0.5151121020317078,2.5980098247528076
1761486693667618000,5.9806181640625,-1.3364204168319702,0.5748242139816284,2.5059218406677246
1761486693684468200,5.99746826171875,-1.29381263256073,0.6269004344940186,2.384359836578369
1761486693701286100,6.0142861328125,-1.2105822563171387,0.6496551632881165,2.2345449924468994
1761486693718092300,6.03109228515625,-1.1062769889831543,0.6302602291107178,2.0534234046936035
1761486693734931200,6.04793115234375,-0.9837985038757324,0.5691736936569214,1.8484781980514526
1761486693751751400,6.06475146484375,-0.8393288254737854,0.4951062798500061,1.6557502746582031
1761486693768587500,6.08158740234375,-0.6814202070236206,0.3497203588485718,1.476919412612915
1761486693785409000,6.098408935546875,-0.49525898694992065,0.17043140530586243,1.2861768007278442
1761486693802240500,6.115240478515625,-0.27779096364974976,0.0065668015740811825,1.0380127429962158
1761486693819054600,6.1320546875,-0.06200282275676727,-0.09437867999076843,0.7012733221054077
1761486693835906300,6.14890625,0.12339477986097336,-0.1820378452539444,0.3471241891384125
1761486693852724000,6.165723876953125,0.2704605758190155,-0.21151208877563477,0.03420845419168472
1761486693869560300,6.182560302734375,0.4213443100452423,-0.1661553531885147,-0.21502456068992615
1761486693886383400,6.19938330078125,0.6117815375328064,-0.2125810980796814,-0.32879820466041565
1761486693903205600,6.21620556640625,0.7498371005058289,-0.33368512988090515,-0.42119157314300537
1761486693920017400,6.233017333984375,0.8304712772369385,-0.3023782968521118,-0.6911939978599548
1761486693936858000,6.249858154296875,0.967915952205658,-0.15256360173225403,-0.9586002826690674
1761486693953687600,6.2666875,1.1678216457366943,-0.008399397134780884,-1.0036516189575195
1761486693970499800,6.283499755859375,1.323439598083496,-0.05115996301174164,-0.7018841505050659
1761486693987326000,6.300325927734375,1.311833143234253,-0.36651915311813354,-0.26908615231513977
1761486694004153900,6.31715380859375,1.177748203277588,-0.7104362845420837,-0.01237002108246088
1761486694020979000,6.33397900390625,1.0693196058273315,-0.9127854108810425,-0.03726277872920036
1761486694037805600,6.3508056640625,1.0509936809539795,-0.8781188130378723,-0.30970868468284607
1761486694054638000,6.36763818359375,1.1632401943206787,-0.5850561857223511,-0.7342600226402283
1761486694071469000,6.384468994140625,1.369254469871521,-0.18631389737129211,-1.1494957208633423
1761486694088302000,6.401302001953125,1.5519031286239624,0.02535090781748295,-1.3547463417053223
1761486694105125400,6.41812548828125,1.644449234008789,0.058948494493961334,-1.3628404140472412
1761486694121951000,6.434950927734375,1.571908950805664,0.11026117950677872,-1.2999212741851807
1761486694138759200,6.45175927734375,1.291369080543518,0.21212296187877655,-1.3225232362747192
1761486694155614700,6.46861474609375,0.8923214077949524,0.4737260043621063,-1.5354098081588745
1761486694172430600,6.4854306640625,0.6676757335662842,1.0015136003494263,-1.9724838733673096
1761486694189253000,6.502253173828125,0.8153523802757263,1.7588337659835815,-2.4052820205688477
1761486694206070800,6.51907080078125,1.135140299797058,1.9773707389831543,-2.590832233428955
1761486694222888400,6.535888427734375,1.3952162265777588,1.5868752002716064,-2.5581510066986084
1761486694239720200,6.55272021484375,1.359480619430542,1.0242682695388794,-2.3990204334259033
1761486694256535000,6.56953515625,0.9338602423667908,0.49495357275009155,-2.2728769779205322
1761486694273379600,6.586379638671875,0.384845107793808,0.2629774808883667,-2.235766887664795
1761486694290205200,6.603205078125,0.17837265133857727,0.32360586524009705,-2.258368730545044
1761486694307040300,6.620040283203125,0.34162637591362,0.35873061418533325,-2.169487953186035
1761486694323868000,6.636867919921875,0.7240280508995056,-0.013591751456260681,-1.657124638557434
1761486694340695800,6.65369580078125,0.9992228150367737,-0.9086620807647705,-0.6345362663269043
1761486694357517000,6.67051708984375,0.9068294763565063,-1.7457001209259033,0.7367035150527954
1761486694374348300,6.687348388671875,0.4944954216480255,-2.021658420562744,1.910786509513855
1761486694391173400,6.70417333984375,0.06276640295982361,-1.7108808755874634,2.310903310775757
1761486694408001300,6.721001220703125,-0.13408492505550385,-1.0607675313949585,2.051438093185425
1761486694424843800,6.73784375,0.01191187184303999,-0.4648684561252594,1.6458237171173096
1761486694441650400,6.754650390625,0.08170322328805923,-0.1443169116973877,1.6223053932189941
1761486694458464500,6.771464599609375,-0.10705413669347763,-0.10064005106687546,2.0245602130889893
1761486694475293400,6.78829345703125,-0.49067750573158264,-0.18600846827030182,2.576324224472046
1761486694492118300,6.8051181640625,-0.9352346658706665,-0.21380282938480377,2.959336757659912
1761486694508945400,6.8219453125,-1.2548699378967285,-0.0555887371301651,2.967125177383423
1761486694525771300,6.838771240234375,-1.4201090335845947,0.2958115041255951,2.6430611610412598
1761486694542599000,6.855598876953125,-1.4388930797576904,0.7704538106918335,2.202474594116211
1761486694559441000,6.87244091796875,-1.3382530212402344,1.1864529848098755,1.881770372390747
1761486694576265000,6.889264892578125,-1.22279953956604,1.303586483001709,1.8061758279800415
1761486694593090000,6.906090087890625,-1.1962268352508545,1.269836187362671,1.9147571325302124
1761486694609918700,6.922918701171875,-1.2458596229553223,1.2412781715393066,2.045940399169922
1761486694626743000,6.939742919921875,-1.3222178220748901,1.34115469455719,2.082592248916626
1761486694643566000,6.956566162109375,-1.3596333265304565,1.508837103843689,1.9970711469650269
1761486694660400400,6.973400390625,-1.3565789461135864,1.7453947067260742,1.801899790763855
1761486694677220900,6.990220947265625,-1.3029755353927612,2.0280725955963135,1.574657917022705
1761486694694035200,7.00703515625,-1.1830933094024658,2.2519547939300537,1.4016302824020386
1761486694710862300,7.0238623046875,-1.0245736837387085,2.3498458862304688,1.2988522052764893
1761486694727688000,7.04068798828125,-0.8422304391860962,2.406045436859131,1.2554807662963867
1761486694744516000,7.05751611328125,-0.6479753255844116,2.325716733932495,1.239292860031128
1761486694761341200,7.074341064453125,-0.4697553813457489,2.1988093852996826,1.2628111839294434
1761486694778171100,7.091171142578125,-0.36071592569351196,2.020589590072632,1.274570345878601
1761486694795007500,7.108007568359375,-0.2877175211906433,1.8270978927612305,1.2586878538131714
1761486694811835600,7.124835693359375,-0.21609358489513397,1.6273449659347534,1.2188289165496826
1761486694828660200,7.14166015625,-0.11667526513338089,1.4062118530273438,1.1355985403060913
1761486694845470500,7.158470458984375,0.03726277872920036,1.079246163368225,0.9439395070075989
1761486694862312700,7.175312744140625,0.2499966025352478,0.7397578358650208,0.6261368989944458
1761486694879145700,7.192145751953125,0.42500948905944824,0.6210972666740417,0.22067506611347198
1761486694895961600,7.208961669921875,0.50335294008255,0.7081455588340759,-0.16004669666290283
1761486694912794600,7.225794677734375,0.5157229900360107,0.7950411438941956,-0.5093088746070862
1761486694929621500,7.24262158203125,0.45036038756370544,0.7438811659812927,-0.9624181985855103
1761486694946429700,7.2594296875,0.22250767052173615,0.5508477091789246,-1.665065884590149
1761486694963254800,7.2762548828125,-0.24113905429840088,0.24495697021484375,-2.5280659198760986
1761486694980086800,7.293086669921875,-0.751669704914093,-0.14324790239334106,-3.0350840091705322
1761486694996912000,7.309912109375,-1.3600914478302002,-0.31841349601745605,-2.5393667221069336
1761486695013738500,7.326738525390625,-1.676672339439392,0.07162395119667053,-1.4366023540496826
1761486695030563600,7.3435634765625,-1.2814425230026245,0.4034765064716339,-0.4164573848247528
1761486695047412700,7.360412841796875,-0.7041749358177185,0.6921103000640869,0.09636399149894714
1761486695064238000,7.377238037109375,-0.5461135506629944,1.1007791757583618,0.23900102078914642
1761486695081058300,7.394058349609375,-0.5258022546768188,1.045190453529358,0.09086620807647705
1761486695097883000,7.4108828125,-0.545655369758606,0.6635523438453674,-0.15286903083324432
1761486695114713300,7.42771337890625,-0.8408560156822205,0.47678032517433167,-0.46731191873550415
1761486695131532300,7.4445322265625,-1.306488037109375,0.2919935882091522,-0.736245334148407
1761486695148360000,7.46135986328125,-1.5990924835205078,0.3171917796134949,-0.880104124546051
1761486695165189000,7.478189208984375,-1.5470162630081177,0.35842517018318176,-0.9288206100463867
1761486695182001700,7.495001708984375,-1.2602150440216064,0.42012256383895874,-0.8578075170516968
1761486695198828000,7.511828125,-0.8494081497192383,0.7357872128486633,-0.6574437022209167
1761486695215655400,7.528655517578125,-0.3888157308101654,0.9627236127853394,-0.48747047781944275
1761486695232480300,7.545480224609375,-0.05146539583802223,1.2276864051818848,-0.35216382145881653
1761486695249307100,7.56230712890625,0.05971207842230797,1.3266465663909912,-0.2616030275821686
1761486695266136600,7.579136474609375,0.1212567538022995,1.2177598476409912,-0.15271630883216858
1761486695282975500,7.5959755859375,0.18417587876319885,1.0668761730194092,0.051312681287527084
1761486695299779000,7.612779052734375,0.18524488806724548,0.8717046976089478,0.35643985867500305
1761486695316630800,7.629630859375,0.15500704944133759,0.683863639831543,0.8080220222473145
1761486695333422000,7.646422119140625,0.1589776873588562,0.7165449261665344,1.3820825815200806
1761486695350259500,7.663259521484375,0.22250767052173615,0.5722280144691467,1.811673641204834
1761486695367109400,7.680109375,0.31749722361564636,0.16203200817108154,1.4647021293640137
1761486695383914500,7.69691455078125,0.5971207618713379,0.33337971568107605,0.2275473028421402
