time,seconds_elapsed,z,y,x
1761486733579554600,0.143554443359375,0.41859540343284607,0.2695443034172058,1.520138144493103
1761486733596406500,0.160406494140625,0.6174320578575134,0.38698312640190125,1.429577350616455
1761486733613241300,0.177241455078125,0.8032878041267395,0.40485092997550964,1.220050573348999
1761486733630054100,0.19405419921875,0.8385652899742126,0.46731191873550415,1.1357512474060059
1761486733646884400,0.21088427734375,0.565203070640564,0.4017966091632843,1.006400465965271
1761486733663705300,0.227705322265625,0.328340083360672,0.1540907621383667,0.8135197758674622
1761486733680532000,0.244531982421875,0.4466952085494995,-0.2073887437582016,0.7458664774894714
1761486733697358000,0.261358154296875,0.6427829265594482,-0.4066835343837738,0.7547240257263184
1761486733714185200,0.278185302734375,0.6461427211761475,-0.43127086758613586,0.7638869881629944
1761486733731010300,0.29501025390625,0.5400048494338989,-0.45555275678634644,0.8629998564720154
1761486733747836400,0.31183642578125,0.22159136831760406,-0.31062498688697815,1.0595457553863525
1761486733764662300,0.328662353515625,-0.1316414624452591,-0.0861319974064827,1.207069754600525
1761486733781489700,0.34548974609375,-0.35705074667930603,0.03420845419168472,1.2544118165969849
1761486733798314800,0.362314697265625,-0.4966334402561188,0.008246680721640587,1.2484558820724487
1761486733815135200,0.37913525390625,-0.5551238059997559,-0.018936822190880775,1.2353222370147705
1761486733831972600,0.39597265625,-0.5931501388549805,0.061391957104206085,1.1804970502853394
1761486733848798500,0.412798583984375,-0.6293439269065857,0.20906862616539001,1.0435105562210083
1761486733865619700,0.42961962890625,-0.6217080950737,0.328340083360672,0.8833111524581909
1761486733882445600,0.446445556640625,-0.5390886068344116,0.4460843503475189,0.7631233930587769
1761486733899271400,0.463271484375,-0.37568211555480957,0.4473060667514801,0.7455610036849976
1761486733916098300,0.480098388671875,-0.2871066629886627,0.41370847821235657,0.7469354867935181
1761486733932927000,0.496927001953125,-0.23976461589336395,0.4622722864151001,0.7360926270484924
1761486733949730800,0.513730712890625,-0.11820242553949356,0.5650503635406494,0.6655376553535461
1761486733966556200,0.53055615234375,0.019089538604021072,0.7767151594161987,0.5560401082038879
1761486733983384600,0.547384521484375,0.1290452778339386,0.888350784778595,0.3442225754261017
1761486734000219400,0.564219482421875,0.2148718535900116,0.7683157324790955,0.08231408894062042
1761486734017036800,0.581036865234375,0.26251932978630066,0.45265114307403564,-0.13500121235847473
1761486734033863700,0.59786376953125,0.2727513313293457,0.14813482761383057,-0.27611109614372253
1761486734050697200,0.614697265625,0.3121521472930908,0.0074830991216003895,-0.4079052805900574
1761486734067519000,0.63151904296875,0.37308594584465027,-0.04505131021142006,-0.5247332453727722
1761486734084345600,0.648345703125,0.4308127164840698,-0.1690569519996643,-0.7348709106445312
1761486734101173200,0.66517333984375,0.30115658044815063,-0.19944749772548676,-1.1293370723724365
1761486734117998600,0.68199853515625,-0.004123340360820293,0.04138612002134323,-1.5170838832855225
1761486734134823700,0.69882373046875,-0.18814650177955627,0.4156937897205353,-1.5386168956756592
1761486734151649800,0.71564990234375,-0.12293662875890732,0.5155702829360962,-1.1872166395187378
1761486734168479500,0.7324794921875,-0.18478673696517944,0.3182607889175415,-0.59803706407547
1761486734185289200,0.749289306640625,-0.3689626157283783,-0.1875356286764145,-0.30970868468284607
1761486734202142000,0.766141845703125,-0.5627595782279968,-0.4712825417518616,-0.3781255781650543
1761486734218967800,0.7829677734375,-0.6918048858642578,-0.45723262429237366,-0.6452264189720154
1761486734235777500,0.799777587890625,-0.7057020664215088,-0.2356412708759308,-0.9781479835510254
1761486734252618200,0.8166181640625,-0.6464481353759766,-0.0032070425804704428,-1.2391401529312134
1761486734269449500,0.833449462890625,-0.5564982295036316,0.03680463135242462,-1.3333661556243896
1761486734286272500,0.8502724609375,-0.47968193888664246,0.009468411095440388,-1.3750576972961426
1761486734303098600,0.8670986328125,-0.47830748558044434,0.0555887371301651,-1.2237157821655273
1761486734319925500,0.883925537109375,-0.5969680547714233,0.3562871515750885,-0.9929614663124084
1761486734336747000,0.9007470703125,-0.68325275182724,0.6979135274887085,-0.8130616545677185
1761486734353581300,0.917581298828125,-0.7768678665161133,0.9352346658706665,-0.6438519954681396
1761486734370400500,0.934400390625,-0.8662069439888,0.8662069439888,-0.5378668308258057
1761486734387249400,0.95124951171875,-0.9057604670524597,0.5984952449798584,-0.5290092825889587
1761486734404063000,0.96806298828125,-0.8955284357070923,0.2915354371070862,-0.5873469114303589
1761486734420859000,0.98485888671875,-0.8269588351249695,0.16249015927314758,-0.6843217611312866
1761486734437707300,1.001707275390625,-0.7189884185791016,0.19058994948863983,-0.8219192028045654
1761486734454538800,1.018538818359375,-0.5975789427757263,0.28069257736206055,-0.9216429591178894
1761486734471342800,1.0353427734375,-0.4573853611946106,0.2909245789051056,-0.9586002826690674
1761486734488172500,1.052172607421875,-0.34513887763023376,0.19135354459285736,-0.9604328870773315
1761486734504998700,1.06899853515625,-0.247094988822937,0.07910704612731934,-1.007927656173706
1761486734521812500,1.0858125,-0.15057829022407532,0.046731192618608475,-1.103833556175232
1761486734538647800,1.102647705078125,-0.09560041129589081,0.07162395119667053,-1.2198978662490845
1761486734555479600,1.1194794921875,-0.06261368840932846,0.12110403180122375,-1.2712105512619019
1761486734572302800,1.136302734375,-0.04993823543190956,0.29077184200286865,-1.2105822563171387
1761486734589130500,1.153130615234375,-0.0858265683054924,0.7147123217582703,-1.031598687171936
1761486734605943300,1.169943359375,-0.21594086289405823,0.979827880859375,-0.9818131923675537
1761486734622778400,1.1867783203125,-0.36163222789764404,0.7932085394859314,-1.0664180517196655
1761486734639610600,1.203610595703125,-0.42699480056762695,0.37400224804878235,-1.3423763513565063
1761486734656438000,1.22043798828125,-0.32559117674827576,0.009621127508580685,-1.7024813890457153
1761486734673273600,1.237273681640625,-0.1033889427781105,-0.204487144947052,-1.875814437866211
1761486734690104000,1.25410400390625,0.014813481830060482,-0.03497203439474106,-1.6410894393920898
1761486734706919700,1.270919677734375,-0.11575896292924881,0.18020524084568024,-1.1058188676834106
1761486734723740200,1.287740234375,-0.4381431043148041,0.09392052888870239,-0.48090365529060364
1761486734740578000,1.304578125,-0.7866417169570923,-0.26404649019241333,0.012675453908741474
1761486734757404400,1.321404296875,-0.9969320893287659,-0.5998696684837341,0.33918291330337524
1761486734774226400,1.338226318359375,-0.9515753388404846,-0.8063421249389648,0.551305890083313
1761486734791060700,1.355060791015625,-0.5968153476715088,-0.9932668805122375,0.6511823534965515
1761486734807882500,1.371882568359375,-0.28420504927635193,-1.34115469455719,0.6907358765602112
1761486734824698600,1.38869873046875,-0.22296582162380219,-1.627650499343872,0.7622070908546448
1761486734841534500,1.405534423828125,-0.48777589201927185,-1.6910277605056763,0.8394815921783447
1761486734858366500,1.422366455078125,-0.9112582206726074,-1.6655241250991821,0.7683157324790955
1761486734875166200,1.439166259765625,-1.2835805416107178,-1.3200798034667969,0.5484042763710022
1761486734892017200,1.45601708984375,-1.6221526861190796,-0.5658139586448669,0.2981022298336029
1761486734908839200,1.472839111328125,-1.7927367687225342,0.0507018156349659,-0.07162395119667053
1761486734925639000,1.489638916015625,-1.9194912910461426,0.42180246114730835,-0.3066543638706207
1761486734942478000,1.50647802734375,-2.015702486038208,0.4101960062980652,-0.28680121898651123
1761486734959300400,1.52330029296875,-2.004554271697998,0.01237002108246088,-0.14813482761383057
1761486734976114000,1.540114013671875,-1.9398025274276733,-0.31322115659713745,0.07773260027170181
1761486734992960500,1.55696044921875,-1.6708691120147705,-0.37079519033432007,0.19776763021945953
1761486735009782500,1.573782470703125,-1.4231632947921753,-0.26481008529663086,0.25961771607398987
1761486735026608400,1.5906083984375,-1.2147055864334106,-0.26862800121307373,0.28725937008857727
1761486735043434500,1.6074345703125,-1.064738154411316,-0.26969701051712036,0.3147483170032501
1761486735060261600,1.62426171875,-0.9621127843856812,-0.25854870676994324,0.32039880752563477
1761486735077084000,1.641083984375,-0.8776606321334839,-0.608421802520752,0.3446807265281677
1761486735093915600,1.65791552734375,-0.8405506014823914,-1.0945178270339966,0.470671683549881
1761486735110739200,1.6747392578125,-0.7541131377220154,-1.3055717945098877,0.561079740524292
1761486735127566300,1.69156640625,-0.6444628238677979,-1.1336132287979126,0.44180828332901
1761486735144394800,1.708394775390625,-0.5303837656974792,-0.6772968173027039,0.144622340798378
1761486735161223400,1.725223388671875,-0.4283692538738251,-0.2600758671760559,-0.19776763021945953
1761486735178062000,1.74206201171875,-0.3197879493236542,-0.1362229436635971,-0.4645630121231079
1761486735194887700,1.7588876953125,-0.08155050873756409,-0.2955060601234436,-0.5946773290634155
1761486735211716600,1.775716552734375,0.16951510310173035,-0.4421137273311615,-0.6325509548187256
1761486735228529000,1.79252880859375,0.46441030502319336,-0.1488984078168869,-0.8306240439414978
1761486735245362000,1.80936181640625,0.637132465839386,0.35475999116897583,-1.2296717166900635
1761486735262164500,1.82616455078125,0.7082982659339905,0.5135849714279175,-1.4424055814743042
1761486735279017200,1.843017333984375,0.55069500207901,0.09758572280406952,-1.2814425230026245
1761486735295840500,1.859840576171875,0.09193521738052368,-0.732122004032135,-0.8681922554969788
1761486735312649500,1.8766494140625,-0.2730567753314972,-1.4315626621246338,-0.5836817622184753
1761486735329489400,1.893489501953125,-0.3930917978286743,-1.8002198934555054,-0.7266241908073425
1761486735346305800,1.910305908203125,-0.23151792585849762,-0.9905179738998413,-0.935081958770752
1761486735363145500,1.9271455078125,-0.09666942805051804,-0.19120082259178162,-1.2415835857391357
1761486735379993300,1.943993408203125,-0.11209376901388168,-0.00931569468230009,-1.5389223098754883
1761486735396794000,1.960794189453125,-0.20326541364192963,-0.15683965384960175,-1.6079500913619995
1761486735413627100,1.977627197265625,-0.22770002484321594,-0.4715879559516907,-1.482264518737793
1761486735430425000,1.994425048828125,-0.2718350291252136,-0.6533203721046448,-1.2162326574325562
1761486735447266600,2.0112666015625,-0.2860376536846161,-0.19456058740615845,-1.1302534341812134
1761486735464075800,2.02807568359375,-0.1963931769132614,0.2519819140434265,-1.0632109642028809
1761486735480919800,2.044919921875,-0.0858265683054924,0.5600107312202454,-1.1099421977996826
1761486735497740000,2.061739990234375,-0.10064005106687546,0.7432702779769897,-1.291063666343689
1761486735514566400,2.07856640625,-0.24816401302814484,0.888350784778595,-1.4789047241210938
1761486735531393300,2.095393310546875,-0.5051855444908142,1.0896308422088623,-1.5442672967910767
1761486735548218400,2.11221826171875,-0.7997753024101257,1.278693675994873,-1.500285029411316
1761486735565033700,2.12903369140625,-1.0349584817886353,1.335504174232483,-1.3894129991531372
1761486735581870600,2.14587060546875,-1.0054842233657837,1.5909985303878784,-1.3083206415176392
1761486735598697700,2.16269775390625,-0.6922630667686462,1.986533761024475,-1.3561208248138428
1761486735615522800,2.179522705078125,-0.18829920887947083,2.3553435802459717,-1.4085025787353516
1761486735632352500,2.1963525390625,0.29657506942749023,2.7290403842926025,-1.4735597372055054
1761486735649188600,2.213188720703125,0.3219259977340698,2.6082417964935303,-1.4830280542373657
1761486735666016000,2.23001611328125,-0.12018773704767227,2.255620002746582,-1.3807082176208496
1761486735682840000,2.246840087890625,-0.44913867115974426,2.1650590896606445,-1.1244502067565918
1761486735699660800,2.263660888671875,-0.48258355259895325,1.875814437866211,-0.9135489463806152
1761486735716483600,2.280483642578125,-0.3929390609264374,1.2571606636047363,-0.8865181803703308
1761486735733321000,2.297321044921875,-0.4129449129104614,0.7964155673980713,-0.8240572214126587
1761486735750145500,2.3141455078125,-0.5322163701057434,0.06627888232469559,-1.0067058801651
1761486735766967800,2.3309677734375,-0.6843217611312866,-0.11759155988693237,-1.2429580688476562
1761486735783801600,2.347801513671875,-0.6722571849822998,0.08475755155086517,-1.4453071355819702
1761486735800625200,2.364625244140625,-0.6126978397369385,0.09224065393209457,-1.5300647020339966
1761486735817442600,2.381442626953125,-0.679129421710968,-0.1889100819826126,-1.3280210494995117
1761486735834283300,2.398283203125,-0.7751879692077637,-0.5239696502685547,-0.7043276429176331
1761486735851102700,2.415102783203125,-0.7939720749855042,-1.021824836730957,0.07101308554410934
1761486735867933700,2.43193359375,-0.6803511381149292,-1.7647897005081177,0.5691736936569214
1761486735884750000,2.44875,-0.521984338760376,-2.1734585762023926,0.8341364860534668
1761486735901580800,2.465580810546875,-0.3842342495918274,-2.291355609893799,0.9062185883522034
1761486735918402600,2.482402587890625,-0.37659841775894165,-2.1038198471069336,0.8878926634788513
1761486735935234600,2.499234619140625,-0.3952298164367676,-1.6562083959579468,0.8338310718536377
1761486735952045600,2.516045654296875,-0.5148066878318787,-1.2090550661087036,0.7890852093696594
1761486735968871700,2.53287158203125,-0.6363688707351685,-0.7651087045669556,0.7883216142654419
1761486735985697500,2.549697509765625,-0.7156286239624023,-0.39095374941825867,0.8434522151947021
1761486736002524700,2.566524658203125,-0.8014551997184753,-0.1160643994808197,0.8764389157295227
1761486736019350000,2.58335009765625,-0.9033169746398926,0.08918632566928864,0.9143125414848328
1761486736036176100,2.600176025390625,-0.9808968901634216,0.16004669666290283,0.8961393237113953
1761486736053002000,2.617001953125,-1.0769554376602173,0.21471913158893585,0.8304712772369385
1761486736069829400,2.633829345703125,-1.1395691633224487,0.244804248213768,0.736245334148407
1761486736086641400,2.650641357421875,-1.1261301040649414,0.33735033869743347,0.6904304623603821
1761486736103481900,2.66748193359375,-0.9845620393753052,0.4196644127368927,0.6850853562355042
1761486736120308700,2.684308837890625,-0.817337691783905,0.46593746542930603,0.7487680912017822
1761486736137128400,2.70112841796875,-0.6502660512924194,0.4573853611946106,0.8489499688148499
1761486736153971500,2.717971435546875,-0.4697553813457489,0.3017674386501312,0.9202684760093689
1761486736170798800,2.734798828125,-0.2718350291252136,0.10751228034496307,0.940121591091156
1761486736187636200,2.75163623046875,-0.06322455406188965,-0.12522737681865692,0.9054549932479858
1761486736204448500,2.768448486328125,0.13515393435955048,-0.2958115041255951,0.8584184050559998
1761486736221273300,2.7852734375,0.3816380500793457,-0.45921793580055237,0.8474228382110596
1761486736238082800,2.802082763671875,0.5500841736793518,-0.543059229850769,0.6710354685783386
1761486736254925000,2.818925048828125,0.6823364496231079,-0.5442809462547302,0.4593706727027893
1761486736271748400,2.835748291015625,0.7822129726409912,-0.48426342010498047,0.24159720540046692
1761486736288566500,2.85256640625,0.8639161586761475,-0.47968193888664246,0.06673702597618103
1761486736305404400,2.869404296875,1.0010554790496826,-0.6644686460494995,-0.19837848842144012
1761486736322237000,2.88623681640625,1.0670288801193237,-0.7785477638244629,-0.6446155309677124
1761486736339053800,2.9030537109375,1.1140655279159546,-0.6250678896903992,-1.0855075120925903
1761486736355881700,2.9198818359375,1.311833143234253,-0.3452915847301483,-1.2725850343704224
1761486736372716000,2.936716064453125,1.472796082496643,-0.22739458084106445,-1.144608736038208
1761486736389521400,2.953521484375,1.4726433753967285,-0.3978259861469269,-0.8871290683746338
1761486736406361300,2.970361328125,1.3431400060653687,-0.7988590002059937,-0.7692320346832275
1761486736423194000,2.987194091796875,1.1953105926513672,-1.1357512474060059,-0.8591819405555725
1761486736439999500,3.00399951171875,1.1183415651321411,-1.229824423789978,-1.1087204217910767
1761486736456829000,3.020828857421875,1.0896308422088623,-1.0422887802124023,-1.4669928550720215
1761486736473656300,3.03765625,1.0438159704208374,-0.6394231915473938,-1.8303049802780151
1761486736490481200,3.054481201171875,0.9538660645484924,-0.07651086896657944,-2.04655122756958
1761486736507307500,3.0713076171875,0.8721628785133362,0.44196099042892456,-2.090533494949341
1761486736524133400,3.08813330078125,0.8436049222946167,0.7629706859588623,-1.9611828327178955
1761486736540960500,3.10496044921875,0.8834638595581055,0.7817547917366028,-1.742187738418579
1761486736557772500,3.1217724609375,0.9395107626914978,0.5630650520324707,-1.4943290948867798
1761486736574601500,3.1386015625,1.0137308835983276,0.21914790570735931,-1.2218831777572632
1761486736591435300,3.155435302734375,1.072221279144287,-0.1414152979850769,-0.9524916410446167
1761486736608268500,3.1722685546875,1.1189523935317993,-0.39416080713272095,-0.7053966522216797
1761486736625103600,3.189103515625,1.1614075899124146,-0.44104471802711487,-0.531147301197052
1761486736641914600,3.20591455078125,1.180649757385254,-0.3303253948688507,-0.455705463886261
1761486736658756000,3.222756103515625,1.1734721660614014,-0.1394299864768982,-0.44913867115974426
1761486736675583000,3.2395830078125,1.1612548828125,0.0012217304902151227,-0.48517972230911255
1761486736692408000,3.256407958984375,1.1343767642974854,0.03298672288656235,-0.5186246037483215
1761486736709235000,3.27323486328125,1.0714576244354248,0.06490442901849747,-0.5313000679016113
1761486736726054100,3.29005419921875,0.9896016716957092,0.10522153973579407,-0.537408709526062
1761486736742893600,3.3068935546875,0.9062185883522034,0.1849394589662552,-0.5299255847930908
1761486736759713300,3.32371337890625,0.813825249671936,0.2713768780231476,-0.5061018466949463
1761486736776536800,3.340536865234375,0.7141014933586121,0.3387247920036316,-0.4729624092578888
1761486736793346600,3.3573466796875,0.6082690954208374,0.3937026560306549,-0.4495968222618103
1761486736810188500,3.3741884765625,0.49877145886421204,0.4210388660430908,-0.43799036741256714
1761486736827012600,3.3910126953125,0.39095374941825867,0.44654250144958496,-0.41202861070632935
1761486736843832800,3.407832763671875,0.24663683772087097,0.3828597962856293,-0.40072759985923767
1761486736860655600,3.424655517578125,0.15821409225463867,0.3094032406806946,-0.4810563921928406
1761486736877482800,3.441482666015625,0.16142113506793976,0.38698312640190125,-0.47051894664764404
1761486736894308000,3.45830810546875,0.15882496535778046,0.611934244632721,-0.26862800121307373
1761486736911121000,3.475120849609375,0.033139441162347794,0.7906123399734497,0.021380282938480377
1761486736927960300,3.491960205078125,-0.2444988191127777,0.7423539757728577,0.2776382565498352
1761486736944787500,3.508787353515625,-0.5653557777404785,0.4807509481906891,0.47540587186813354
1761486736961612500,3.525612548828125,-0.7785477638244629,0.13988813757896423,0.650418758392334
1761486736978438700,3.542438720703125,-0.8524624705314636,-0.1621847152709961,0.8232936263084412
1761486736995251700,3.559251708984375,-0.9243918061256409,-0.3098613917827606,1.03037691116333
1761486737012088600,3.576088623046875,-1.1256719827651978,-0.2718350291252136,1.2455542087554932
1761486737028920300,3.59292041015625,-1.416596531867981,-0.096211276948452,1.3715451955795288
1761486737045731800,3.60973193359375,-1.673465371131897,0.11927144229412079,1.3442089557647705
1761486737062569200,3.6265693359375,-1.8738291263580322,0.313373863697052,1.244943380355835
1761486737079401700,3.643401611328125,-2.0111210346221924,0.461355984210968,1.1410962343215942
1761486737096224800,3.660224853515625,-2.096794843673706,0.565203070640564,1.0807733535766602
1761486737113061400,3.677061279296875,-2.1508564949035645,0.616973876953125,1.0903944969177246
1761486737129887500,3.693887451171875,-2.1849122047424316,0.5957463383674622,1.1624765396118164
1761486737146714600,3.710714599609375,-2.2148447036743164,0.542142927646637,1.263269305229187
1761486737163540000,3.7275400390625,-2.238821029663086,0.4821254014968872,1.3278683423995972
1761486737180365800,3.74436572265625,-2.2429444789886475,0.43478333950042725,1.3394747972488403
1761486737197187800,3.761187744140625,-2.2032382488250732,0.4314235746860504,1.2855658531188965
1761486737214023200,3.778023193359375,-2.1126773357391357,0.413555771112442,1.2046263217926025
1761486737230844000,3.794843994140625,-1.9620991945266724,0.3651446998119354,1.127810001373291
1761486737247670500,3.81167041015625,-1.7792977094650269,0.3003929853439331,1.0864238739013672
1761486737264496400,3.828496337890625,-1.58733332157135,0.2249511331319809,1.058171272277832
1761486737281307000,3.845306884765625,-1.4350751638412476,0.11010845750570297,1.007622241973877
1761486737298144800,3.862144775390625,-1.3315335512161255,-0.021838432177901268,0.9459248185157776
1761486737314978800,3.878978759765625,-1.2435688972473145,-0.15332718193531036,0.8266534209251404
1761486737331779600,3.895779541015625,-1.1398745775222778,-0.23671028017997742,0.5974262356758118
1761486737348632000,3.912632080078125,-1.018770456314087,-0.22159136831760406,0.2945897579193115
1761486737365419300,3.929419189453125,-0.8765916228294373,-0.11468994617462158,-0.040164388716220856
1761486737382278000,3.94627783203125,-0.7249443531036377,0.03481931984424591,-0.3614795207977295
1761486737399106300,3.963106201171875,-0.5699372887611389,0.17287486791610718,-0.6079636216163635
1761486737415914000,3.9799140625,-0.3816380500793457,0.04108068719506264,-0.7478517889976501
1761486737432746500,3.99674658203125,-0.22113321721553802,-0.2015855312347412,-0.9541715383529663
1761486737449569000,4.013569091796875,-0.044745877385139465,-0.2857322096824646,-1.331380844116211
1761486737466396700,4.030396728515625,0.17638733983039856,-0.0933096632361412,-1.7524197101593018
1761486737483215400,4.04721533203125,0.43768495321273804,0.08307767659425735,-1.9961549043655396
1761486737500050400,4.064050537109375,0.6974554061889648,0.00931569468230009,-1.8901697397232056
1761486737525287400,4.089287353515625,0.8465065360069275,-0.5285511612892151,-1.2657127380371094
1761486737542114600,4.106114501953125,0.7631233930587769,-0.877966046333313,-0.8445212244987488
1761486737558939600,4.122939697265625,0.7359399199485779,-1.0934487581253052,-0.66584312915802
1761486737575753700,4.139753662109375,0.8187121152877808,-1.00502610206604,-0.8411614298820496
1761486737592605400,4.15660546875,0.9390525817871094,-0.6436992287635803,-1.2551753520965576
1761486737609436400,4.1734365234375,1.0131200551986694,-0.16325373947620392,-1.7095063924789429
1761486737626258000,4.1902578125,1.0348057746887207,0.20402899384498596,-2.045787811279297
1761486737643080700,4.207080810546875,1.045190453529358,0.422871470451355,-2.2519547939300537
1761486737659914000,4.2239140625,1.0696250200271606,0.43799036741256714,-2.3318252563476562
1761486737676737300,4.2407373046875,1.1618657112121582,0.30863967537879944,-2.288912057876587
1761486737693563000,4.25756298828125,1.2788463830947876,0.1540907621383667,-2.1305453777313232
1761486737710389200,4.27438916015625,1.3833043575286865,0.045204028487205505,-1.8959729671478271
1761486737727198500,4.291198486328125,1.447597861289978,-0.022602014243602753,-1.6120734214782715
1761486737744042000,4.3080419921875,1.4561500549316406,-0.022449297830462456,-1.3069461584091187
1761486737760861000,4.32486083984375,1.4196507930755615,0.009926560334861279,-1.0560332536697388
1761486737777699000,4.341698974609375,1.3576480150222778,0.07269296050071716,-0.9747881889343262
1761486737794506200,4.35850634765625,1.2788463830947876,0.12217304855585098,-1.0630582571029663
1761486737811346200,4.37534619140625,1.1928671598434448,0.168751522898674,-1.2301298379898071
1761486737828171300,4.392171142578125,1.1169670820236206,0.2623666226863861,-1.373683214187622
1761486737844997600,4.40899755859375,1.0705413818359375,0.3904955983161926,-1.4563027620315552
1761486737861814300,4.425814208984375,1.0201449394226074,0.4440990388393402,-1.4688254594802856
1761486737878641000,4.442640869140625,0.9535606503486633,0.41828998923301697,-1.395521640777588
1761486737895475500,4.459475341796875,0.8645270466804504,0.3520110845565796,-1.2971723079681396
1761486737912285400,4.476285400390625,0.7504479289054871,0.3090978264808655,-1.2487612962722778
1761486737929113900,4.49311376953125,0.6575964093208313,0.32940909266471863,-1.250593900680542
1761486737945941500,4.50994140625,0.6012440919876099,0.3880521357059479,-1.2996158599853516
1761486737962763000,4.526762939453125,0.5516113042831421,0.33368512988090515,-1.3544409275054932
1761486737979593700,4.54359375,0.5670356750488281,0.2684752643108368,-1.318858027458191
1761486737996416300,4.560416259765625,0.6081163287162781,0.23869559168815613,-1.0412198305130005
1761486738013250800,4.577250732421875,0.4660901725292206,0.2684752643108368,-0.6255260109901428
1761486738030061300,4.594061279296875,0.0682641938328743,0.37079519033432007,-0.3068070709705353
1761486738046898000,4.61089794921875,-0.42699480056762695,0.5684100985527039,-0.18677204847335815
1761486738063722200,4.62772216796875,-0.8187121152877808,0.6924157738685608,-0.19562959671020508
1761486738080551400,4.644551513671875,-0.9743300676345825,0.6304129362106323,-0.13301590085029602
1761486738097388500,4.661388427734375,-0.9305005073547363,0.3805690407752991,0.2015855312347412
1761486738114217500,4.678217529296875,-0.8886561989784241,0.04260785132646561,0.7913759350776672
1761486738131041300,4.695041259765625,-1.00502610206604,-0.3171917796134949,1.3933836221694946
1761486738147868200,4.7118681640625,-1.2202032804489136,-0.5711590051651001,1.778228759765625
1761486738164693000,4.72869287109375,-1.447597861289978,-0.6137668490409851,1.860695481300354
1761486738181503500,4.74550341796875,-1.659262776374817,-0.3949243724346161,1.7032450437545776
1761486738198345500,4.762345458984375,-1.8617645502090454,-0.05207626149058342,1.4647021293640137
1761486738215169300,4.779169189453125,-2.046704053878784,0.2509129047393799,1.3066407442092896
1761486738232000500,4.79600048828125,-2.2127065658569336,0.4607451260089874,1.280220866203308
1761486738248808400,4.812808349609375,-2.323273181915283,0.5482515692710876,1.3359622955322266
1761486738265650000,4.82964990234375,-2.3684773445129395,0.5511531829833984,1.4080443382263184
1761486738282477000,4.84647705078125,-2.3576343059539795,0.5053382515907288,1.4758504629135132
1761486738299300900,4.86330078125,-2.3107504844665527,0.4415028691291809,1.5180001258850098
1761486738316126700,4.880126708984375,-2.222633123397827,0.37827831506729126,1.514182209968567
1761486738332954400,4.896954345703125,-2.094046115875244,0.34636059403419495,1.4691308736801147
1761486738349768700,4.913768798828125,-1.9556851387023926,0.38026362657546997,1.3904820680618286
1761486738366606600,4.930606689453125,-1.8055649995803833,0.3982841372489929,1.2947288751602173
1761486738383433500,4.94743359375,-1.6288721561431885,0.3536909818649292,1.1942415237426758
1761486738400238800,4.96423876953125,-1.449125051498413,0.28848111629486084,1.1056660413742065
1761486738417070300,4.9810703125,-1.2602150440216064,0.20815233886241913,1.0077749490737915
1761486738433890800,4.997890869140625,-1.0505355596542358,0.1235474944114685,0.8793405294418335
1761486738450724600,5.014724609375,-0.8309294581413269,0.04535674303770065,0.6976081132888794
1761486738467547400,5.03154736328125,-0.6125451326370239,-0.04306599870324135,0.4781547784805298
1761486738484377900,5.0483779296875,-0.4086688458919525,-0.09178250283002853,0.26633724570274353
1761486738501202700,5.06520263671875,-0.22220222651958466,-0.12446379661560059,0.04657847434282303
1761486738518028500,5.082028564453125,-0.014508049935102463,-0.17027868330478668,-0.18600846827030182
1761486738534854000,5.09885400390625,0.21563543379306793,-0.3211624026298523,-0.45326200127601624
1761486738551679500,5.115679443359375,0.4346306324005127,-0.413097620010376,-0.8002334833145142
1761486738568525600,5.132525634765625,0.6659958362579346,-0.3404046595096588,-1.19912850856781
1761486738585330400,5.149330322265625,0.9405797719955444,-0.07177666574716568,-1.5375478267669678
1761486738602172400,5.16617236328125,1.2324206829071045,0.17272214591503143,-1.633148193359375
1761486738618995000,5.182994873046875,1.4773776531219482,0.14477506279945374,-1.3187053203582764
1761486738635814100,5.199814208984375,1.5560264587402344,-0.30894508957862854,-0.6948592066764832
1761486738652634600,5.216634521484375,1.4795156717300415,-0.9314168095588684,-0.09178250283002853
1761486738669476600,5.2334765625,1.3910928964614868,-1.5294538736343384,0.2799290120601654
1761486738686287000,5.250287109375,1.4356859922409058,-1.8374826908111572,0.3000875413417816
1761486738703128800,5.26712890625,1.546558141708374,-1.6937766075134277,-0.07208210229873657
1761486738719939000,5.28393896484375,1.5792393684387207,-1.1943942308425903,-0.6963863968849182
1761486738736783000,5.300783203125,1.4816536903381348,-0.5978843569755554,-1.3570371866226196
1761486738753606000,5.31760595703125,1.3235923051834106,-0.16523905098438263,-1.8677204847335815
1761486738770433000,5.33443310546875,1.1948524713516235,0.05803219974040985,-2.197587728500366
1761486738787256000,5.351256103515625,1.14873206615448,0.13805554807186127,-2.3606886863708496
1761486738804081200,5.3680810546875,1.1847730875015259,0.1469130963087082,-2.3464860916137695
1761486738820921900,5.384921875,1.2710578441619873,0.08277224004268646,-2.1736111640930176
1761486738837737500,5.401737548828125,1.3141238689422607,-0.032070424407720566,-1.8628336191177368
1761486738854564900,5.41856494140625,1.3202325105667114,-0.14844025671482086,-1.5042556524276733
1761486738871390000,5.435389892578125,1.2785409688949585,-0.17440202832221985,-1.1921035051345825
1761486738888213200,5.452213134765625,1.2324206829071045,-0.12217304855585098,-0.9718865752220154
1761486738905028400,5.4690283203125,1.187827467918396,-0.04657847434282303,-0.8219192028045654
1761486738921855200,5.485855224609375,1.1407908201217651,-0.0019853119738399982,-0.6921103000640869
1761486738938680600,5.5026806640625,1.0936014652252197,-0.006261368747800589,-0.5448917746543884
1761486738955507700,5.5195078125,1.0514518022537231,-0.01817324012517929,-0.41141775250434875
1761486738972332800,5.536332763671875,0.9975429177284241,-0.016340645030140877,-0.31001409888267517
1761486738989159700,5.55315966796875,0.927446186542511,-0.005650503560900688,-0.24908030033111572
1761486739005985000,5.569985107421875,0.8170322775840759,-0.009468411095440388,-0.22540926933288574
1761486739022812000,5.58681201171875,0.7026477456092834,-0.024892758578062057,-0.23609942197799683
1761486739039637500,5.603637451171875,0.6239988207817078,-0.04993823543190956,-0.26419922709465027
1761486739056481300,5.620481201171875,0.5633704662322998,-0.11362093687057495,-0.27061331272125244
1761486739073286700,5.63728662109375,0.4694499373435974,-0.13759739696979523,-0.23548854887485504
1761486739090130400,5.65413037109375,0.2912299931049347,-0.23884831368923187,-0.1973094791173935
1761486739106930200,5.67093017578125,0.13179416954517365,-0.37262779474258423,-0.2396118938922882
1761486739123782100,5.6877822265625,0.14508049190044403,-0.3793473243713379,-0.20433442294597626
1761486739140624400,5.704624267578125,0.18387043476104736,-0.3211624026298523,0.07880161702632904
1761486739157434400,5.721434326171875,0.04612032696604729,-0.28237244486808777,0.47601673007011414
1761486739174259500,5.738259521484375,-0.2721404731273651,-0.38209620118141174,0.7580837607383728
1761486739191086600,5.755086669921875,-0.5662720799446106,-0.543059229850769,0.8732318878173828
1761486739207916000,5.771916015625,-0.6911939978599548,-0.669355571269989,0.9598219990730286
1761486739224739300,5.7887392578125,-0.6663012504577637,-0.779464066028595,1.149037480354309
1761486739241544200,5.805544189453125,-0.6514877676963806,-0.788016140460968,1.429271936416626
1761486739258393900,5.822393798828125,-0.7032586336135864,-0.7307475209236145,1.7301230430603027
1761486739275217200,5.839217041015625,-0.765566885471344,-0.6911939978599548,1.9830212593078613
1761486739292043000,5.85604296875,-0.8324565887451172,-0.7063129544258118,2.1537580490112305
1761486739308868600,5.87286865234375,-0.9243918061256409,-0.7383833527565002,2.2844831943511963
1761486739325696000,5.889696044921875,-1.0054842233657837,-0.7512115240097046,2.403296709060669
1761486739342520600,5.9065205078125,-1.0923798084259033,-0.7177666425704956,2.5367705821990967
1761486739359330800,5.923330810546875,-1.2009611129760742,-0.6598871946334839,2.6725354194641113
1761486739376173000,5.940173095703125,-1.3235923051834106,-0.5931501388549805,2.772564649581909
1761486739392983000,5.956983154296875,-1.4468343257904053,-0.5493205785751343,2.8371636867523193
1761486739409811200,5.973811279296875,-1.5615242719650269,-0.5145012736320496,2.8379271030426025
1761486739426635300,5.99063525390625,-1.6520850658416748,-0.4308127164840698,2.755460500717163
1761486739443466800,6.007466796875,-1.6644550561904907,-0.3700316250324249,2.6279423236846924
1761486739460290800,6.024290771484375,-1.6329954862594604,-0.35552358627319336,2.4827091693878174
1761486739477115600,6.04111572265625,-1.5961909294128418,-0.3425426781177521,2.3539693355560303
1761486739493943000,6.057943115234375,-1.5433510541915894,-0.3543018400669098,2.1962132453918457
1761486739510767900,6.074767822265625,-1.4782938957214355,-0.3536909818649292,1.980577826499939
1761486739527595000,6.091594970703125,-1.36482572555542,-0.3449861407279968,1.7047722339630127
1761486739544437800,6.108437744140625,-1.2055425643920898,-0.28069257736206055,1.4104878902435303
1761486739561260800,6.1252607421875,-1.0290025472640991,-0.20265454053878784,1.1385000944137573
1761486739578086100,6.142086181640625,-0.8315402865409851,-0.13759739696979523,0.8775079250335693
1761486739594909700,6.15890966796875,-0.6171266436576843,-0.06688974797725677,0.5978843569755554
1761486739611730400,6.17573046875,-0.41890084743499756,0.08261952549219131,0.30024027824401855
1761486739628565200,6.192565185546875,-0.23151792585849762,0.32971450686454773,0.08078692853450775
1761486739645387800,6.2093876953125,-0.058184914290905,0.4531092941761017,0.01191187184303999
1761486739662217700,6.2262177734375,0.11163562536239624,0.4271475374698639,-0.09193521738052368
1761486739679044400,6.24304443359375,0.31261029839515686,0.43768495321273804,-0.3376557528972626
1761486739695848000,6.259847900390625,0.5949827432632446,0.5418374538421631,-0.6568328738212585
1761486739712694800,6.27669482421875,0.9162978529930115,0.6843217611312866,-0.8442157506942749
1761486739729521700,6.293521728515625,1.1501065492630005,0.6603453159332275,-0.7269296646118164
1761486739746347000,6.310346923828125,1.231351613998413,0.47250425815582275,-0.3727805018424988
1761486739763164400,6.327164306640625,1.2475395202636719,0.10583240538835526,0.026419922709465027
1761486739779999700,6.343999755859375,1.307709813117981,-0.30024027824401855,0.3165809214115143
1761486739796826000,6.360826171875,1.4547755718231201,-0.593913733959198,0.4360050559043884
1761486739813651500,6.3776513671875,1.6965254545211792,-0.6829473376274109,0.42989641427993774
1761486739830460000,6.3944599609375,1.9394971132278442,-0.5900958180427551,0.3985895812511444
1761486739847307000,6.41130712890625,2.079385280609131,-0.43768495321273804,0.39553526043891907
1761486739864112600,6.428112548828125,2.090991735458374,-0.2929098904132843,0.3920227587223053
1761486739880927000,6.444927001953125,2.0176877975463867,-0.16294831037521362,0.3727805018424988
1761486739897769200,6.461769287109375,1.916131615638733,-0.050854530185461044,0.2799290120601654
1761486739914594300,6.47859423828125,1.8212947845458984,0.056810468435287476,0.11301007121801376
1761486739931421400,6.49542138671875,1.7655532360076904,0.11850785464048386,-0.07528914511203766
1761486739948246500,6.51224658203125,1.707215666770935,0.1592831164598465,-0.22189679741859436
1761486739965073700,6.52907373046875,1.6313155889511108,0.17516560852527618,-0.27809640765190125
1761486739981895400,6.5458955078125,1.5238033533096313,0.15714508295059204,-0.27977627515792847
1761486739998712800,6.562712890625,1.3654365539550781,0.18509216606616974,-0.30604347586631775
1761486740015548000,6.5795478515625,1.1946996450424194,0.2528982162475586,-0.3530801236629486
1761486740032382500,6.596382568359375,1.0668761730194092,0.31642818450927734,-0.394008070230484
1761486740049212400,6.61321240234375,1.010523796081543,0.3781255781650543,-0.3859141170978546
1761486740066044200,6.630044189453125,0.9856310486793518,0.3929390609264374,-0.29886582493782043
1761486740082869000,6.646868896484375,0.8979719281196594,0.3591887652873993,-0.1469130963087082
1761486740099696000,6.663696044921875,0.7644978761672974,0.26374107599258423,-0.008857546374201775
1761486740116521200,6.680521240234375,0.6530149579048157,0.12507465481758118,0.08735372871160507
1761486740133348400,6.697348388671875,0.5658139586448669,0.032681290060281754,0.15531249344348907
1761486740150173400,6.71417333984375,0.5071708559989929,-0.027183502912521362,0.23075434565544128
1761486740167000600,6.73100048828125,0.44745880365371704,-0.11621711403131485,0.34406983852386475
1761486740183825400,6.747825439453125,0.3602577745914459,-0.31520646810531616,0.5287038683891296
1761486740200636200,6.76463623046875,0.20357084274291992,-0.5241223573684692,0.6928738951683044
1761486740217477600,6.7814775390625,-0.03451388701796532,-0.6959282159805298,0.6870706677436829
1761486740234303700,6.7983037109375,-0.25182920694351196,-0.6440047025680542,0.4411974251270294
1761486740251131600,6.815131591796875,-0.3672827184200287,-0.37048977613449097,0.18646661937236786
1761486740267957000,6.83195703125,-0.4619668424129486,-0.1518000066280365,0.09300423413515091
1761486740284782800,6.848782958984375,-0.622013509273529,-0.07284568250179291,0.1992947906255722
1761486740301609200,6.865609130859375,-0.8286387324333191,-0.1849394589662552,0.4366159439086914
1761486740318434000,6.88243408203125,-0.9772316813468933,-0.4040873646736145,0.6722571849822998
1761486740335262000,6.899261962890625,-0.9702067375183105,-0.6472117304801941,0.8208501935005188
1761486740352086300,6.916086181640625,-0.7701483368873596,-0.9414960741996765,0.9361509680747986
1761486740368879400,6.93287939453125,-0.4908302128314972,-1.207069754600525,1.0645854473114014
1761486740385725000,6.949724853515625,-0.25763240456581116,-1.3713924884796143,1.2429580688476562
1761486740402552300,6.96655224609375,-0.12736541032791138,-1.4998269081115723,1.5259413719177246
1761486740419377200,6.983377197265625,-0.1365283876657486,-1.6401731967926025,1.905135989189148
1761486740436193800,7.00019384765625,-0.22907446324825287,-1.7718145847320557,2.2996022701263428
1761486740453032700,7.01703271484375,-0.2970332205295563,-1.8350391387939453,2.6229026317596436
1761486740469856500,7.0338564453125,-0.3254384696483612,-1.7889188528060913,2.836552858352661
1761486740486688000,7.05068798828125,-0.36483925580978394,-1.6232216358184814,2.933680295944214
1761486740503508700,7.0675087890625,-0.43768495321273804,-1.4216361045837402,2.9249753952026367
1761486740520351000,7.08435107421875,-0.5079344511032104,-1.2327260971069336,2.836552858352661
1761486740537174500,7.101174560546875,-0.5355761051177979,-1.0900890827178955,2.6875016689300537
1761486740553965600,7.117965576171875,-0.531758189201355,-0.9804387092590332,2.4993550777435303
1761486740570826800,7.13482666015625,-0.5213735103607178,-0.888350784778595,2.311055898666382
1761486740587651600,7.151651611328125,-0.4918992519378662,-0.8078693151473999,2.1068742275238037
1761486740604462000,7.168462158203125,-0.44516804814338684,-0.7475463151931763,1.8585574626922607
1761486740621297700,7.185297607421875,-0.3816380500793457,-0.698677122592926,1.576032280921936
1761486740638137900,7.202137939453125,-0.30253100395202637,-0.6646214127540588,1.2768610715866089
1761486740654956800,7.218956787109375,-0.23609942197799683,-0.608727216720581,0.9731083512306213
1761486740671783200,7.235783203125,-0.1837177276611328,-0.5328271985054016,0.6569855809211731
1761486740688604400,7.2526044921875,-0.11194105446338654,-0.4300491213798523,0.36713001132011414
1761486740705440000,7.26943994140625,0.010079276748001575,-0.24892759323120117,0.1440114825963974
1761486740722260500,7.286260498046875,0.18860463798046112,-0.02015855349600315,-0.01878410577774048
1761486740739088000,7.303087890625,0.38179078698158264,0.17470745742321014,-0.10170906037092209
1761486740755909400,7.319909423828125,0.5516113042831421,0.28955012559890747,-0.1537853181362152
1761486740772743700,7.33674365234375,0.6998988389968872,0.3361285924911499,-0.2681698501110077
1761486740789565200,7.353565185546875,0.8524624705314636,0.4040873646736145,-0.40714168548583984
1761486740806358000,7.37035791015625,1.0435105562210083,0.5739079117774963,-0.5109887719154358
1761486740823217200,7.387217041015625,1.2457069158554077,1.0520626306533813,-0.5584835410118103
1761486740840044000,7.4040439453125,1.4436272382736206,1.4785993099212646,-0.3669773042201996
1761486740856865800,7.42086572265625,1.4957035779953003,1.443474531173706,0.13148874044418335
1761486740873682000,7.437681884765625,1.3228286504745483,1.043968677520752,0.8213083148002625
1761486740890508500,7.454508544921875,1.0415252447128296,0.5369505286216736,1.4700472354888916
1761486740907335200,7.471335205078125,0.8272642493247986,0.1059851199388504,1.901318073272705
1761486740924160000,7.488159912109375,0.7780895829200745,-0.15103642642498016,2.02120041847229
1761486740940987100,7.504987060546875,0.8868235945701599,-0.22357667982578278,1.8861991167068481
1761486740957812200,7.521812255859375,1.0306823253631592,-0.15851953625679016,1.6235270500183105
1761486740974639400,7.538639404296875,1.1310169696807861,-0.18020524084568024,1.3826935291290283
1761486740991464400,7.55546435546875,1.0888673067092896,-0.38667771220207214,1.2507466077804565
1761486741008307700,7.5723076171875,0.9005680680274963,-0.7014260292053223,1.1867583990097046
1761486741025131500,7.589131591796875,0.5681046843528748,-1.0317513942718506,1.1484266519546509
1761486741041943300,7.605943359375,0.22647829353809357,-1.2495248317718506,1.1042916774749756
1761486741058786800,7.622786865234375,-0.01114829070866108,-1.3622294664382935,1.0193814039230347
1761486741075604200,7.639604248046875,-0.19685132801532745,-1.260062336921692,0.8097018599510193
1761486741092439800,7.656439697265625,-0.45295658707618713,-0.8891143798828125,0.5681046843528748
1761486741109249300,7.673249267578125,-0.7522805333137512,-0.6044511795043945,0.4749477207660675
1761486741126083000,7.6900830078125,-0.9706648588180542,-0.5180137157440186,0.5845980644226074
1761486741142913800,7.706913818359375,-1.1418598890304565,-0.5572618246078491,0.851393461227417
1761486741159743000,7.723742919921875,-1.3578007221221924,-0.6291912198066711,1.1117748022079468
1761486741176566300,7.740566162109375,-1.5644259452819824,-0.5838344693183899,1.2912163734436035
1761486741193391400,7.757391357421875,-1.6838500499725342,-0.28878653049468994,1.4246904850006104
1761486741210214700,7.774214599609375,-1.7075210809707642,0.36163222789764404,1.5483906269073486
1761486741227047400,7.79104736328125,-1.6250542402267456,1.2539535760879517,1.581377387046814
1761486741243855600,7.807855712890625,-1.4592043161392212,1.831526756286621,1.5210545063018799
1761486741260691700,7.824691650390625,-1.3124439716339111,2.495689868927002,1.5454890727996826
1761486741277520600,7.841520751953125,-1.086118459701538,3.1780264377593994,1.6333009004592896
1761486741294353700,7.858353759765625,-0.794277548789978,3.8209621906280518,1.8664987087249756
1761486741311158000,7.875157958984375,-0.42531493306159973,4.4066290855407715,2.193769693374634
1761486741328000300,7.892000244140625,-0.02871066704392433,4.983285903930664,2.4381158351898193
1761486741344827100,7.9088271484375,0.24465152621269226,5.154328346252441,2.44254469871521
1761486741361630200,7.925630126953125,0.4983133375644684,5.5289411544799805,2.453234910964966
1761486741378465500,7.942465576171875,0.5852088928222656,5.177541255950928,2.1423044204711914
1761486741395289900,7.959289794921875,0.5810855627059937,4.536896228790283,1.7411186695098877
1761486741412118300,7.9761181640625,0.6604980230331421,3.9480221271514893,1.422247052192688
1761486741428942600,7.992942626953125,0.7293730974197388,3.576005220413208,1.296714186668396
1761486741445759200,8.00975927734375,0.6730207800865173,3.3264667987823486,1.3984233140945435
1761486741462593000,8.026593017578126,0.8084801435470581,3.0382909774780273,1.5815300941467285
1761486741479424000,8.043424072265625,0.9375254511833191,2.5079071521759033,1.5667166709899902
1761486741496264200,8.06026416015625,0.9795224070549011,1.8058704137802124,1.3840678930282593
1761486741513087700,8.077087646484374,0.8914051055908203,1.171028733253479,1.0554224252700806
1761486741529905700,8.09390576171875,0.7134906053543091,0.9541715383529663,0.6806566119194031
1761486741546747600,8.11074755859375,0.4960225820541382,1.0070114135742188,0.3361285924911499
1761486741563561000,8.12756103515625,0.25824329257011414,1.1809552907943726,0.1316414624452591
1761486741580379600,8.144379638671875,0.0064140851609408855,1.2450960874557495,0.07284568250179291
1761486741597217300,8.16121728515625,-0.08704829961061478,1.0326677560806274,0.08048149943351746
1761486741614044200,8.178044189453125,-0.09789115190505981,0.6991352438926697,0.010537425056099892
1761486741630865700,8.19486572265625,-0.126143679022789,0.33078351616859436,-0.16401731967926025
1761486741647700500,8.211700439453125,-0.20861047506332397,0.23167064785957336,-0.3274237811565399
1761486741664521500,8.228521484375,-0.26022860407829285,0.3326161205768585,-0.44852781295776367
1761486741681348900,8.245348876953125,-0.2197587788105011,0.4867068827152252,-0.5059491395950317
1761486741698174000,8.262174072265625,-0.06398813426494598,0.699288010597229,-0.46990808844566345
1761486741714987300,8.2789873046875,0.16630806028842926,0.836885392665863,-0.3269656300544739
1761486741731805400,8.295805419921875,0.46547931432724,0.8029823899269104,-0.17608191072940826
1761486741748657200,8.3126572265625,0.5684100985527039,0.7725918292999268,-0.1411098688840866
1761486741765463300,8.32946337890625,0.48945578932762146,0.6368269920349121,-0.21212296187877655
1761486741782301700,8.3463017578125,0.48655417561531067,0.4314235746860504,-0.31520646810531616
1761486741799132700,8.363132568359376,0.5123631954193115,0.1547016203403473,-0.4138612151145935
1761486741815959000,8.379958984375,0.5016731023788452,-0.08338310569524765,-0.45463645458221436
1761486741832766000,8.396765869140625,0.513737678527832,-0.18616119027137756,-0.39217549562454224
1761486741849584000,8.413584228515624,0.4944954216480255,-0.773202657699585,-0.40194934606552124
1761486741866420500,8.43042041015625,0.4554000496864319,-0.6989825367927551,-0.6751587986946106
1761486741883248000,8.447248046875,0.33719760179519653,-0.04993823543190956,-0.8095491528511047
