time,seconds_elapsed,z,y,x
1761488119688027600,0.141027587890625,0.2583959996700287,0.19593502581119537,0.21334469318389893
1761488119704854300,0.157854248046875,0.31001409888267517,0.096211276948452,0.17012597620487213
1761488119721707000,0.17470703125,0.29764407873153687,-0.13469578325748444,0.17073683440685272
1761488119738551800,0.1915517578125,0.14217889308929443,-0.45555275678634644,0.13729196786880493
1761488119755349500,0.208349609375,0.023976460099220276,-0.584139883518219,0.1667662113904953
1761488119772172800,0.2251728515625,0.13820825517177582,-0.3312416672706604,0.30741792917251587
1761488119788980000,0.24197998046875,0.28130343556404114,0.07467827945947647,0.5520694851875305
1761488119805819400,0.2588193359375,0.2577851414680481,0.26969701051712036,0.7504479289054871
1761488119822643500,0.2756435546875,0.03222314268350601,0.15164729952812195,0.7898487448692322
1761488119839448800,0.29244873046875,-0.22342395782470703,-0.15317445993423462,0.6928738951683044
1761488119856277200,0.30927734375,-0.36102136969566345,-0.23182335495948792,0.6020076870918274
1761488119873099300,0.326099365234375,-0.2837468981742859,-0.1310305893421173,0.49846604466438293
1761488119889923800,0.342923828125,-0.058948494493961334,0.01725694350898266,0.42898011207580566
1761488119906746400,0.359746337890625,0.12171489745378494,0.10751228034496307,0.43050727248191833
1761488119923559200,0.37655908203125,0.16600263118743896,0.024892758578062057,0.4714352488517761
1761488119940406000,0.393406005859375,0.10583240538835526,-0.13301590085029602,0.4764748811721802
1761488119957226200,0.410226318359375,0.032681290060281754,-0.24266621470451355,0.4153883755207062
1761488119974056200,0.42705615234375,0.06261368840932846,-0.194713294506073,0.2893974184989929
1761488119990880500,0.443880615234375,0.18051068484783173,-0.06169738993048668,0.15653422474861145
1761488120007699000,0.460698974609375,0.3191770911216736,0.013744467869400978,0.041691552847623825
1761488120024525300,0.477525390625,0.4424191415309906,-0.05497787147760391,-0.012980886735022068
1761488120041347300,0.494347412109375,0.5010622143745422,-0.1586722433567047,0.05406157299876213
1761488120058164200,0.511164306640625,0.49128836393356323,-0.11468994617462158,0.18936823308467865
1761488120074994400,0.527994384765625,0.45463645458221436,-0.03436116874217987,0.3225368559360504
1761488120091819000,0.544819091796875,0.4050036668777466,0.042760565876960754,0.44104471802711487
1761488120108625400,0.56162548828125,0.37568211555480957,0.050243668258190155,0.5265658497810364
1761488120125465600,0.578465576171875,0.4043927788734436,-0.003512475173920393,0.5766568183898926
1761488120142289400,0.595289306640625,0.4992296099662781,-0.10415252298116684,0.6123924255371094
1761488120159113500,0.612113525390625,0.6108652353286743,-0.1420261710882187,0.6666067242622375
1761488120175931100,0.62893115234375,0.6823364496231079,-0.15913039445877075,0.7273877859115601
1761488120192747500,0.64574755859375,0.6766859889030457,-0.16691893339157104,0.7762570381164551
1761488120209568800,0.66256884765625,0.6359107494354248,-0.25182920694351196,0.7828238010406494
1761488120226393600,0.6793935546875,0.5763513445854187,-0.2945897579193115,0.7487680912017822
1761488120243202800,0.696202880859375,0.48426342010498047,-0.3107776939868927,0.6435465216636658
1761488120260040400,0.71304052734375,0.36651915311813354,-0.5222898125648499,0.33826664090156555
1761488120276863000,0.729863037109375,0.3553708493709564,-0.4743368625640869,0.004734205547720194
1761488120293692200,0.746692138671875,0.4763221740722656,-0.1108720451593399,-0.20891591906547546
1761488120310528500,0.763528564453125,0.5809328556060791,0.164170041680336,-0.24602597951889038
1761488120327338800,0.7803388671875,0.4918992519378662,0.28588494658470154,-0.0910189226269722
1761488120344156400,0.797156494140625,0.25763240456581116,0.3101668357849121,0.18325957655906677
1761488120360981500,0.8139814453125,0.09422596544027328,0.17608191072940826,0.43249258399009705
1761488120377803500,0.830803466796875,0.15302173793315887,-0.06505715101957321,0.5769622325897217
1761488120394628000,0.847628173828125,0.39965859055519104,-0.22281309962272644,0.6265950202941895
1761488120411450600,0.86445068359375,0.7225008606910706,-0.2874121069908142,0.650418758392334
1761488120428278000,0.881278076171875,0.9772316813468933,-0.3315471112728119,0.7284567952156067
1761488120445111800,0.89811181640625,1.0491610765457153,-0.3761402666568756,0.8527678847312927
1761488120461901800,0.91490185546875,0.9503536224365234,-0.3933972120285034,0.9421069025993347
1761488120478753300,0.931753173828125,0.7550294399261475,-0.33719760179519653,0.9847147464752197
1761488120495589000,0.948589111328125,0.5795583724975586,-0.20693060755729675,0.9847147464752197
1761488120512373500,0.96537353515625,0.5290092825889587,-0.02275473065674305,0.9480628371238708
1761488120529226000,0.98222607421875,0.5861251950263977,0.10308351367712021,0.9060658812522888
1761488120546039600,0.99903955078125,0.6856962442398071,0.12965615093708038,0.9054549932479858
1761488120562861600,1.015861572265625,0.7673994898796082,0.035124752670526505,0.9654725193977356
1761488120579699500,1.032699462890625,0.7915286421775818,-0.10583240538835526,1.0529789924621582
1761488120596523300,1.049523193359375,0.7864890098571777,-0.22052235901355743,1.1021536588668823
1761488120613321500,1.066321533203125,0.7588473558425903,-0.24984388053417206,1.0506882667541504
1761488120630178600,1.083178466796875,0.7423539757728577,-0.4092797040939331,0.8978192210197449
1761488120646993400,1.099993408203125,0.7081455588340759,-0.41493022441864014,0.7577783465385437
1761488120663824100,1.11682421875,0.6065891981124878,-0.31261029839515686,0.6148358583450317
1761488120680622800,1.133622802734375,0.5190827250480652,-0.28527405858039856,0.4648684561252594
1761488120697450800,1.15045068359375,0.5103778839111328,-0.2958115041255951,0.35063666105270386
1761488120714273000,1.16727294921875,0.5050328373908997,-0.29535335302352905,0.2874121069908142
1761488120731097900,1.184097900390625,0.4294382631778717,-0.3251330256462097,0.2249511331319809
1761488120747911700,1.20091162109375,0.2874121069908142,-0.27718010544776917,0.12492194026708603
1761488120764744700,1.21774462890625,0.14523321390151978,-0.13790282607078552,0.012217304669320583
1761488120781580800,1.234580810546875,0.044287730008363724,-0.08827003091573715,-0.09712757170200348
1761488120798403000,1.251403076171875,-0.04505131021142006,-0.28680121898651123,-0.3271183371543884
1761488120815228200,1.268228271484375,-0.09834930300712585,-0.15073099732398987,-0.6346889734268188
1761488120832032500,1.285032470703125,0.01710422709584236,0.2971859276294708,-0.7426594495773315
1761488120848864300,1.3018642578125,0.2272418737411499,0.616973876953125,-0.566119372844696
1761488120865672200,1.318672119140625,0.2952006161212921,0.8387179970741272,-0.20005837082862854
1761488120882495000,1.335494873046875,0.10247264802455902,0.755182147026062,0.11575896292924881
1761488120899331800,1.352331787109375,-0.23197607696056366,0.31031954288482666,0.2145664244890213
1761488120916155100,1.369155029296875,-0.4437935948371887,-0.06185010448098183,0.14156801998615265
1761488120932999000,1.3859990234375,-0.35262197256088257,-0.23350323736667633,-0.03497203439474106
1761488120949799200,1.402799072265625,-0.0685696229338646,-0.06322455406188965,-0.1966986060142517
1761488120966639900,1.419639892578125,0.18829920887947083,0.3448334336280823,-0.20693060755729675
1761488120983462400,1.43646240234375,0.2649627923965454,0.4024074673652649,-0.08964447677135468
1761488121000278800,1.45327880859375,0.14828753471374512,0.2174680233001709,0.08750644326210022
1761488121017112800,1.47011279296875,-0.09254608303308487,-0.03436116874217987,0.17318029701709747
1761488121033933800,1.486933837890625,-0.26542094349861145,-0.09758572280406952,0.12446379661560059
1761488121050740200,1.503740234375,-0.24526239931583405,-0.04749477282166481,-0.021838432177901268
1761488121067581200,1.520581298828125,-0.08720101416110992,0.06750060617923737,-0.1359175145626068
1761488121084403000,1.53740283203125,0.050243668258190155,0.096211276948452,-0.15546520054340363
1761488121101211100,1.554211181640625,0.04993823543190956,0.022602014243602753,-0.04963280260562897
1761488121118050000,1.571050048828125,-0.10781771689653397,-0.032681290060281754,0.08536841720342636
1761488121134875000,1.587875,-0.2909245789051056,0.00427605677396059,0.15164729952812195
1761488121151675000,1.6046748046875,-0.34773504734039307,0.04214970022439957,0.14294247329235077
1761488121168501800,1.621501708984375,-0.27290403842926025,0.07864890247583389,0.09437867999076843
1761488121185333800,1.638333740234375,-0.13744467496871948,0.13072516024112701,0.03039054572582245
1761488121202155000,1.655155029296875,0.004123340360820293,0.14538592100143433,-0.03420845419168472
1761488121218977300,1.671977294921875,0.1319468915462494,0.12889257073402405,-0.035582900047302246
1761488121235802000,1.688802001953125,0.22311852872371674,0.04382958263158798,0.0025961773935705423
1761488121252619800,1.705619873046875,0.2515237629413605,-0.015882495790719986,0.07819075137376785
1761488121269476400,1.722476318359375,0.23976461589336395,-0.05910121276974678,0.16050484776496887
1761488121286285000,1.73928515625,0.21334469318389893,-0.08307767659425735,0.18768835067749023
1761488121303093000,1.756093017578125,0.1963931769132614,-0.06872233748435974,0.19013181328773499
1761488121319915000,1.7729150390625,0.15790866315364838,-0.12171489745378494,0.16829337179660797
1761488121336743000,1.789742919921875,0.07498370856046677,-0.35521814227104187,-0.01970040425658226
1761488121353565200,1.806565185546875,0.05467243865132332,-0.4492913782596588,-0.28695395588874817
1761488121370392600,1.823392578125,0.2002110779285431,-0.17547103762626648,-0.30802878737449646
1761488121387209700,1.840209716796875,0.26710084080696106,0.09575312584638596,-0.197004035115242
1761488121404039400,1.857039306640625,0.04963280260562897,0.2431243658065796,-0.08277224004268646
1761488121420876500,1.87387646484375,-0.2617557644844055,0.18936823308467865,-0.00809396430850029
1761488121437697300,1.890697265625,-0.3880521357059479,-0.02321287989616394,0.01878410577774048
1761488121454520000,1.90752001953125,-0.2811507284641266,-0.18127426505088806,0.04138612002134323
1761488121471342800,1.9243427734375,-0.055741455405950546,-0.3171917796134949,0.07254024595022202
1761488121488173300,1.94117333984375,0.1944078654050827,-0.4043927788734436,0.19165897369384766
1761488121504989400,1.957989501953125,0.3839288055896759,-0.446389764547348,0.3764457106590271
1761488121521797400,1.97479736328125,0.4046982228755951,-0.43188172578811646,0.5215262174606323
1761488121538637300,1.99163720703125,0.27458393573760986,-0.4560109078884125,0.5468770861625671
1761488121555460900,2.0084609375,0.10690141469240189,-0.43249258399009705,0.47250425815582275
1761488121572285000,2.025284912109375,-0.004123340360820293,-0.32299500703811646,0.3355177342891693
1761488121589104000,2.042104248046875,-0.009773843921720982,-0.1540907621383667,0.2197587788105011
1761488121605932000,2.05893212890625,0.06765332818031311,-0.018936822190880775,0.22907446324825287
1761488121622755600,2.075755615234375,0.1647808998823166,0.08674286305904388,0.3404046595096588
1761488121639578400,2.092578369140625,0.2093740701675415,0.04184427112340927,0.46211954951286316
1761488121656375300,2.109375244140625,0.17821992933750153,-0.16661348938941956,0.5316054821014404
1761488121673212200,2.126212158203125,0.1336267739534378,-0.3442225754261017,0.5329799056053162
1761488121690035000,2.143034912109375,0.12492194026708603,-0.3367394804954529,0.45875978469848633
1761488121706859000,2.15985888671875,0.16569720208644867,-0.13469578325748444,0.33658674359321594
1761488121723687700,2.176687744140625,0.23136521875858307,-0.01618792861700058,0.2321287989616394
1761488121740503300,2.19350341796875,0.2617557644844055,-0.08170322328805923,0.2292271852493286
1761488121757344800,2.2103447265625,0.23655757308006287,-0.34345898032188416,0.3020728528499603
1761488121774154200,2.227154296875,0.1843285858631134,-0.6010913848876953,0.36010506749153137
1761488121790986000,2.243986083984375,0.12980885803699493,-0.7878634333610535,0.3150537610054016
1761488121807800600,2.260800537109375,0.07773260027170181,-0.7843509912490845,0.13439035415649414
1761488121824622300,2.277622314453125,0.04993823543190956,-0.5994115471839905,-0.15500704944133759
1761488121841444600,2.294444580078125,0.0858265683054924,-0.25854870676994324,-0.42898011207580566
1761488121858255000,2.311255126953125,0.12003502249717712,-0.07971791177988052,-0.5949827432632446
1761488121875090000,2.32808984375,0.04398229718208313,-0.3016147017478943,-0.7179193496704102
1761488121891920400,2.34492041015625,-0.02886338345706463,-0.46211954951286316,-0.8481863737106323
1761488121908758000,2.361758056640625,0.06734789162874222,-0.27519479393959045,-0.8388707041740417
1761488121925577000,2.378576904296875,0.18005253374576569,0.02932153269648552,-0.656680166721344
1761488121942385000,2.395385009765625,0.1414152979850769,0.24113905429840088,-0.39477166533470154
1761488121959219700,2.4122197265625,-0.05543602257966995,0.15363261103630066,-0.22372940182685852
1761488121976052500,2.429052490234375,-0.25824329257011414,-0.13255776464939117,-0.19898934662342072
1761488121992878600,2.445878662109375,-0.31520646810531616,-0.39797869324684143,-0.19853121042251587
1761488122009692000,2.46269189453125,-0.22327125072479248,-0.4583016633987427,-0.12858712673187256
1761488122026521900,2.47952197265625,-0.04489859566092491,-0.3338378667831421,0.0007635815418325365
1761488122043336200,2.496336181640625,0.08735372871160507,-0.12079860270023346,0.12263119965791702
1761488122060164400,2.513164306640625,0.058795779943466187,-0.010231993161141872,0.18829920887947083
1761488122076990000,2.529989990234375,-0.07788532227277756,0.020311269909143448,0.12049316614866257
1761488122093794800,2.546794921875,-0.22250767052173615,0.05100724846124649,-0.08567385375499725
1761488122110636300,2.56363623046875,-0.27000242471694946,0.11988230794668198,-0.2782491147518158
1761488122127473200,2.58047314453125,-0.21181751787662506,0.16844609379768372,-0.3010038435459137
1761488122144252700,2.597252685546875,-0.14614951610565186,0.14233160018920898,-0.1443169116973877
1761488122161089300,2.61408935546875,-0.08994990587234497,0.05971207842230797,0.07437284290790558
1761488122177919200,2.630919189453125,-0.0630718395113945,-0.04337143152952194,0.21212296187877655
1761488122194739000,2.647739013671875,-0.08506298810243607,-0.08674286305904388,0.22189679741859436
1761488122211563300,2.664563232421875,-0.1336267739534378,-0.028099801391363144,0.14874568581581116
1761488122228383700,2.6813837890625,-0.1488984078168869,0.10323622822761536,0.07147123664617538
1761488122245213000,2.698212890625,-0.12767083942890167,0.2119702398777008,0.05360342562198639
1761488122262043000,2.71504296875,-0.07910704612731934,0.23655757308006287,0.11560624837875366
1761488122278857700,2.731857666015625,-0.014813481830060482,0.1440114825963974,0.2356412708759308
1761488122295690200,2.748690185546875,0.04856378585100174,-0.03130684420466423,0.38728857040405273
1761488122312504300,2.76550439453125,0.11743884533643723,-0.26419922709465027,0.5279402732849121
1761488122329326600,2.78232666015625,0.1774563491344452,-0.43020185828208923,0.6039929986000061
1761488122346140200,2.79914013671875,0.21624629199504852,-0.45066583156585693,0.6003278493881226
1761488122362963000,2.815962890625,0.18768835067749023,-0.35659259557724,0.5346598029136658
1761488122379800300,2.83280029296875,0.036193765699863434,-0.21288654208183289,0.4021020531654358
1761488122396624400,2.849624267578125,-0.1765400618314743,-0.25045475363731384,0.12736541032791138
1761488122413458700,2.866458740234375,-0.19792033731937408,-0.14095716178417206,-0.12370020896196365
1761488122430281700,2.88328173828125,-0.0074830991216003895,0.05268712714314461,-0.14874568581581116
1761488122447106000,2.90010595703125,0.10537425428628922,0.1667662113904953,-0.02168571576476097
1761488122463928600,2.916928466796875,0.07406741380691528,0.1992947906255722,0.12553280591964722
1761488122480736800,2.93373681640625,0.02382374368607998,0.12980885803699493,0.2154827117919922
1761488122497576200,2.950576171875,0.008399397134780884,0.009010262787342072,0.22861631214618683
1761488122514395600,2.967395751953125,0.09834930300712585,-0.050243668258190155,0.256868839263916
1761488122531225600,2.9842255859375,0.30314189195632935,-0.11560624837875366,0.3706424832344055
1761488122548047400,3.00104736328125,0.5109887719154358,-0.23121249675750732,0.5787948369979858
1761488122564869400,3.017869384765625,0.6352998614311218,-0.3649919927120209,0.8280278444290161
1761488122581693400,3.034693359375,0.6476698517799377,-0.4392121136188507,1.0245736837387085
1761488122598516500,3.0515166015625,0.5229006409645081,-0.4456261992454529,1.1099421977996826
1761488122615341000,3.068341064453125,0.28527405858039856,-0.3628539443016052,1.0204503536224365
1761488122632142800,3.085142822265625,0.06551529467105865,-0.1618792861700058,0.8315402865409851
1761488122648964000,3.101964111328125,-0.044287730008363724,0.0809396430850029,0.6488916277885437
1761488122665783300,3.118783203125,-0.061391957104206085,0.22143864631652832,0.5977316498756409
1761488122682627600,3.135627685546875,-0.044135015457868576,0.19914206862449646,0.6950119137763977
1761488122699439400,3.152439453125,-0.012064588256180286,0.027488935738801956,0.8671231865882874
1761488122716267500,3.169267578125,0.02015855349600315,-0.1212567538022995,1.0396926403045654
1761488122733107000,3.18610693359375,0.02779436856508255,-0.21441370248794556,1.1232284307479858
1761488122749911800,3.202911865234375,0.016035212203860283,-0.27382034063339233,1.0696250200271606
1761488122766734000,3.219734130859375,0.021074850112199783,-0.24159720540046692,0.9298896193504333
1761488122783571200,3.2365712890625,0.03298672288656235,-0.15271630883216858,0.769079327583313
1761488122800384500,3.253384521484375,0.010537425056099892,-0.12736541032791138,0.6400340795516968
1761488122817208600,3.27020849609375,-0.02886338345706463,-0.15622878074645996,0.5729916095733643
1761488122834030800,3.28703076171875,-0.05925392732024193,-0.23228150606155396,0.5096143484115601
1761488122850847000,3.303846923828125,-0.05253441259264946,-0.2785545587539673,0.41661009192466736
1761488122867676000,3.320676025390625,0.003817907767370343,-0.24846944212913513,0.29856038093566895
1761488122884504300,3.33750439453125,0.0633772686123848,-0.16859880089759827,0.17867808043956757
1761488122901321200,3.3543212890625,0.09224065393209457,-0.08750644326210022,0.08078692853450775
1761488122918144500,3.37114453125,0.11621711403131485,-0.03436116874217987,0.026419922709465027
1761488122934973400,3.387973388671875,0.13408492505550385,-0.0377209298312664,0.044745877385139465
1761488122951785200,3.40478515625,0.13240504264831543,-0.2900082767009735,0.0027488935738801956
1761488122968619000,3.421618896484375,0.21090123057365417,-0.3358231782913208,-0.07452555745840073
1761488122985443000,3.438443115234375,0.39156460762023926,-0.126143679022789,-0.021074850112199783
1761488123002265600,3.455265625,0.4360050559043884,0.10781771689653397,0.12217304855585098
1761488123019090200,3.472090087890625,0.28955012559890747,0.11972958594560623,0.2154827117919922
1761488123035909600,3.48890966796875,0.11499538272619247,-0.07956519722938538,0.17211128771305084
1761488123052756700,3.5057568359375,0.14737124741077423,-0.19593502581119537,0.0913243517279625
1761488123069569500,3.522569580078125,0.3315471112728119,-0.2321287989616394,0.08277224004268646
1761488123086402000,3.539402099609375,0.5129740834236145,-0.15286903083324432,0.17821992933750153
1761488123103218700,3.55621875,0.6247624158859253,-0.0835358202457428,0.313373863697052
1761488123120028000,3.57302783203125,0.669355571269989,-0.09514226019382477,0.4586070775985718
1761488123136846600,3.5898466796875,0.6885978579521179,-0.16691893339157104,0.5584835410118103
1761488123153677800,3.606677734375,0.6892086863517761,-0.21273382008075714,0.5676465034484863
1761488123170500400,3.623500244140625,0.711963415145874,-0.19883663952350616,0.5297728776931763
1761488123187311600,3.6403115234375,0.7918340563774109,-0.14874568581581116,0.5369505286216736
1761488123204143900,3.657143798828125,0.8907942175865173,-0.1843285858631134,0.6359107494354248
1761488123220992300,3.6739921875,0.9607383012771606,-0.2643519341945648,0.8002334833145142
1761488123237808400,3.690808349609375,0.9703594446182251,-0.36102136969566345,0.9237809777259827
1761488123254632400,3.707632568359375,0.9308059215545654,-0.4129449129104614,0.9468411207199097
1761488123271455200,3.724455322265625,0.878576934337616,-0.40194934606552124,0.8865181803703308
1761488123288263000,3.741262939453125,0.8156577944755554,-0.32009339332580566,0.8043568134307861
1761488123305088300,3.758088134765625,0.7525860071182251,-0.2025018334388733,0.770301103591919
1761488123321912600,3.77491259765625,0.683863639831543,-0.13545936346054077,0.7903069257736206
1761488123338735000,3.791735107421875,0.6075055003166199,-0.15424346923828125,0.836885392665863
1761488123355560000,3.808559814453125,0.5326744914054871,-0.24862214922904968,0.8712465763092041
1761488123372382000,3.8253818359375,0.46334129571914673,-0.3703370690345764,0.8521569967269897
1761488123389223700,3.8422236328125,0.4505131244659424,-0.4262312352657318,0.7944302558898926
1761488123406032600,3.85903271484375,0.502436637878418,-0.384845107793808,0.7826710939407349
1761488123422852600,3.8758525390625,0.5690209865570068,-0.3006984293460846,0.8329147696495056
1761488123439687700,3.892687744140625,0.561079740524292,-0.2816088795661926,0.889267086982727
1761488123456513800,3.909513671875,0.46502116322517395,-0.33796119689941406,0.8741481900215149
1761488123473336300,3.92633642578125,0.3436116874217987,-0.5187773108482361,0.6688974499702454
1761488123490161700,3.94316162109375,0.33078351616859436,-0.4697553813457489,0.40164390206336975
1761488123506983700,3.959983642578125,0.4389066696166992,-0.21578814089298248,0.2765692472457886
1761488123523794000,3.9767939453125,0.49266281723976135,0.06719517707824707,0.3550654351711273
1761488123540609800,3.99360986328125,0.42989641427993774,0.17241671681404114,0.5531384944915771
1761488123557459200,4.010459228515625,0.30054569244384766,0.03237585723400116,0.7286095023155212
1761488123574273000,4.02727294921875,0.23487769067287445,-0.16584990918636322,0.8402451276779175
1761488123591106000,4.04410595703125,0.3199406862258911,-0.2626720666885376,0.9291260242462158
1761488123607907600,4.060907470703125,0.46043968200683594,-0.3217732608318329,0.9949467778205872
1761488123624732200,4.077732177734375,0.6163630485534668,-0.33689218759536743,1.0538952350616455
1761488123641560300,4.094560302734375,0.7718282341957092,-0.3827070891857147,1.1424707174301147
1761488123658378800,4.111378662109375,0.8381071090698242,-0.4712825417518616,1.2580770254135132
1761488123675207700,4.128207763671875,0.7875580191612244,-0.531147301197052,1.3350459337234497
1761488123692018000,4.145017822265625,0.6588181853294373,-0.4911356568336487,1.3012956380844116
1761488123708865000,4.161864990234375,0.5306891798973083,-0.34758231043815613,1.1835514307022095
1761488123725682000,4.178681884765625,0.46364670991897583,-0.13836097717285156,1.0974193811416626
1761488123742512400,4.195512451171875,0.43157628178596497,0.013591751456260681,1.0914634466171265
1761488123759336700,4.212336669921875,0.43768495321273804,0.04749477282166481,1.1985175609588623
1761488123776133600,4.229133544921875,0.4674646258354187,-0.07849618047475815,1.3807082176208496
1761488123792970000,4.245969970703125,0.4905247986316681,-0.2632829248905182,1.5925257205963135
1761488123809792300,4.262792236328125,0.48640143871307373,-0.3874412775039673,1.7719674110412598
1761488123826616800,4.279616943359375,0.4509712755680084,-0.4056145250797272,1.8471038341522217
1761488123843442200,4.296442138671875,0.3901901841163635,-0.40653082728385925,1.7704402208328247
1761488123860260900,4.3132607421875,0.34605515003204346,-0.4112650156021118,1.6088663339614868
1761488123877103000,4.33010302734375,0.3243694305419922,-0.3715587854385376,1.4370604753494263
1761488123893932300,4.346932373046875,0.2811507284641266,-0.3439171314239502,1.289536476135254
1761488123910751000,4.3637509765625,0.21410827338695526,-0.35903605818748474,1.1661417484283447
1761488123927571200,4.3805712890625,0.15302173793315887,-0.4205807149410248,1.0180069208145142
1761488123944390000,4.397389892578125,0.11881329119205475,-0.48288896679878235,0.8275696635246277
1761488123961206500,4.41420654296875,0.10308351367712021,-0.46410486102104187,0.6375905871391296
1761488123978040300,4.431040283203125,0.08888089656829834,-0.3543018400669098,0.4691445231437683
1761488123994866200,4.4478662109375,0.09239336848258972,-0.23976461589336395,0.3533855378627777
1761488124011687000,4.46468701171875,0.09376781433820724,-0.39996400475502014,0.19074267148971558
1761488124028512500,4.481512451171875,0.08628471940755844,-0.5114469528198242,-0.05115996301174164
1761488124045301800,4.4983017578125,0.18845193088054657,-0.25824329257011414,-0.18631389737129211
1761488124062156800,4.51515673828125,0.2952006161212921,0.17088955640792847,-0.1359175145626068
1761488124078981400,4.5319814453125,0.2718350291252136,0.48976120352745056,0.044287730008363724
1761488124095789300,4.548789306640625,0.05864306539297104,0.3543018400669098,0.15913039445877075
1761488124112614700,4.56561474609375,-0.09422596544027328,0.012522737495601177,0.21991148591041565
1761488124129426400,4.582426513671875,0.016340645030140877,-0.14935655891895294,0.342695415019989
1761488124146261800,4.59926171875,0.26679539680480957,-0.1160643994808197,0.537408709526062
1761488124163086000,4.616086181640625,0.5012149214744568,0.06475171446800232,0.7596109509468079
1761488124179908600,4.63290869140625,0.626747727394104,0.13790282607078552,0.9071348905563354
1761488124196750300,4.649750244140625,0.6905831694602966,0.11209376901388168,0.9472993016242981
1761488124213545500,4.66654541015625,0.7200574278831482,0.01771509274840355,0.9068294763565063
1761488124230389500,4.683389404296875,0.7625125646591187,-0.10720685124397278,0.8655960559844971
1761488124247206100,4.7002060546875,0.8753699064254761,-0.1950187236070633,0.9013316631317139
1761488124264026600,4.717026611328125,1.0186177492141724,-0.24404066801071167,1.0380127429962158
1761488124280849200,4.73384912109375,1.144914150238037,-0.32009339332580566,1.2290608882904053
1761488124297674000,4.750674072265625,1.1789699792861938,-0.42898011207580566,1.3845261335372925
1761488124314496300,4.767496337890625,1.1117748022079468,-0.49525898694992065,1.3895657062530518
1761488124331303200,4.78430322265625,0.987463653087616,-0.49586987495422363,1.2473868131637573
1761488124348146400,4.801146484375,0.8382598161697388,-0.43188172578811646,1.0406090021133423
1761488124364951600,4.81795166015625,0.7255551815032959,-0.3217732608318329,0.8950703144073486
1761488124381804300,4.83480419921875,0.6794348955154419,-0.2226603776216507,0.9158397316932678
1761488124398624800,4.851624755859375,0.6722571849822998,-0.2545780837535858,1.1093312501907349
1761488124415456000,4.8684560546875,0.6777549982070923,-0.4156937897205353,1.3535246849060059
1761488124432268300,4.885268310546875,0.6812674403190613,-0.5914703011512756,1.4982997179031372
1761488124449096000,4.902095947265625,0.6737843751907349,-0.6717990636825562,1.5012013912200928
1761488124465909000,4.918908935546875,0.6777549982070923,-0.6094908118247986,1.430493712425232
1761488124482749700,4.935749755859375,0.7371616363525391,-0.5027421116828918,1.3501648902893066
1761488124499569700,4.952569580078125,0.8458956480026245,-0.44577890634536743,1.3319916725158691
1761488124516391000,4.969390869140625,0.9321803450584412,-0.49556443095207214,1.4123204946517944
1761488124533216800,4.986216796875,0.9332493543624878,-0.6188064813613892,1.5369369983673096
1761488124550029300,5.003029296875,0.8423831462860107,-0.7567093372344971,1.6079500913619995
1761488124566862800,5.01986279296875,0.6870706677436829,-0.8965974450111389,1.4879150390625
1761488124583655700,5.03665576171875,0.5584835410118103,-0.8775079250335693,1.1523972749710083
1761488124600493000,5.0534931640625,0.5958990454673767,-0.6569855809211731,0.831845760345459
1761488124617322000,5.070322021484375,0.7310529947280884,-0.2984076738357544,0.7695375084877014
1761488124634143500,5.0871435546875,0.7767151594161987,-0.08292495459318161,0.9691377282142639
1761488124650965800,5.1039658203125,0.7344127297401428,-0.0832303911447525,1.2928962707519531
1761488124667790000,5.1207900390625,0.655458390712738,-0.2532036304473877,1.5647313594818115
1761488124684630000,5.137630126953125,0.5789475440979004,-0.5193881988525391,1.6853772401809692
1761488124701451000,5.154450927734375,0.5786421298980713,-0.6516404747962952,1.6410894393920898
1761488124718271500,5.171271484375,0.6922630667686462,-0.6130032539367676,1.5320500135421753
1761488124735093500,5.188093505859375,0.884227454662323,-0.5438227653503418,1.4611896276474
1761488124751907800,5.204907958984375,1.1285735368728638,-0.5334380865097046,1.5276212692260742
1761488124768728000,5.22172802734375,1.3243558406829834,-0.6270532011985779,1.7192802429199219
1761488124785553400,5.238553466796875,1.3924673795700073,-0.7478517889976501,1.935831904411316
1761488124802378000,5.2553779296875,1.327257513999939,-0.8378016948699951,2.0835087299346924
1761488124819200500,5.272200439453125,1.1876747608184814,-0.8275696635246277,2.1206185817718506
1761488124836025300,5.289025390625,1.059698462486267,-0.6717990636825562,2.059837579727173
1761488124852847400,5.305847412109375,0.9689850211143494,-0.48487427830696106,1.9758436679840088
1761488124869689000,5.322689208984375,0.921795666217804,-0.3474296033382416,1.9672914743423462
1761488124886508300,5.33950830078125,0.8891143798828125,-0.275958389043808,2.0248656272888184
1761488124903332900,5.356332763671875,0.8480336666107178,-0.3039054572582245,2.085035800933838
1761488124920141000,5.37314111328125,0.7783950567245483,-0.3897320330142975,2.060601234436035
1761488124936975000,5.38997509765625,0.6743952035903931,-0.4967861473560333,1.9127718210220337
1761488124953802000,5.406802001953125,0.5707008838653564,-0.4967861473560333,1.6664403676986694
1761488124970605800,5.423605712890625,0.513737678527832,-0.39706242084503174,1.40269935131073
1761488124987448600,5.440448486328125,0.5210680365562439,-0.2632829248905182,1.1995866298675537
1761488125004257300,5.45725732421875,0.5429064631462097,-0.17806722223758698,1.1239920854568481
1761488125021095000,5.474094970703125,0.5236642360687256,-0.1996002197265625,1.1435397863388062
1761488125037920000,5.490919921875,0.44593164324760437,-0.266184538602829,1.1281154155731201
1761488125054743300,5.507743408203125,0.3430008292198181,-0.43020185828208923,1.0222829580307007
1761488125071550000,5.524550048828125,0.2353358417749405,-0.45234572887420654,0.8952230215072632
1761488125088375300,5.541375244140625,0.13240504264831543,-0.3075706362724304,0.7428121566772461
1761488125105201000,5.558200927734375,0.06719517707824707,-0.15393804013729095,0.5879577994346619
1761488125122022700,5.575022705078125,-0.00045814894838258624,-0.1794416606426239,0.3119994103908539
1761488125138847700,5.59184765625,-0.09407325088977814,-0.026419922709465027,-0.006872233934700489
1761488125155669800,5.608669677734375,-0.1547016203403473,0.3617849349975586,-0.09682214260101318
1761488125172494600,5.62549462890625,-0.11652254313230515,0.6467535495758057,0.07177666574716568
1761488125189331200,5.642331298828125,-0.0858265683054924,0.675006091594696,0.39217549562454224
1761488125206154800,5.65915478515625,-0.17623461782932281,0.3747658133506775,0.6995934247970581
1761488125222977000,5.67597705078125,-0.27580565214157104,-0.07208210229873657,0.9014843702316284
1761488125239785000,5.692784912109375,-0.21074850857257843,-0.3831652104854584,1.0154107809066772
1761488125256600000,5.70960009765625,-0.01664607785642147,-0.4737260043621063,1.0680978298187256
1761488125273435000,5.726434814453125,0.12919799983501434,-0.247094988822937,1.0482447147369385
1761488125290257400,5.74325732421875,0.1371392458677292,0.11056660860776901,0.9669997096061707
1761488125307082000,5.76008203125,0.09483683109283447,0.2687807083129883,0.8897252082824707
1761488125323904500,5.776904541015625,0.10506882518529892,0.2600758671760559,0.8388707041740417
1761488125340729000,5.79372900390625,0.1388191282749176,0.17699819803237915,0.7987062931060791
1761488125357568500,5.810568603515625,0.20051652193069458,0.11133018881082535,0.7761042714118958
1761488125374358800,5.82735888671875,0.3095559775829315,0.09453139454126358,0.7822129726409912
1761488125391212300,5.84421240234375,0.42760565876960754,0.10033461451530457,0.8190175890922546
1761488125408036600,5.86103662109375,0.5155702829360962,0.05726861581206322,0.8822421431541443
1761488125424883200,5.87788330078125,0.5422956347465515,-0.012980886735022068,0.9430232048034668
1761488125441683700,5.89468359375,0.517861008644104,-0.0780380368232727,0.9395107626914978
1761488125458491600,5.91149169921875,0.489608496427536,-0.11194105446338654,0.8666650652885437
1761488125475330600,5.92833056640625,0.48517972230911255,-0.05772676691412926,0.7574729323387146
1761488125492147000,5.94514697265625,0.4983133375644684,0.028405234217643738,0.6586654782295227
1761488125508983000,5.961983154296875,0.5051855444908142,0.08949175477027893,0.6021603941917419
1761488125525799400,5.97879931640625,0.5117523670196533,0.0933096632361412,0.5777258276939392
1761488125542624800,5.995624755859375,0.5267185568809509,0.06582073122262955,0.5609270334243774
1761488125559426800,6.0124267578125,0.5650503635406494,0.03481931984424591,0.5496259927749634
1761488125576260400,6.02926025390625,0.584750771522522,-0.02779436856508255,0.5279402732849121
1761488125593080000,6.046080078125,0.5923865437507629,-0.09911288321018219,0.48227810859680176
1761488125609904600,6.062904541015625,0.618195652961731,-0.12400564551353455,0.4112650156021118
1761488125626724000,6.07972412109375,0.6487388610839844,-0.07788532227277756,0.3286454975605011
1761488125643554300,6.09655419921875,0.6270532011985779,-0.02977968007326126,0.2428189367055893
1761488125660391000,6.113390869140625,0.503963828086853,-0.16462817788124084,0.08643743395805359
1761488125677212400,6.13021240234375,0.4031710624694824,-0.2382374405860901,-0.09911288321018219
1761488125694019000,6.14701904296875,0.45753806829452515,-0.00855211354792118,-0.1563815027475357
1761488125710855200,6.163855224609375,0.5352706909179688,0.2993239760398865,-0.007635815534740686
1761488125727686000,6.180685791015625,0.44318273663520813,0.38896843791007996,0.23594669997692108
1761488125744489000,6.197489013671875,0.22968533635139465,0.33505958318710327,0.4300491213798523
1761488125761314800,6.214314697265625,0.054825156927108765,0.20861047506332397,0.5256495475769043
1761488125778139100,6.23113916015625,-0.036651913076639175,0.0013744467869400978,0.5126686692237854
1761488125794961700,6.247961669921875,-0.009010262787342072,-0.05849034711718559,0.4807509481906891
1761488125811786000,6.264785888671875,0.15745051205158234,-0.007024950347840786,0.48487427830696106
1761488125828608800,6.28160888671875,0.37140607833862305,0.03084869496524334,0.5508477091789246
1761488125845474000,6.29847412109375,0.5363397002220154,0.015271631069481373,0.6772968173027039
1761488125862268700,6.3152685546875,0.5771149396896362,-0.07987063378095627,0.806647539138794
1761488125879093500,6.332093505859375,0.4889976382255554,-0.18341228365898132,0.8530732989311218
1761488125895908900,6.348908935546875,0.34773504734039307,-0.1693623960018158,0.8072584271430969
1761488125912748500,6.36574853515625,0.21700987219810486,-0.03695734590291977,0.7177666425704956
1761488125929563400,6.3825634765625,0.15790866315364838,0.13668109476566315,0.6125451326370239
1761488125946387700,6.3993876953125,0.19868391752243042,0.21609358489513397,0.5586362481117249
1761488125963206100,6.4162060546875,0.2515237629413605,0.1843285858631134,0.5740606188774109
1761488125980039000,6.433038818359375,0.25335636734962463,0.06872233748435974,0.6235406994819641
1761488125996857600,6.449857666015625,0.2246456891298294,-0.06398813426494598,0.671493649482727
1761488126013682400,6.466682373046875,0.2050980031490326,-0.1518000066280365,0.6721044778823853
1761488126030503700,6.483503662109375,0.20234911143779755,-0.16722436249256134,0.6070473194122314
1761488126047310800,6.500310791015625,0.22372940182685852,-0.14019356667995453,0.5251913666725159
1761488126064124400,6.51712451171875,0.25014930963516235,-0.11301007121801376,0.4703662395477295
1761488126080961500,6.53396142578125,0.24694228172302246,-0.1394299864768982,0.45326200127601624
1761488126097783800,6.55078369140625,0.20845776796340942,-0.24495697021484375,0.44577890634536743
1761488126114592000,6.567592041015625,0.15317445993423462,-0.3433062732219696,0.4106541574001312
1761488126131434200,6.584434326171875,0.11468994617462158,-0.3878994286060333,0.30482175946235657
1761488126148273000,6.60127294921875,0.09834930300712585,-0.4129449129104614,0.15256360173225403
1761488126165091300,6.61809130859375,0.08720101416110992,-0.3805690407752991,-0.014202617108821869
1761488126181916700,6.634916748046875,0.052839845418930054,-0.299018532037735,-0.17043140530586243
1761488126198739000,6.651739013671875,0.01114829070866108,-0.4024074673652649,-0.3723223805427551
1761488126215573500,6.668573486328125,-0.048105638474226,-0.6157521605491638,-0.7550294399261475
1761488126232382000,6.6853818359375,-0.045204028487205505,-0.32299500703811646,-1.0793988704681396
1761488126249196500,6.702196533203125,0.00855211354792118,0.3263547718524933,-1.2060006856918335
1761488126266015700,6.719015625,-0.012980886735022068,0.9721920490264893,-1.1094839572906494
1761488126282842400,6.73584228515625,-0.28695395588874817,1.353830099105835,-0.8614727258682251
1761488126299661000,6.7526611328125,-0.6840163469314575,1.0477865934371948,-0.6168211698532104
1761488126316490000,6.769489990234375,-0.8373435139656067,0.3877467215061188,-0.4813618063926697
1761488126333312800,6.786312744140625,-0.7878634333610535,-0.2542726695537567,-0.5016731023788452
1761488126350137900,6.803137939453125,-0.6085745096206665,-0.5755877494812012,-0.5629123449325562
1761488126366956500,6.81995654296875,-0.34315356612205505,-0.3874412775039673,-0.5907067060470581
1761488126383797200,6.83679736328125,-0.19562959671020508,0.01878410577774048,-0.5676465034484863
1761488126400617000,6.853616943359375,-0.23900102078914642,0.22403483092784882,-0.48288896679878235
1761488126417445400,6.8704453125,-0.3608686327934265,0.17989981174468994,-0.3245221674442291
1761488126434270200,6.887270263671875,-0.4951062798500061,0.07223481684923172,-0.22342395782470703
1761488126451095600,6.904095458984375,-0.5786421298980713,0.07376197725534439,-0.2623666226863861
1761488126467910400,6.920910400390625,-0.5459607839584351,0.22021691501140594,-0.4092797040939331
1761488126484714800,6.93771484375,-0.3943135142326355,0.4395175576210022,-0.5441282391548157
1761488126501544700,6.954544677734375,-0.2174680233001709,0.6383541822433472,-0.5572618246078491
1761488126518381600,6.971381591796875,-0.12721268832683563,0.7414376735687256,-0.4337143301963806
1761488126535195000,6.98819482421875,-0.16371189057826996,0.6742424964904785,-0.2538145184516907
1761488126552018700,7.005018798828125,-0.27611109614372253,0.47219884395599365,-0.09056077152490616
1761488126568841000,7.021841064453125,-0.3602577745914459,0.2554943859577179,0.020922135561704636
1761488126585665300,7.038665283203125,-0.36682456731796265,0.11759155988693237,0.039095375686883926
1761488126602487800,7.05548779296875,-0.30085113644599915,0.1267545372247696,-0.012828170321881771
1761488126619312400,7.0723125,-0.20295998454093933,0.23350323736667633,-0.0685696229338646
1761488126636136400,7.089136474609375,-0.1212567538022995,0.24938572943210602,-0.11102475970983505
1761488126652957000,7.10595703125,-0.03145955875515938,0.10567969083786011,-0.10354165732860565
1761488126669763300,7.122763427734375,0.055741455405950546,-0.07864890247583389,-0.01114829070866108
1761488126686619600,7.13961962890625,0.11316278576850891,-0.22770002484321594,0.13759739696979523
1761488126703442200,7.156442138671875,0.11285735666751862,-0.30512720346450806,0.2854267954826355
1761488126720267300,7.173267333984375,0.08536841720342636,-0.2719877362251282,0.37461310625076294
1761488126737066800,7.190066650390625,0.014049900695681572,-0.11514809727668762,0.38408151268959045
1761488126753900000,7.206900146484375,-0.15745051205158234,-0.13225232064723969,0.14508049190044403
1761488126770717700,7.2237177734375,-0.266642689704895,-0.07422012835741043,-0.23487769067287445
1761488126787551700,7.2405517578125,-0.1459967941045761,0.17012597620487213,-0.4248567819595337
1761488126804369700,7.25736962890625,0.06520986557006836,0.42531493306159973,-0.35934147238731384
1761488126821194000,7.274194091796875,0.1488984078168869,0.5193881988525391,-0.13209961354732513
1761488126838033400,7.291033447265625,0.11514809727668762,0.3349068760871887,0.12950342893600464
1761488126854854400,7.3078544921875,0.06902777403593063,0.005497787147760391,0.3481931984424591
1761488126871663900,7.324663818359375,0.1547016203403473,-0.1921171247959137,0.5079344511032104
1761488126888498700,7.341498779296875,0.34544429183006287,-0.19013181328773499,0.5740606188774109
1761488126905307400,7.358307373046875,0.5503895878791809,-0.1537853181362152,0.570853590965271
1761488126922148600,7.375148681640625,0.7287622094154358,-0.22388210892677307,0.6301075220108032
1761488126938954500,7.39195458984375,0.7834346890449524,-0.40515637397766113,0.7811439037322998
1761488126955795500,7.40879541015625,0.6624833345413208,-0.5357288122177124,0.901637077331543
1761488126972618000,7.425617919921875,0.4294382631778717,-0.5111414790153503,0.8799513578414917
1761488126989442300,7.4424423828125,0.22082778811454773,-0.2921462953090668,0.7302893996238708
1761488127006249000,7.4592490234375,0.11071932315826416,0.011759156361222267,0.5328271985054016
1761488127023069200,7.476069091796875,0.07620543986558914,0.23396138846874237,0.3995058834552765
1761488127039901200,7.492901123046875,0.07452555745840073,0.2713768780231476,0.36224308609962463
1761488127056716500,7.509716552734375,0.10690141469240189,0.15485434234142303,0.38957929611206055
1761488127073544700,7.526544677734375,0.15271630883216858,0.024892758578062057,0.43967026472091675
1761488127090369500,7.54336962890625,0.21135938167572021,-0.01863138936460018,0.4876231849193573
1761488127107192000,7.560192138671875,0.265573650598526,0.0032070425804704428,0.5206099152565002
1761488127124033300,7.577033203125,0.3003929853439331,-0.02733621932566166,0.4977024495601654
1761488127140840700,7.5938408203125,0.3675881624221802,-0.0913243517279625,0.44913867115974426
1761488127157654800,7.61065478515625,0.4584543704986572,-0.1788308024406433,0.4060726761817932
1761488127174499300,7.627499267578125,0.4735732674598694,-0.2652682363986969,0.3767511546611786
1761488127191323600,7.64432373046875,0.31902438402175903,-0.2756529450416565,0.3484986126422882
1761488127208142600,7.661142578125,0.059864792972803116,-0.06108652427792549,0.23411411046981812
1761488127224957700,7.677957763671875,-0.0679587572813034,0.3107776939868927,0.10934487730264664
1761488127241758500,7.694758544921875,-0.07040221989154816,0.5236642360687256,0.046273041516542435
1761488127258604300,7.711604248046875,-0.14248432219028473,0.4178318381309509,0.018325956538319588
1761488127275423500,7.728423583984375,-0.3170390725135803,0.03695734590291977,-0.13500121235847473
1761488127292254500,7.74525439453125,-0.4758640229701996,-0.08827003091573715,-0.37262779474258423
1761488127309073200,7.7620732421875,-0.44028112292289734,0.18478673696517944,-0.5019785165786743
1761488127325900800,7.77890087890625,-0.33246341347694397,0.6730207800865173,-0.4254676401615143
1761488127342740500,7.795740478515625,-0.36361753940582275,0.9909761548042297,-0.15836681425571442
1761488127359552000,7.812552001953125,-0.5484042763710022,0.9246972799301147,0.1365283876657486
1761488127376381400,7.82938134765625,-0.7272350788116455,0.4986187517642975,0.33505958318710327
1761488127393206000,7.8462060546875,-0.7536550164222717,0.016798794269561768,0.4109596014022827
1761488127410028000,7.863028076171875,-0.5844452977180481,-0.30253100395202637,0.3747658133506775
1761488127426852600,7.8798525390625,-0.3246748745441437,-0.2562579810619354,0.2594650089740753
1761488127443675400,7.89667529296875,-0.13087788224220276,0.04108068719506264,0.14508049190044403
1761488127460499000,7.9134990234375,-0.1088867336511612,0.1875356286764145,0.03420845419168472
1761488127477321700,7.93032177734375,-0.1846340149641037,0.10674870014190674,-0.016340645030140877
1761488127494150700,7.947150634765625,-0.2733621895313263,-0.04046982154250145,-0.03405573591589928
1761488127510947600,7.963947509765625,-0.30146199464797974,-0.13790282607078552,-0.04932736977934837
1761488127527779600,7.980779541015625,-0.22602014243602753,-0.09269879758358002,-0.08139779418706894
1761488127544598500,7.9975986328125,-0.05345070734620094,-0.010231993161141872,-0.12721268832683563
1761488127561429800,8.0144296875,0.14233160018920898,0.009468411095440388,-0.13729196786880493
1761488127578235600,8.031235595703125,0.24755313992500305,-0.076052725315094,-0.11026117950677872
1761488127595073500,8.048073486328125,0.2557998299598694,-0.17867808043956757,-0.08048149943351746
1761488127611908900,8.064908935546875,0.2561052441596985,-0.20906862616539001,-0.06123924255371094
1761488127628738000,8.081738037109375,0.29764407873153687,-0.16584990918636322,-0.07131851464509964
1761488127645545200,8.098545166015626,0.3674354553222656,-0.06368270516395569,-0.0858265683054924
1761488127662368000,8.115367919921875,0.41722095012664795,0.01542434748262167,-0.10384709388017654
1761488127679203800,8.132203857421874,0.45295658707618713,0.007635815534740686,-0.1270599663257599
1761488127696028400,8.1490283203125,0.46929723024368286,-0.10231992602348328,-0.1414152979850769
1761488127712832500,8.16583251953125,0.45204028487205505,-0.20311269164085388,-0.13454307615756989
1761488127729660200,8.18266015625,0.4202753007411957,-0.24404066801071167,-0.12171489745378494
1761488127746484700,8.199484619140625,0.40622538328170776,-0.24938572943210602,-0.11392636597156525
1761488127763307500,8.2163076171875,0.4355469346046448,-0.21914790570735931,-0.06750060617923737
1761488127780127000,8.233126953125,0.45402559638023376,-0.17043140530586243,0.03756821155548096
1761488127796958200,8.249958251953124,0.3604104816913605,-0.12339477986097336,0.14446963369846344
1761488127813794300,8.266794189453124,0.16722436249256134,-0.1589776873588562,0.028099801391363144
1761488127830615000,8.283614990234375,0.14782938361167908,-0.06123924255371094,-0.1463022232055664
1761488127847434200,8.300434326171874,0.36590829491615295,0.07971791177988052,-0.14966198801994324
1761488127864266500,8.3172666015625,0.447000652551651,0.26221391558647156,-0.04214970022439957
1761488127881085200,8.334085205078125,0.3010038435459137,0.5183191895484924,0.1459967941045761
1761488127897909000,8.350908935546874,0.09422596544027328,0.5088507533073425,0.3321579694747925
1761488127914723600,8.3677236328125,-0.016798794269561768,0.24663683772087097,0.44913867115974426
1761488127931560200,8.384560302734375,0.05543602257966995,-0.038637228310108185,0.5027421116828918
1761488127948379000,8.40137890625,0.2483167201280594,-0.22220222651958466,0.4931209683418274
1761488127965203000,8.418202880859376,0.45005497336387634,-0.28298333287239075,0.45982882380485535
1761488127982025700,8.435025634765625,0.5714644193649292,-0.30054569244384766,0.4973970353603363
1761488127998830000,8.451830078125,0.5555819272994995,-0.36193767189979553,0.5818491578102112
1761488128015658800,8.46865869140625,0.3891211748123169,-0.384845107793808,0.6368269920349121
1761488128032483600,8.485483642578124,0.16264286637306213,-0.3075706362724304,0.5748242139816284
1761488128049294800,8.502294921875,-0.012980886735022068,-0.18035796284675598,0.42562034726142883
1761488128066123500,8.51912353515625,-0.09407325088977814,-0.05207626149058342,0.22907446324825287
1761488128082952700,8.53595263671875,-0.10934487730264664,0.11026117950677872,0.07131851464509964
1761488128099779800,8.55277978515625,-0.09529497474431992,0.22831088304519653,0.028405234217643738
1761488128116617500,8.569617431640625,-0.09147707372903824,0.2571742534637451,0.06765332818031311
1761488128133425400,8.58642529296875,-0.09636399149894714,0.1820378452539444,0.16982053220272064
1761488128150260000,8.603260009765625,-0.08964447677135468,0.08445212244987488,0.280539870262146
1761488128167078000,8.620077880859375,-0.05314527451992035,-0.04948008432984352,0.3139847218990326
1761488128183892500,8.636892578125,0.013897184282541275,-0.12064588814973831,0.2770273983478546
1761488128200727800,8.653727783203125,0.06765332818031311,-0.07681630551815033,0.22770002484321594
1761488128217541000,8.670541015625,0.06933320313692093,-0.058184914290905,0.19257527589797974
1761488128234351900,8.687351806640624,-0.0022907445672899485,-0.06154467165470123,0.18677204847335815
1761488128251187200,8.704187255859376,-0.1612684279680252,-0.04581489413976669,0.12079860270023346
1761488128268008700,8.7210087890625,-0.3260493278503418,0.04856378585100174,-0.032681290060281754
1761488128284837400,8.73783740234375,-0.44654250144958496,0.18814650177955627,-0.19058994948863983
1761488128301662000,8.754661865234375,-0.5737552046775818,0.3315471112728119,-0.3254384696483612
1761488128318494500,8.771494384765624,-0.6539312601089478,0.4124867618083954,-0.38606682419776917
1761488128335311400,8.788311279296876,-0.6426302194595337,0.22846360504627228,-0.4210388660430908
1761488128352150300,8.805150390625,-0.6516404747962952,0.006872233934700489,-0.5864306092262268
1761488128368966700,8.821966552734375,-0.6079636216163635,-0.01237002108246088,-0.7701483368873596
1761488128385788200,8.8387880859375,-0.451123982667923,0.13698652386665344,-0.8022187948226929
1761488128402613800,8.85561376953125,-0.3568980097770691,0.3562871515750885,-0.6177374720573425
1761488128419432400,8.872432373046875,-0.4645630121231079,0.4815145432949066,-0.33658674359321594
1761488128436243200,8.8892431640625,-0.6947064995765686,0.4356996417045593,-0.168751522898674
1761488128453078800,8.906078857421875,-0.813825249671936,0.34147366881370544,-0.15943582355976105
1761488128469894700,8.922894775390626,-0.721737265586853,0.2356412708759308,-0.2376265823841095
1761488128486709500,8.93970947265625,-0.4694499373435974,0.12568552792072296,-0.32849279046058655
1761488128503540200,8.956540283203125,-0.192422553896904,-0.013897184282541275,-0.3677408695220947
1761488128520349400,8.973349365234375,-0.04184427112340927,-0.19517144560813904,-0.30604347586631775
1761488128537183200,8.990183349609374,0.003512475173920393,-0.28649580478668213,-0.2054034322500229
1761488128553992200,9.0069921875,-0.08918632566928864,-0.17547103762626648,-0.13958270847797394
1761488128570834000,9.023833984375,-0.19868391752243042,-0.11652254313230515,-0.1823432743549347
1761488128587656200,9.04065625,-0.24419337511062622,-0.06123924255371094,-0.30772337317466736
1761488128604480800,9.057480712890625,-0.23579397797584534,-0.04382958263158798,-0.40912699699401855
1761488128621307600,9.0743076171875,-0.1609629988670349,-0.16844609379768372,-0.4495968222618103
1761488128638141700,9.0911416015625,-0.035582900047302246,-0.20372356474399567,-0.44287729263305664
1761488128654953200,9.107953125,0.08277224004268646,-0.19135354459285736,-0.45005497336387634
1761488128671783000,9.124782958984374,0.10186178237199783,-0.0633772686123848,-0.4538728892803192
1761488128688594200,9.14159423828125,0.05406157299876213,0.029626963660120964,-0.42302417755126953
1761488128705418200,9.158418212890625,0.010079276748001575,0.013591751456260681,-0.35521814227104187
1761488128722244400,9.175244384765625,0.029168816283345222,0.02535090781748295,-0.23105977475643158
1761488128739068400,9.192068359375,0.0884227454662323,0.07681630551815033,-0.06643159687519073
1761488128755891000,9.208890869140625,0.17104226350784302,0.09392052888870239,0.12599095702171326
1761488128772715300,9.22571533203125,0.23273965716362,0.02367102913558483,0.2921462953090668
1761488128789538000,9.2425380859375,0.30512720346450806,-0.025045474991202354,0.4309654235839844
1761488128806379300,9.259379150390625,0.36911532282829285,-0.1287398487329483,0.5009095072746277
1761488128823182600,9.2761826171875,0.4173736870288849,-0.22296582162380219,0.494189977645874
1761488128840023300,9.293023193359375,0.4541783034801483,-0.2997821271419525,0.43936482071876526
1761488128856845300,9.30984521484375,0.41752639412879944,-0.2402227520942688,0.36224308609962463
1761488128873669600,9.326669677734374,0.2718350291252136,-0.1661553531885147,0.2174680233001709
1761488128890480400,9.34348046875,0.12431107461452484,-0.14278975129127502,-0.011759156361222267
1761488128907321000,9.360321044921875,0.19578230381011963,-0.08124507963657379,-0.16661348938941956
1761488128924151300,9.3771513671875,0.31612277030944824,0.0679587572813034,-0.19394971430301666
1761488128940963600,9.393963623046876,0.31749722361564636,0.27977627515792847,-0.09422596544027328
1761488128957790200,9.410790283203125,0.2480112910270691,0.4219551682472229,0.052381694316864014
1761488128974593500,9.427593505859376,0.21853704750537872,0.35735616087913513,0.23335053026676178
1761488128991419600,9.444419677734375,0.33047810196876526,-0.004734205547720194,0.5193881988525391
1761488129008244200,9.461244140625,0.5687155723571777,-0.39538252353668213,0.7348709106445312
1761488129025063400,9.4780634765625,0.7725918292999268,-0.5557346343994141,0.7736608386039734
1761488129041880800,9.494880859375,0.8659014701843262,-0.5534439086914062,0.7052439451217651
1761488129058709800,9.511709716796876,0.8028296232223511,-0.48029279708862305,0.6455318331718445
1761488129075558000,9.528557861328125,0.6059783101081848,-0.38896843791007996,0.5725334286689758
1761488129092373800,9.545373779296876,0.38087448477745056,-0.32681289315223694,0.4870123267173767
1761488129109194200,9.5621943359375,0.25182920694351196,-0.25931230187416077,0.39736783504486084
