time,seconds_elapsed,z,y,x
1761486708774041600,0.13604150390625,0.2945897579193115,-0.06841690838336945,0.8074111342430115
1761486708790315800,0.152315673828125,0.285121351480484,0.1644754707813263,0.8623890280723572
1761486708807141600,0.1691416015625,0.24159720540046692,0.4593706727027893,0.9008735418319702
1761486708823973600,0.1859736328125,0.24190263450145721,0.5517640113830566,0.8616254329681396
1761486708840811300,0.202811279296875,0.20723603665828705,0.3810271918773651,0.7704538106918335
1761486708857638100,0.21963818359375,0.0429132841527462,0.0835358202457428,0.6183483600616455
1761486708874446800,0.23644677734375,-0.14844025671482086,-0.12232576310634613,0.4550946056842804
1761486708891272400,0.2532724609375,-0.21639901399612427,0.01572977937757969,0.3318525552749634
1761486708908125000,0.270125,-0.19532416760921478,0.15363261103630066,0.20387627184391022
1761486708924921900,0.286921875,-0.19257527589797974,0.13836097717285156,-0.051312681287527084
1761486708941765000,0.30376513671875,-0.016340645030140877,0.2018909603357315,-0.2889392673969269
1761486708958599700,0.320599609375,0.36102136969566345,-0.12767083942890167,-0.6968445181846619
1761486708975426600,0.337426513671875,0.6192646622657776,-0.4908302128314972,-0.9728028774261475
1761486708992250400,0.35425048828125,0.7313584089279175,-0.8399397134780884,-0.9871582388877869
1761486709009072600,0.37107275390625,0.740368664264679,-1.0693196058273315,-0.7234171628952026
1761486709025921800,0.387921875,0.7333437204360962,-1.2870930433273315,-0.48166725039482117
1761486709042722000,0.40472216796875,0.7564038634300232,-1.3640620708465576,-0.4144720733165741
1761486709059558000,0.421557861328125,0.9495900273323059,-1.207680583000183,-0.5558874011039734
1761486709076375600,0.43837548828125,1.2988522052764893,-0.8422304391860962,-0.7654141783714294
1761486709093209900,0.4552099609375,1.514487624168396,-0.6241515874862671,-0.816726803779602
1761486709110031600,0.472031494140625,1.4926491975784302,-0.6829473376274109,-0.6957755088806152
1761486709126850600,0.4888505859375,1.372156023979187,-0.9279043078422546,-0.5207626223564148
1761486709143680500,0.505680419921875,1.3266465663909912,-1.176526427268982,-0.3556762933731079
1761486709160515300,0.522515380859375,1.2405146360397339,-1.310611367225647,-0.2324342280626297
1761486709177337300,0.53933740234375,1.1217013597488403,-1.2779301404953003,-0.2506074607372284
1761486709194161200,0.5561611328125,1.0018190145492554,-0.9943358898162842,-0.44455718994140625
1761486709210992600,0.57299267578125,0.9387471675872803,-0.5206099152565002,-0.7202101349830627
1761486709227811800,0.589811767578125,0.8063421249389648,-0.05100724846124649,-0.9920451641082764
1761486709244648000,0.60664794921875,0.5248859524726868,0.20265454053878784,-1.1062769889831543
1761486709261438200,0.623438232421875,0.34804046154022217,0.23350323736667633,-0.9770789742469788
1761486709278281500,0.640281494140625,0.16401731967926025,-0.06368270516395569,-0.5861251950263977
1761486709295108000,0.657108154296875,-0.13439035415649414,-0.4882340431213379,0.018325956538319588
1761486709311933700,0.67393359375,-0.1537853181362152,-0.8677340745925903,0.574976921081543
1761486709328761300,0.69076123046875,-0.07483099400997162,-1.1421653032302856,0.9564622640609741
1761486709345584000,0.707584228515625,0.09392052888870239,-1.2044734954833984,1.1899654865264893
1761486709362415900,0.724415771484375,0.33536502718925476,-1.1734721660614014,1.344361662864685
1761486709379237000,0.741237060546875,0.6204863786697388,-1.2826642990112305,1.5166256427764893
1761486709396068000,0.758068115234375,0.745408296585083,-1.6991217136383057,1.6310101747512817
1761486709412915200,0.774915283203125,0.9831876158714294,-1.8880317211151123,1.972025752067566
1761486709429736400,0.791736328125,1.0719157457351685,-2.004248857498169,2.2458460330963135
1761486709446558200,0.80855810546875,0.8949176073074341,-1.7973182201385498,2.432159900665283
1761486709463368200,0.8253681640625,0.6325509548187256,-1.4520267248153687,2.4746150970458984
1761486709480206300,0.842206298828125,0.34406983852386475,-0.9867000579833984,2.391842842102051
1761486709497042000,0.8590419921875,0.13454307615756989,-0.5555819272994995,2.2314908504486084
1761486709513842200,0.87584228515625,-0.008857546374201775,-0.2790127098560333,2.071291446685791
1761486709530687500,0.8926875,-0.1388191282749176,-0.16630806028842926,1.958128571510315
1761486709547523300,0.9095234375,-0.24617868661880493,-0.0708603709936142,1.8840610980987549
1761486709564329200,0.9263291015625,-0.33505958318710327,0.08765916526317596,1.8391625881195068
1761486709581164800,0.943164794921875,-0.41752639412879944,0.27320948243141174,1.8133535385131836
1761486709597999600,0.95999951171875,-0.45784351229667664,0.39706242084503174,1.8025106191635132
1761486709614805200,0.97680517578125,-0.44180828332901,0.3868304193019867,1.7971655130386353
1761486709631644000,0.993643798828125,-0.3972151279449463,0.247094988822937,1.7800613641738892
1761486709648473600,1.0104736328125,-0.3591887652873993,0.054825156927108765,1.7285959720611572
1761486709665288200,1.0272880859375,-0.3257438838481903,-0.06688974797725677,1.659262776374817
1761486709682133200,1.04413330078125,-0.2779437005519867,-0.09453139454126358,1.559233546257019
1761486709698946300,1.0609462890625,-0.20799961686134338,-0.10949759185314178,1.4091134071350098
1761486709715778600,1.077778564453125,-0.12629638612270355,-0.13790282607078552,1.2276864051818848
1761486709732606000,1.09460595703125,-0.07925976812839508,-0.1736384481191635,1.034500241279602
1761486709749407000,1.111406982421875,-0.09605856239795685,-0.17608191072940826,0.8205447196960449
1761486709766244600,1.12824462890625,-0.10445795953273773,-0.12171489745378494,0.5940664410591125
1761486709783070500,1.145070556640625,-0.04581489413976669,-0.1414152979850769,0.3549126982688904
1761486709799897600,1.161897705078125,-0.0006108652451075613,-0.02626720629632473,-0.029474247246980667
1761486709816723200,1.17872314453125,-0.01038470957428217,0.2974913716316223,-0.5320636034011841
1761486709833549800,1.1955498046875,0.04184427112340927,0.698677122592926,-0.8648324608802795
1761486709850375400,1.21237548828125,0.1941024363040924,0.9964739084243774,-0.8263479471206665
1761486709867199500,1.229199462890625,0.451582133769989,0.997848391532898,-0.46731191873550415
1761486709884031700,1.24603173828125,0.6849326491355896,0.5262604355812073,0.02474004216492176
1761486709900866800,1.26286669921875,0.7922922372817993,-0.17211128771305084,0.44486260414123535
1761486709917699600,1.279699462890625,0.764955997467041,-0.6994407176971436,0.6551529765129089
1761486709934525700,1.296525634765625,0.7113525867462158,-0.9082038998603821,0.6204863786697388
1761486709951342800,1.3133427734375,0.6725626587867737,-0.7383833527565002,0.3439171314239502
1761486709968170000,1.330169921875,0.6383541822433472,-0.3911064863204956,-0.047800205647945404
1761486709985003800,1.347003662109375,0.5958990454673767,-0.06429356336593628,-0.3927863538265228
1761486710001811500,1.3638115234375,0.545655369758606,0.17776179313659668,-0.6611089110374451
1761486710018652400,1.38065234375,0.4928155243396759,0.3130684494972229,-0.8694139719009399
1761486710035492000,1.3974921875,0.46899178624153137,0.31871894001960754,-1.0363328456878662
1761486710052305000,1.414304931640625,0.4827362596988678,0.27947086095809937,-1.197295904159546
1761486710069131800,1.4311318359375,0.5218316316604614,0.2588541507720947,-1.3379476070404053
1761486710085957400,1.447957275390625,0.5674937963485718,0.24617868661880493,-1.387580394744873
1761486710102785300,1.464785400390625,0.6065891981124878,0.21991148591041565,-1.2907582521438599
1761486710119610400,1.4816103515625,0.607200026512146,0.18188512325286865,-1.1078041791915894
1761486710136437200,1.498437255859375,0.5338962078094482,0.182648703455925,-0.8994990587234497
1761486710153259000,1.515259033203125,0.39874228835105896,0.3043636083602905,-0.7562511563301086
1761486710170090800,1.5320908203125,0.26481008529663086,0.4363104999065399,-0.7192938327789307
1761486710186918100,1.548918212890625,0.16722436249256134,0.5064072608947754,-0.7275404930114746
1761486710203742500,1.565742431640625,0.13301590085029602,0.5154175758361816,-0.7067710757255554
1761486710220560600,1.582560546875,0.1339322030544281,0.4668537676334381,-0.6319400668144226
1761486710237385200,1.59938525390625,0.1437060534954071,0.46547931432724,-0.49953505396842957
1761486710254206700,1.616206787109375,0.1235474944114685,0.47448956966400146,-0.3517056703567505
1761486710271034600,1.63303466796875,0.11972958594560623,0.4072943925857544,-0.23655757308006287
1761486710287859000,1.64985888671875,0.1840231567621231,0.2970332205295563,-0.1609629988670349
1761486710304671700,1.666671630859375,0.2741257846355438,0.1843285858631134,-0.11255192011594772
1761486710321508600,1.683508544921875,0.304669052362442,0.06291911751031876,-0.029168816283345222
1761486710338342400,1.70034228515625,0.2353358417749405,0.011453723534941673,0.07956519722938538
1761486710355151600,1.717151611328125,0.01114829070866108,-0.046731192618608475,0.07269296050071716
1761486710371989500,1.733989501953125,-0.17043140530586243,0.002138028386980295,-0.16890424489974976
1761486710388822300,1.750822265625,-0.13958270847797394,0.21135938167572021,-0.3637702465057373
1761486710405658000,1.767658203125,-0.04566217586398125,0.4285219609737396,-0.2519819140434265
1761486710422483700,1.784483642578125,-0.015118914656341076,0.46242499351501465,0.12003502249717712
1761486710439310600,1.801310546875,-0.12538009881973267,0.2945897579193115,0.5432119369506836
1761486710456136200,1.81813623046875,-0.2545780837535858,0.05910121276974678,0.7944302558898926
1761486710472963300,1.83496337890625,-0.2577851414680481,-0.1189660057425499,0.8422304391860962
1761486710489789000,1.851788818359375,-0.09773843735456467,-0.23365595936775208,0.7884743213653564
1761486710506615600,1.868615478515625,0.15302173793315887,-0.33276882767677307,0.7993171811103821
1761486710523441400,1.88544140625,0.38087448477745056,-0.4619668424129486,0.9543242454528809
1761486710540268300,1.902268310546875,0.5459607839584351,-0.7067710757255554,1.1635456085205078
1761486710557094100,1.91909423828125,0.6397286057472229,-0.8483390808105469,1.2764029502868652
1761486710573921000,1.935921142578125,0.6342308521270752,-0.816421389579773,1.4217888116836548
1761486710590746000,1.95274609375,0.5129740834236145,-0.53328537940979,1.6288721561431885
1761486710607565000,1.96956494140625,0.327729195356369,-0.17760907113552094,1.718363881111145
1761486710624407800,1.98640771484375,0.19058994948863983,0.07666359096765518,1.6980526447296143
1761486710641226000,2.00322607421875,0.11698069423437119,0.128434419631958,1.6267341375350952
1761486710658051600,2.020051513671875,0.06811147183179855,0.07238753139972687,1.5554156303405762
1761486710674883300,2.03688330078125,0.006108652334660292,-0.05421429127454758,1.4891366958618164
1761486710691700700,2.05370068359375,-0.03191770985722542,-0.11850785464048386,1.4303410053253174
1761486710708531500,2.070531494140625,-0.0555887371301651,-0.12568552792072296,1.3564262390136719
1761486710725340200,2.087340087890625,-0.06368270516395569,-0.13225232064723969,1.254717230796814
1761486710742167000,2.1041669921875,-0.06154467165470123,-0.23945917189121246,1.129184365272522
1761486710758998300,2.120998291015625,-0.039706241339445114,-0.35903605818748474,0.9995282292366028
1761486710775825700,2.13782568359375,-0.008246680721640587,-0.43508878350257874,0.875064492225647
1761486710792634000,2.154634033203125,0.006719517521560192,-0.4285219609737396,0.7916813492774963
1761486710809481500,2.1714814453125,0.025045474991202354,-0.3462078869342804,0.7455610036849976
1761486710826302000,2.188302001953125,0.04398229718208313,-0.30741792917251587,0.6745479702949524
1761486710843127300,2.205127197265625,0.0887281745672226,-0.30863967537879944,0.5520694851875305
1761486710859953400,2.221953369140625,0.15057829022407532,-0.3677408695220947,0.3805690407752991
1761486710876780800,2.23878076171875,0.20906862616539001,-0.45875978469848633,0.1667662113904953
1761486710893607000,2.25560693359375,0.2669481039047241,-0.4889976382255554,-0.07284568250179291
1761486710910446600,2.272446533203125,0.3113885521888733,-0.6215553879737854,-0.32971450686454773
1761486710927272200,2.289272216796875,0.26771169900894165,-0.7272350788116455,-0.6989825367927551
1761486710944083200,2.306083251953125,0.18219055235385895,-0.5607742667198181,-1.0731375217437744
1761486710960925200,2.32292529296875,0.098502017557621,-0.14355333149433136,-1.2202032804489136
1761486710977752000,2.339751953125,0.05513058975338936,0.3787364661693573,-1.0155634880065918
1761486710994561000,2.35656103515625,0.0708603709936142,0.6404922008514404,-0.6278167366981506
1761486711011401000,2.37340087890625,0.06719517707824707,0.24587325751781464,-0.34987306594848633
1761486711028234500,2.390234375,0.051312681287527084,-0.36819902062416077,-0.23396138846874237
1761486711045029000,2.407029052734375,0.04795292019844055,-0.8643743395805359,-0.26404649019241333
1761486711061882600,2.423882568359375,0.14385876059532166,-1.0390818119049072,-0.4366159439086914
1761486711078710800,2.440710693359375,0.2617557644844055,-0.7596109509468079,-0.6603453159332275
1761486711095539200,2.457539306640625,0.3332269787788391,-0.2015855312347412,-0.802524209022522
1761486711112362200,2.4743623046875,0.2796235680580139,0.1186605766415596,-0.8210029006004333
1761486711129187800,2.491187744140625,0.1771509200334549,0.06872233748435974,-0.779464066028595
1761486711145999000,2.5079990234375,0.12538009881973267,-0.21303924918174744,-0.8720101118087769
1761486711162840600,2.524840576171875,0.18570303916931152,-0.42531493306159973,-1.0961977243423462
1761486711179667500,2.54166748046875,0.28008171916007996,-0.37980547547340393,-1.2759448289871216
1761486711196488700,2.55848876953125,0.16111570596694946,-0.5096143484115601,-1.2988522052764893
1761486711213307400,2.575307373046875,0.2541199326515198,-0.3142901659011841,-0.9856310486793518
1761486711230132200,2.59213232421875,0.39095374941825867,-0.19165897369384766,-0.6563746929168701
1761486711246959000,2.608958984375,0.4363104999065399,-0.2831360399723053,-0.5009095072746277
1761486711263784400,2.625784423828125,0.5091561675071716,-0.40943244099617004,-0.47769662737846375
1761486711280603000,2.642602783203125,0.5777258276939392,-0.46822822093963623,-0.4786129295825958
1761486711297430800,2.6594306640625,0.612850546836853,-0.5681046843528748,-0.4492913782596588
1761486711314268000,2.676267822265625,0.6455318331718445,-0.7098253965377808,-0.44516804814338684
1761486711331089700,2.693089599609375,0.759916365146637,-0.3926336467266083,-0.2612976133823395
1761486711347917000,2.7099169921875,0.7861835956573486,0.037110064178705215,-0.27779096364974976
1761486711364742700,2.72674267578125,0.6997461318969727,0.36102136969566345,-0.41340306401252747
1761486711381582600,2.74358251953125,0.694553792476654,0.7408268451690674,-0.541532039642334
1761486711398412500,2.76041259765625,0.6989825367927551,1.0051788091659546,-0.626747727394104
1761486711415244000,2.777244140625,0.6861543655395508,1.0514518022537231,-0.7244861721992493
1761486711432058000,2.79405810546875,0.6772968173027039,1.0198395252227783,-0.8009970784187317
1761486711448892000,2.810891845703125,0.6291912198066711,0.9908234477043152,-0.8136724829673767
1761486711465713700,2.827713623046875,0.5349652171134949,0.7673994898796082,-0.8420777320861816
1761486711482541300,2.844541259765625,0.5494732856750488,0.43508878350257874,-0.8060367107391357
1761486711499350000,2.86135009765625,0.5809328556060791,-0.03985895588994026,-0.6178901791572571
1761486711516190500,2.8781904296875,0.4219551682472229,-0.29504790902137756,-0.20341812074184418
1761486711533022000,2.89502197265625,0.15546520054340363,-0.13454307615756989,0.22907446324825287
1761486711549840400,2.91184033203125,-0.19104810059070587,0.2716823220252991,0.47051894664764404
1761486711566666800,2.928666748046875,-0.42180246114730835,0.3243694305419922,0.5502368807792664
1761486711583499000,2.9454990234375,-0.5068654417991638,-0.052381694316864014,0.632398247718811
1761486711600307500,2.962307373046875,-0.5390886068344116,-0.5966626405715942,0.8932377099990845
1761486711617144300,2.979144287109375,-0.6473644375801086,-1.1328495740890503,1.338405728340149
1761486711633969200,2.99596923828125,-0.8494081497192383,-1.5549575090408325,1.8014415502548218
1761486711650806000,3.012805908203125,-1.01617431640625,-1.6520850658416748,2.083050489425659
1761486711667629600,3.029629638671875,-1.1084150075912476,-1.4647021293640137,2.1562016010284424
1761486711684452600,3.04645263671875,-1.19912850856781,-1.3602441549301147,2.17742919921875
1761486711701269500,3.06326953125,-1.3996449708938599,-1.5361733436584473,2.2178990840911865
1761486711718087200,3.080087158203125,-1.7450892925262451,-1.8102991580963135,2.253329277038574
1761486711734918400,3.09691845703125,-2.1029036045074463,-1.7363845109939575,2.280970811843872
1761486711751753500,3.11375341796875,-2.3744332790374756,-0.9431759119033813,2.470644474029541
1761486711768574000,3.130573974609375,-2.3150265216827393,-0.28435778617858887,2.660012722015381
1761486711785400300,3.147400390625,-1.987755537033081,0.2926044464111328,2.713005304336548
1761486711802218800,3.16421875,-1.7371480464935303,0.6701191663742065,2.437352418899536
1761486711819053300,3.18105322265625,-1.8222110271453857,0.5273294448852539,2.0928242206573486
1761486711835878700,3.197878662109375,-2.26737904548645,-0.00015271631127689034,1.9706512689590454
1761486711852702500,3.214702392578125,-2.7853927612304688,-0.35873061418533325,1.9905043840408325
1761486711869551400,3.23155126953125,-2.9739973545074463,-0.03848451003432274,2.1032090187072754
1761486711886372000,3.2483720703125,-2.5995371341705322,0.4349360466003418,2.177581787109375
1761486711903192300,3.2651923828125,-1.980883240699768,0.82207190990448,2.202016592025757
1761486711920024000,3.282024169921875,-1.5838208198547363,0.8304712772369385,2.040595293045044
1761486711936850000,3.298849853515625,-1.7328720092773438,0.5262604355812073,1.5946637392044067
1761486711953677800,3.315677734375,-2.046245813369751,0.31780263781547546,1.1042916774749756
1761486711970502700,3.332502685546875,-2.1281018257141113,0.25213462114334106,0.8440630435943604
1761486711987310600,3.349310546875,-2.0783162117004395,0.1966986060142517,0.897513747215271
1761486712004137700,3.3661376953125,-2.1256582736968994,0.4072943925857544,1.020297646522522
1761486712020966400,3.38296630859375,-2.1335995197296143,0.616973876953125,1.0726794004440308
1761486712037812000,3.39981201171875,-2.1009182929992676,0.6612616181373596,0.9647089242935181
1761486712054630700,3.416630615234375,-2.08747935295105,0.759916365146637,0.6440047025680542
1761486712071464000,3.4334638671875,-1.9799669981002808,0.9697485566139221,0.18539759516716003
1761486712088288000,3.4502880859375,-1.8005253076553345,1.3829989433288574,-0.33078351616859436
1761486712105113300,3.46711328125,-1.6279559135437012,1.8639025688171387,-0.808174729347229
1761486712121940700,3.483940673828125,-1.3556627035140991,2.2568416595458984,-1.1470521688461304
1761486712138764300,3.500764404296875,-0.9030115604400635,2.489733934402466,-1.321912407875061
1761486712155587600,3.517587646484375,-0.23747386038303375,2.3681719303131104,-1.3516920804977417
1761486712172414700,3.534414794921875,0.3484986126422882,1.8736764192581177,-1.2622003555297852
1761486712189215200,3.55121533203125,0.7805330753326416,1.100015640258789,-1.1268936395645142
1761486712206057000,3.568056884765625,0.8886561989784241,0.5589417219161987,-1.013272762298584
1761486712222884400,3.58488427734375,0.8232936263084412,0.2165517359972,-0.8878926634788513
1761486712239709700,3.601709716796875,0.7878634333610535,-0.308792382478714,-0.8251262307167053
1761486712256536300,3.618536376953125,0.8820894360542297,-0.7739662528038025,-1.0190759897232056
1761486712273364200,3.6353642578125,0.9842566251754761,-0.8229882121086121,-1.2765556573867798
1761486712290187000,3.65218701171875,1.1212431192398071,-0.6035348773002625,-1.6612480878829956
1761486712307015400,3.669015380859375,1.3437508344650269,-0.7055493593215942,-2.014939069747925
1761486712323841500,3.685841552734375,1.6413949728012085,-1.3396275043487549,-2.230268955230713
1761486712340667400,3.70266748046875,1.9801197052001953,-1.5109752416610718,-2.2745566368103027
1761486712357498400,3.719498291015625,2.2154555320739746,-1.49738347530365,-2.0480785369873047
1761486712374333700,3.736333740234375,2.1652119159698486,-1.4211779832839966,-1.5499178171157837
1761486712391160600,3.75316064453125,2.073734760284424,-1.6381878852844238,-1.0684033632278442
1761486712407986400,3.769986328125,2.0386099815368652,-2.012648344039917,-0.8020660877227783
1761486712424813300,3.786813232421875,2.065946340560913,-2.3991732597351074,-0.82207190990448
1761486712441638000,3.803637939453125,2.1003074645996094,-2.652071475982666,-1.0224356651306152
1761486712458467300,3.82046728515625,2.0645718574523926,-2.5053110122680664,-1.357953429222107
1761486712475256800,3.8372568359375,2.060295820236206,-2.0946569442749023,-1.7431039810180664
1761486712492129000,3.85412890625,2.166586399078369,-1.6853772401809692,-1.9901989698410034
1761486712508944100,3.870944091796875,2.2878429889678955,-1.3632985353469849,-2.0816760063171387
1761486712525770800,3.887770751953125,2.4184155464172363,-1.1902709007263184,-2.049452781677246
1761486712542575600,3.90457568359375,2.582585573196411,-1.193172574043274,-1.959502935409546
1761486712559411200,3.9214111328125,2.741715908050537,-1.282817006111145,-1.856266736984253
1761486712576249000,3.9382490234375,2.836705446243286,-1.2435688972473145,-1.5616769790649414
1761486712593059600,3.9550595703125,2.8160886764526367,-1.079246163368225,-1.2618948221206665
1761486712609901800,3.97190185546875,2.7313311100006104,-0.978606104850769,-1.102611780166626
1761486712626746600,3.98874658203125,2.696664571762085,-0.9573785662651062,-1.156978726387024
1761486712643557600,4.0055576171875,2.6390905380249023,-0.7987062931060791,-1.18492591381073
1761486712660381400,4.02238134765625,2.4527766704559326,-0.5378668308258057,-1.0102183818817139
1761486712677189400,4.039189453125,2.037846565246582,-0.2900082767009735,-0.7195992469787598
1761486712694018800,4.056018798828125,1.3868168592453003,-0.036041051149368286,-0.41202861070632935
1761486712710846200,4.07284619140625,0.7699956297874451,0.05314527451992035,-0.16737708449363708
1761486712727672600,4.089672607421875,0.41233405470848083,-0.017867809161543846,-0.04489859566092491
1761486712744498200,4.106498291015625,0.24877487123012543,-0.18310685455799103,0.03695734590291977
1761486712761335000,4.1233349609375,0.13973543047904968,-0.3933972120285034,0.23335053026676178
1761486712778151200,4.140151123046875,-0.02076941914856434,-0.5922338366508484,0.5561928153038025
1761486712794977800,4.156977783203125,-0.25961771607398987,-0.7492262125015259,0.9260717034339905
1761486712811803400,4.173803466796875,-0.5264131426811218,-0.8298604488372803,1.2249375581741333
1761486712828630500,4.190630615234375,-0.7567093372344971,-0.8032878041267395,1.409724235534668
1761486712845455000,4.207455078125,-0.9575312733650208,-0.7008151412010193,1.505935549736023
1761486712862300700,4.22430078125,-1.1855367422103882,-0.5404630303382874,1.5552629232406616
1761486712879122200,4.2411220703125,-1.4527902603149414,-0.4054618179798126,1.6264287233352661
1761486712895949300,4.25794921875,-1.6982053518295288,-0.3608686327934265,1.7566957473754883
1761486712912775200,4.274775146484375,-1.8617645502090454,-0.44394633173942566,1.9295705556869507
1761486712929602000,4.29160205078125,-1.9546160697937012,-0.5293147563934326,2.129628896713257
1761486712946408400,4.308408447265625,-2.035097599029541,-0.5876523852348328,2.326022148132324
1761486712963258000,4.325258056640625,-2.1093177795410156,-0.6229298114776611,2.462550401687622
1761486712980055600,4.3420556640625,-2.14428973197937,-0.6635523438453674,2.5108089447021484
1761486712996906800,4.35890673828125,-2.1142046451568604,-0.6783658266067505,2.492788314819336
1761486713013732400,4.375732421875,-2.082286834716797,-0.6146831512451172,2.426509380340576
1761486713030560000,4.39256005859375,-2.043344259262085,-0.5152648091316223,2.2800545692443848
1761486713047385000,4.409385009765625,-1.9935587644577026,-0.4683809280395508,2.071444034576416
1761486713064212000,4.4262119140625,-1.9343048334121704,-0.47051894664764404,1.8403842449188232
1761486713081037800,4.443037841796875,-1.8597792387008667,-0.48808133602142334,1.616044044494629
1761486713097864700,4.45986474609375,-1.7693711519241333,-0.499382346868515,1.415069341659546
1761486713114690600,4.476690673828125,-1.643227458000183,-0.5485569834709167,1.2202032804489136
1761486713131517200,4.49351708984375,-1.540907621383667,-0.646295428276062,0.9520334601402283
1761486713148343000,4.510343017578125,-1.3017538785934448,-0.5821545720100403,0.8495608568191528
1761486713165156400,4.52715625,-1.2362385988235474,-0.5338962078094482,0.6401867866516113
1761486713181978000,4.54397802734375,-1.0850493907928467,-0.3530801236629486,0.5354233980178833
1761486713198793500,4.56079345703125,-0.9515753388404846,-0.3019201457500458,0.4340197443962097
1761486713215634200,4.57763427734375,-0.7108944058418274,-0.244804248213768,0.2695443034172058
1761486713232461600,4.594461669921875,-0.4879286289215088,0.009468411095440388,-0.028405234217643738
1761486713249287200,4.611287109375,-0.27061331272125244,0.4005748927593231,-0.3828597962856293
1761486713266113800,4.62811376953125,-0.03375030308961868,0.7469354867935181,-0.6185010671615601
1761486713282939400,4.644939453125,0.2422080636024475,0.870330274105072,-0.6536257863044739
1761486713299768600,4.6617685546875,0.5141957998275757,0.6255260109901428,-0.540921151638031
1761486713316590000,4.678590087890625,0.7330383062362671,0.16401731967926025,-0.3827070891857147
1761486713333419000,4.6954189453125,0.8634580373764038,-0.3533855378627777,-0.2606867551803589
1761486713350261800,4.71226171875,0.9346238374710083,-0.7667886018753052,-0.24113905429840088
1761486713367085800,4.7290859375,1.0297660827636719,-0.8541423082351685,-0.34055736660957336
1761486713383894300,4.745894287109375,1.1313223838806152,-0.6649268269538879,-0.5691736936569214
1761486713400734200,4.762734130859375,1.1945469379425049,-0.34055736660957336,-0.9089674949645996
1761486713417565200,4.779565185546875,1.2496775388717651,0.026114489883184433,-1.2985467910766602
1761486713434391000,4.79639111328125,1.3292428255081177,0.33246341347694397,-1.6717854738235474
1761486713451221500,4.813221435546875,1.4592043161392212,0.5375614166259766,-1.9932533502578735
1761486713468042500,4.83004248046875,1.6471980810165405,0.6728680729866028,-2.250732898712158
1761486713484865000,4.846864990234375,1.8309158086776733,0.698677122592926,-2.3970351219177246
1761486713501699300,4.86369921875,1.973552942276001,0.6067419052124023,-2.381458044052124
1761486713518508300,4.88050830078125,2.0813705921173096,0.40591996908187866,-2.1878137588500977
1761486713535348000,4.897347900390625,2.1568124294281006,0.13118331134319305,-1.8790215253829956
1761486713552173600,4.914173583984375,2.2291998863220215,-0.10308351367712021,-1.5549575090408325
1761486713568986000,4.930986083984375,2.2934935092926025,-0.19288070499897003,-1.3034337759017944
1761486713585825500,4.947825439453125,2.334116220474243,-0.1420261710882187,-1.1997393369674683
1761486713602637800,4.964637939453125,2.3128886222839355,-0.05864306539297104,-1.225395679473877
1761486713619478500,4.981478515625,2.2325596809387207,0.009468411095440388,-1.3101532459259033
1761486713636306200,4.99830615234375,2.1067214012145996,0.0659734457731247,-1.36482572555542
1761486713653114400,5.0151142578125,1.9104810953140259,0.16737708449363708,-1.36650550365448
1761486713669944600,5.031944580078125,1.6751452684402466,0.33628132939338684,-1.3498594760894775
1761486713686770200,5.048770263671875,1.4246904850006104,0.5545129179954529,-1.3602441549301147
1761486713703597600,5.06559765625,1.225395679473877,0.7136433124542236,-1.4008667469024658
1761486713720423200,5.082423095703125,1.0487029552459717,0.8384125232696533,-1.4512630701065063
1761486713737229000,5.09922900390625,0.8831584453582764,0.9434813857078552,-1.4958562850952148
1761486713754075100,5.1160751953125,0.7183775305747986,0.8811731338500977,-1.5430456399917603
1761486713770899700,5.132899658203125,0.5957463383674622,0.7588473558425903,-1.6048957109451294
1761486713787731500,5.1497314453125,0.5381723046302795,0.8655960559844971,-1.5181528329849243
1761486713804555000,5.166554931640625,0.47418415546417236,1.0906999111175537,-1.2348641157150269
1761486713821386800,5.18338671875,0.23869559168815613,1.264796495437622,-0.8657487630844116
1761486713838225000,5.200224853515625,-0.18814650177955627,1.3028228282928467,-0.502436637878418
1761486713855049500,5.217049560546875,-0.6577491760253906,1.1203268766403198,-0.206777885556221
1761486713871854600,5.2338544921875,-0.9376781582832336,0.7921395301818848,0.019089538604021072
1761486713888695000,5.250695068359375,-0.9799805879592896,0.38988474011421204,0.29046642780303955
1761486713905530600,5.267530517578125,-0.9185886383056641,-0.04948008432984352,0.6542366743087769
1761486713922335700,5.284335693359375,-0.9593638777732849,-0.3929390609264374,1.0380127429962158
1761486713939178800,5.3011787109375,-1.1716395616531372,-0.5108360648155212,1.3359622955322266
1761486713956004400,5.31800439453125,-1.5039502382278442,-0.3903428912162781,1.4831807613372803
1761486713972831700,5.334831787109375,-1.8267924785614014,-0.15195272862911224,1.4567608833312988
1761486713989657600,5.35165771484375,-2.0923662185668945,0.1365283876657486,1.3041973114013672
1761486714006483700,5.368483642578125,-2.309070587158203,0.40133845806121826,1.1391109228134155
1761486714023309800,5.385309814453125,-2.4802656173706055,0.5638286471366882,1.072221279144287
1761486714040136700,5.40213671875,-2.6065618991851807,0.5850561857223511,1.1301007270812988
1761486714056962800,5.418962890625,-2.6920831203460693,0.493731826543808,1.2670872211456299
1761486714073789000,5.435788818359375,-2.7126998901367188,0.32391130924224854,1.401172161102295
1761486714090610700,5.452610595703125,-2.680324077606201,0.19792033731937408,1.5004377365112305
1761486714107429400,5.469429443359375,-2.6148087978363037,0.14844025671482086,1.5447255373001099
1761486714124267300,5.486267333984375,-2.5269968509674072,0.154396191239357,1.539685845375061
1761486714141072000,5.50307177734375,-2.401005744934082,0.15027284622192383,1.4892895221710205
1761486714157907700,5.51990771484375,-2.2598960399627686,0.15103642642498016,1.4355332851409912
1761486714174733300,5.5367333984375,-2.1293234825134277,0.14614951610565186,1.3965907096862793
1761486714191558700,5.55355859375,-2.0002782344818115,0.07269296050071716,1.3642147779464722
1761486714208385000,5.570385009765625,-1.8611537218093872,-0.048258353024721146,1.3200798034667969
1761486714225212200,5.587212158203125,-1.7038558721542358,-0.17959438264369965,1.2504411935806274
1761486714242038500,5.60403857421875,-1.5364787578582764,-0.30741792917251587,1.1519391536712646
1761486714258864000,5.620864013671875,-1.3544409275054932,-0.3966042697429657,1.0028879642486572
1761486714275690800,5.637690673828125,-1.1665998697280884,-0.3871358633041382,0.7663304209709167
1761486714292516400,5.654516357421875,-1.0086911916732788,-0.22770002484321594,0.41233405470848083
1761486714309343500,5.671343505859375,-0.8820894360542297,0.06841690838336945,0.003817907767370343
1761486714326171000,5.6881708984375,-0.7473936080932617,0.2863430976867676,-0.30970868468284607
1761486714343010600,5.705010498046875,-0.5433646440505981,0.28756481409072876,-0.5629123449325562
1761486714359829200,5.721829345703125,-0.31871894001960754,0.2932153046131134,-0.8633053302764893
1761486714376669400,5.73866943359375,-0.061391957104206085,0.38866302371025085,-1.158811330795288
1761486714393463600,5.755463623046875,0.20555615425109863,0.5464189648628235,-1.3556627035140991
1761486714410314800,5.772314697265625,0.4683809280395508,0.6482807397842407,-1.358258843421936
1761486714427136000,5.789135986328125,0.7142542004585266,0.413097620010376,-1.1467467546463013
1761486714443971600,5.8059716796875,0.859029233455658,-0.09437867999076843,-0.8384125232696533
1761486714460769300,5.822769287109375,0.9153815507888794,-0.608727216720581,-0.5829181671142578
1761486714477610200,5.8396103515625,0.9859365224838257,-0.99876469373703,-0.4680754840373993
1761486714494413000,5.8564130859375,1.13926362991333,-1.0461066961288452,-0.543059229850769
1761486714511272700,5.873272705078125,1.3267992734909058,-0.7683157324790955,-0.7657195925712585
1761486714528081400,5.890081298828125,1.441794753074646,-0.43188172578811646,-1.006095051765442
1761486714544925000,5.906925048828125,1.4595097303390503,-0.1950187236070633,-1.1759155988693237
1761486714561750800,5.923750732421875,1.4335479736328125,-0.058948494493961334,-1.300837516784668
1761486714578577700,5.94057763671875,1.445918083190918,0.044287730008363724,-1.4523321390151978
1761486714595403500,5.957403564453125,1.5251778364181519,0.12980885803699493,-1.620778203010559
1761486714612230100,5.974230224609375,1.6514742374420166,0.192422553896904,-1.7418822050094604
1761486714629038800,5.991038818359375,1.7449365854263306,0.21960605680942535,-1.7707456350326538
1761486714645856300,6.007856201171875,1.8046486377716064,0.15974126756191254,-1.7026340961456299
1761486714662695000,6.02469482421875,1.8318321704864502,0.044745877385139465,-1.5925257205963135
1761486714679521500,6.041521484375,1.8058704137802124,0.020463986322283745,-1.4915802478790283
1761486714696347100,6.05834716796875,1.7661641836166382,0.14645494520664215,-1.477835774421692
1761486714713174300,6.07517431640625,1.7182111740112305,0.31780263781547546,-1.521665334701538
1761486714729982000,6.09198193359375,1.6667457818984985,0.4193589985370636,-1.5606080293655396
1761486714746826800,6.10882666015625,1.5897767543792725,0.4833471179008484,-1.5879441499710083
1761486714763652000,6.125652099609375,1.4917329549789429,0.5496259927749634,-1.609477162361145
1761486714780479700,6.142479736328125,1.404073715209961,0.588263213634491,-1.6019941568374634
1761486714797302000,6.159302001953125,1.3194689750671387,0.618195652961731,-1.5636622905731201
1761486714814134800,6.176134765625,1.2272282838821411,0.669355571269989,-1.544114589691162
1761486714830941700,6.192941650390625,1.1169670820236206,0.711963415145874,-1.5839735269546509
1761486714847798300,6.20979833984375,0.9903652667999268,0.7199047207832336,-1.63467538356781
1761486714864619500,6.22661962890625,0.8290968537330627,0.7147123217582703,-1.6476563215255737
1761486714881454300,6.243454345703125,0.5855143666267395,0.7548767328262329,-1.6940820217132568
1761486714898276000,6.260276123046875,0.2730567753314972,0.8452847599983215,-1.8270978927612305
1761486714915103700,6.277103759765625,0.043218716979026794,1.0270172357559204,-1.9026925563812256
1761486714931928000,6.293927978515625,-0.10308351367712021,1.200197458267212,-1.7325665950775146
1761486714948756700,6.3107568359375,-0.3344487249851227,1.3477214574813843,-1.4219415187835693
1761486714965610500,6.327610595703125,-0.7909177541732788,1.5180001258850098,-1.1264355182647705
1761486714982404400,6.344404296875,-1.3413074016571045,1.6643023490905762,-0.9181304574012756
1761486714999222500,6.361222412109375,-1.72935950756073,1.6975945234298706,-0.8124507665634155
1761486715016063700,6.378063720703125,-1.7945693731307983,1.5419765710830688,-0.6922630667686462
1761486715032886300,6.39488623046875,-1.5977180004119873,1.176831841468811,-0.3384193480014801
1761486715049679400,6.411679443359375,-1.36955988407135,0.6574437022209167,0.29077184200286865
1761486715066539000,6.4285390625,-1.3519974946975708,0.14935655891895294,1.0613783597946167
1761486715083365600,6.44536572265625,-1.6420058012008667,-0.20234911143779755,1.7096590995788574
1761486715100187400,6.4621875,-2.1087067127227783,-0.2515237629413605,1.965458869934082
1761486715117005300,6.47900537109375,-2.576629638671875,0.05910121276974678,1.8556559085845947
1761486715133831000,6.495830810546875,-2.947577476501465,0.5574145317077637,1.5751160383224487
1761486715150657800,6.51265771484375,-3.1845932006835938,0.9618073105812073,1.34283447265625
1761486715167481300,6.5294814453125,-3.3159291744232178,1.0752755403518677,1.2831224203109741
1761486715184309500,6.5463095703125,-3.394272804260254,0.9879218339920044,1.3976596593856812
1761486715201118700,6.56311865234375,-3.464216709136963,0.8765916228294373,1.534340739250183
1761486715217966800,6.579966796875,-3.488956928253174,0.7985535860061646,1.54945969581604
1761486715234773500,6.5967734375,-3.4909422397613525,0.8539896011352539,1.4382822513580322
1761486715251615200,6.613615234375,-3.4736852645874023,0.9993755221366882,1.2608258724212646
1761486715268435500,6.630435546875,-3.3994650840759277,1.134834885597229,1.0438159704208374
1761486715285272300,6.647272216796875,-3.2423200607299805,1.1676689386367798,0.7929030656814575
1761486715302104800,6.664104736328125,-2.992323398590088,1.0089967250823975,0.5780312418937683
1761486715318937600,6.6809375,-2.716670513153076,0.6516404747962952,0.4369213581085205
1761486715335758800,6.6977587890625,-2.5253169536590576,0.2768746614456177,0.3605632185935974
1761486715352553700,6.7145537109375,-2.39520263671875,-0.02122756652534008,0.2776382565498352
1761486715369395000,6.73139501953125,-2.1897990703582764,-0.3286454975605011,0.12751811742782593
1761486715386239200,6.7482392578125,-1.8614591360092163,-0.8327620625495911,0.016493361443281174
1761486715403064600,6.765064697265625,-1.4237741231918335,-1.5447255373001099,0.006719517521560192
1761486715419891000,6.781890869140625,-1.0025825500488281,-2.1114556789398193,0.02672535367310047
1761486715436696300,6.7986962890625,-0.6351471543312073,-2.281123638153076,-0.07040221989154816
1761486715453548800,6.815548828125,-0.3113885521888733,-2.093282461166382,-0.2791654169559479
1761486715470349800,6.832349853515625,-0.0032070425804704428,-1.8875735998153687,-0.46639561653137207
1761486715487200500,6.849200439453125,0.28619036078453064,-1.9753854274749756,-0.6650795340538025
1761486715504021800,6.866021728515625,0.5290092825889587,-2.247373342514038,-1.0729848146438599
1761486715520849200,6.88284912109375,0.831234872341156,-2.5615108013153076,-1.7438675165176392
1761486715537658600,6.89965869140625,1.2434161901474,-2.7348437309265137,-2.6302330493927
1761486715554507000,6.916507080078125,1.7418822050094604,-2.534785270690918,-3.635106325149536
1761486715571310600,6.933310546875,2.1894936561584473,-2.0920608043670654,-4.3733367919921875
1761486715588170000,6.950169921875,2.4026856422424316,-1.8225164413452148,-4.489096164703369
1761486715604959000,6.966958984375,2.4106268882751465,-1.910786509513855,-4.132656097412109
1761486715621793000,6.98379296875,2.3469443321228027,-2.250427484512329,-3.7780487537384033
1761486715638618400,7.000618408203125,2.2634084224700928,-2.361452341079712,-3.7585010528564453
1761486715655445500,7.017445556640625,2.2072088718414307,-1.9969184398651123,-4.005596160888672
1761486715672275200,7.034275146484375,2.146427869796753,-1.208902359008789,-4.3169846534729
1761486715689098000,7.051097900390625,2.07663631439209,-0.22021691501140594,-4.644103050231934
1761486715705923600,7.067923583984375,1.9536998271942139,0.6117815375328064,-4.929529666900635
1761486715722750700,7.084750732421875,1.7869335412979126,1.050840973854065,-5.088049411773682
1761486715739590100,7.101590087890625,1.6409367322921753,1.1238393783569336,-5.131573677062988
1761486715756403200,7.1184033203125,1.5636622905731201,1.0349584817886353,-5.123785018920898
1761486715773228500,7.135228515625,1.5372424125671387,0.9613491892814636,-5.067432403564453
1761486715790055700,7.1520556640625,1.540907621383667,0.9853256344795227,-4.957171440124512
1761486715806908200,7.168908203125,1.5493069887161255,1.2000447511672974,-4.958698749542236
1761486715823722200,7.18572216796875,1.4940236806869507,1.5838208198547363,-5.130657196044922
1761486715840547300,7.20254736328125,1.3578007221221924,1.9650007486343384,-5.236489772796631
1761486715857341700,7.219341796875,1.129489779472351,2.1818578243255615,-5.120883464813232
1761486715874198300,7.2361982421875,0.8604037165641785,2.3038783073425293,-4.884936809539795
1761486715891029800,7.25302978515625,0.6487388610839844,2.4240660667419434,-4.699233531951904
1761486715907852500,7.2698525390625,0.5244278311729431,2.4805710315704346,-4.521777153015137
1761486715924679400,7.286679443359375,0.48548516631126404,2.4462099075317383,-4.200920104980469
1761486715941500000,7.3035,0.48655417561531067,2.370615243911743,-3.7975964546203613
1761486715958337300,7.320337158203125,0.4827362596988678,2.30051851272583,-3.4342844486236572
1761486715975157800,7.33715771484375,0.48838675022125244,2.277458429336548,-3.2178854942321777
1761486715991980800,7.353980712890625,0.5268712639808655,2.2255349159240723,-3.0613510608673096
1761486716008811500,7.3708115234375,0.5845980644226074,2.032196044921875,-2.7339274883270264
1761486716025637400,7.387637451171875,0.6808093190193176,1.7521142959594727,-2.286774158477783
1761486716042463000,7.404462890625,0.8130616545677185,1.5056301355361938,-1.860390067100525
1761486716059289600,7.42128955078125,0.9379835724830627,1.3715451955795288,-1.5241087675094604
1761486716076115200,7.438115234375,0.9680687189102173,1.2907582521438599,-1.2414308786392212
1761486716092925400,7.454925537109375,0.778853178024292,1.3290899991989136,-1.0021244287490845
1761486716109751800,7.471751708984375,0.3016147017478943,1.4941763877868652,-0.8234463334083557
1761486716126581200,7.488581298828125,-0.23655757308006287,1.7890715599060059,-0.7667886018753052
1761486716143406800,7.50540673828125,-0.631481945514679,2.1349740028381348,-0.8113817572593689
1761486716160233500,7.5222333984375,-0.9352346658706665,2.373058795928955,-0.7958046793937683
1761486716177059000,7.53905908203125,-1.2716686725616455,2.3707680702209473,-0.6727153658866882
1761486716193900300,7.555900390625,-1.7033977508544922,2.230268955230713,-0.5103778839111328
1761486716210711800,7.5727119140625,-2.1595613956451416,2.1125247478485107,-0.34544429183006287
1761486716227538400,7.589538330078125,-2.542879343032837,2.174222230911255,-0.1745547503232956
1761486716244364000,7.606364013671875,-2.7983736991882324,2.3802363872528076,-0.020922135561704636
1761486716261191400,7.62319140625,-2.9630019664764404,2.549140691757202,0.1713477075099945
1761486716278017000,7.64001708984375,-3.0743319988250732,2.5784621238708496,0.43707409501075745
1761486716294847200,7.65684716796875,-3.1416800022125244,2.461786985397339,0.7559457421302795
1761486716311682800,7.673682861328125,-3.1696269512176514,2.2539401054382324,1.0587822198867798
1761486716328510500,7.690510498046875,-3.1749720573425293,1.9993619918823242,1.269836187362671
1761486716345335600,7.70733544921875,-3.197115898132324,1.7886134386062622,1.3504703044891357
1761486716362162200,7.724162109375,-3.21559476852417,1.6797267198562622,1.2848023176193237
1761486716378988300,7.74098828125,-3.1537444591522217,1.6694947481155396,1.0926852226257324
1761486716395815200,7.757815185546875,-3.0074422359466553,1.6644550561904907,0.8510879874229431
1761486716412640800,7.774640869140625,-2.802649736404419,1.602146863937378,0.66584312915802
1761486716429466000,7.791466064453125,-2.5954136848449707,1.4660766124725342,0.5644394755363464
1761486716446295000,7.808294921875,-2.39825701713562,1.2860240936279297,0.5227479338645935
1761486716463120400,7.825120361328125,-2.191478967666626,1.0945178270339966,0.49877145886421204
1761486716479929300,7.841929443359375,-1.9704985618591309,0.8834638595581055,0.475253164768219
1761486716496772900,7.85877294921875,-1.7472273111343384,0.6542366743087769,0.437226802110672
1761486716513594000,7.875593994140625,-1.5180001258850098,0.4583016633987427,0.3712533414363861
1761486716530425000,7.892425048828125,-1.2657127380371094,0.280539870262146,0.2819143235683441
1761486716547217200,7.909217041015625,-0.9552405476570129,0.06750060617923737,0.20295998454093933
1761486716564086000,7.9260859375,-0.575893223285675,-0.20433442294597626,0.15592335164546967
1761486716580886000,7.942885986328125,-0.16142113506793976,-0.5418374538421631,0.1722639948129654
1761486716597716500,7.959716552734375,0.28359419107437134,-0.9259189963340759,0.22067506611347198
1761486716614538500,7.97653857421875,0.7817547917366028,-1.250593900680542,0.23915374279022217
1761486716631369500,7.993369384765625,1.252121090888977,-1.5215126276016235,0.22220222651958466
1761486716648194600,8.010194580078124,1.6410894393920898,-1.8440494537353516,0.15317445993423462
1761486716665021700,8.027021728515624,1.914909839630127,-2.1004600524902344,-0.1440114825963974
1761486716681864700,8.04386474609375,2.143373489379883,-2.158339738845825,-0.6863071322441101
1761486716698665500,8.06066552734375,2.4078781604766846,-1.9419406652450562,-1.2049317359924316
1761486716715499500,8.07749951171875,2.6222918033599854,-1.5471689701080322,-1.5004377365112305
1761486716732327000,8.094326904296874,2.6227500438690186,-1.1997393369674683,-1.5096007585525513
1761486716749152300,8.11115234375,2.380847215652466,-1.0885618925094604,-1.313360333442688
1761486716765976600,8.1279765625,2.0500638484954834,-1.1450668573379517,-1.1520918607711792
1761486716782807000,8.14480712890625,1.8261816501617432,-1.2142473459243774,-1.1513283252716064
1761486716799649500,8.1616494140625,1.7550158500671387,-1.1523972749710083,-1.284038782119751
1761486716816471000,8.178470947265625,1.7511979341506958,-0.9207266569137573,-1.4653129577636719
1761486716833298000,8.1952978515625,1.6872098445892334,-0.6189591884613037,-1.585500717163086
1761486716850123800,8.212123779296874,1.5332717895507812,-0.3396410644054413,-1.6342172622680664
1761486716866956800,8.228956787109375,1.2860240936279297,-0.11071932315826416,-1.6904168128967285
1761486716883780400,8.2457802734375,1.0033462047576904,0.12965615093708038,-1.8475619554519653
1761486716900597200,8.26259716796875,0.8275696635246277,0.3975205719470978,-2.124131202697754
1761486716917440300,8.279440185546875,0.7687739133834839,0.6559165716171265,-2.3846652507781982
1761486716934233600,8.296233642578125,0.735634446144104,0.8880453705787659,-2.450791358947754
1761486716951064800,8.31306494140625,0.7076873779296875,0.9958630800247192,-2.2846360206604004
1761486716967908000,8.329908203125,0.6446155309677124,0.9104946255683899,-1.9807305335998535
1761486716984730600,8.346730712890626,0.49327367544174194,0.7945829629898071,-1.6514742374420166
1761486717001564000,8.36356396484375,0.29657506942749023,0.7388415336608887,-1.3926200866699219
1761486717018365700,8.38036572265625,0.11209376901388168,0.7929030656814575,-1.1861475706100464
1761486717035217200,8.397217041015624,0.00366519158706069,0.9868528246879578,-1.0296133756637573
1761486717052038700,8.41403857421875,-0.05207626149058342,1.166752576828003,-0.935081958770752
1761486717068849000,8.430848876953124,-0.08689557760953903,1.2950342893600464,-0.8468119502067566
1761486717085677800,8.447677734375,-0.07666359096765518,1.342529058456421,-0.7110471725463867
1761486717102504700,8.464504638671874,-0.10522153973579407,1.3329079151153564,-0.5145012736320496
1761486717119327500,8.481327392578125,-0.1417207419872284,1.2435688972473145,-0.25106561183929443
1761486717136160000,8.498159912109376,-0.15775595605373383,1.0346530675888062,-0.020005837082862854
1761486717152982800,8.514982666015625,-0.17318029701709747,0.8405506014823914,0.0959058403968811
1761486717169826800,8.531826904296874,-0.1745547503232956,0.7677049040794373,0.09926560521125793
1761486717186631700,8.548631591796875,-0.21502456068992615,0.8141306638717651,0.08735372871160507
1761486717203459300,8.565459228515625,-0.3727805018424988,0.8918632864952087,0.06123924255371094
1761486717220291000,8.582291015625,-0.4915938079357147,1.0190759897232056,-0.00809396430850029
1761486717237114600,8.599114501953125,-0.5746715068817139,1.0123564004898071,-0.06276640295982361
1761486717253940000,8.61593994140625,-0.5329799056053162,1.238223910331726,0.09010262042284012
1761486717270767400,8.632767333984376,-0.41630467772483826,1.6117680072784424,0.4784601926803589
1761486717287610400,8.6496103515625,-0.4943426847457886,1.9792033433914185,0.9935722947120667
1761486717304433400,8.666433349609376,-0.6637051105499268,2.123825788497925,1.553277611732483
1761486717321227800,8.683227783203124,-0.8086328506469727,2.015397071838379,1.983632206916809
1761486717338104300,8.700104248046875,-0.8984300494194031,1.8432859182357788,2.129781723022461
1761486717354915600,8.71691552734375,-0.7770205736160278,1.688736915588379,2.0761783123016357
1761486717371711200,8.733711181640626,-0.5073235630989075,1.5448782444000244,1.8600846529006958
1761486717388552200,8.75055224609375,-0.12064588814973831,1.6893478631973267,1.6992744207382202
1761486717405391600,8.7673916015625,0.18631389737129211,1.2524265050888062,1.4450017213821411
1761486717422212600,8.784212646484375,0.3156646192073822,0.9425650835037231,1.4613423347473145
1761486717439047200,8.801047119140625,0.23197607696056366,0.5571091175079346,1.608102798461914
1761486717455864800,8.81786474609375,-0.05054909735918045,0.3191770911216736,1.7638733386993408
1761486717472700400,8.834700439453124,-0.4331034719944,0.15302173793315887,1.892460584640503
1761486717489521700,8.851521728515625,-0.7663304209709167,0.16035212576389313,1.9937114715576172
1761486717506348500,8.8683486328125,-0.9763153791427612,0.24190263450145721,1.9872974157333374
1761486717523171300,8.88517138671875,-1.053742527961731,0.3530801236629486,1.8440494537353516
1761486717540004400,8.90200439453125,-0.9891435503959656,0.34895676374435425,1.5697709321975708
1761486717556809700,8.918809814453125,-0.8662069439888,0.437226802110672,1.2470813989639282
1761486717573640000,8.935639892578125,-0.8998045325279236,0.7506006956100464,0.8402451276779175
1761486717590465300,8.95246533203125,-1.0577131509780884,1.0768027305603027,0.3877467215061188
1761486717607277800,8.96927783203125,-1.1636983156204224,1.1882855892181396,0.07864890247583389
1761486717624115200,8.986115234375,-1.1397218704223633,1.4989105463027954,-0.031612277030944824
1761486717640947700,9.00294775390625,-0.8420777320861816,1.9547687768936157,-0.05161811411380768
1761486717657787600,9.01978759765625,-0.3413209617137909,2.174985647201538,0.011453723534941673
1761486717674594300,9.03659423828125,0.11560624837875366,1.3706289529800415,0.9500481486320496
1761486717691423200,9.05342333984375,0.33887749910354614,0.37171149253845215,1.3246612548828125
1761486717708249900,9.070249755859376,0.26022860407829285,0.2557998299598694,0.9508117437362671
1761486717725075200,9.0870751953125,0.21242839097976685,0.5259549617767334,0.5132794976234436
