time,seconds_elapsed,z,y,x
1761417542889555000,0.136554931640625,-0.12522737681865692,0.2076941877603531,0.23915374279022217
1761417542909997800,0.156997802734375,-0.2171625941991806,-0.044287730008363724,0.05665775015950203
1761417542926777000,0.173777099609375,-0.22128593921661377,-0.5161811113357544,-0.24098633229732513
1761417542943610400,0.1906103515625,-0.17272214591503143,-1.041067123413086,-0.41951170563697815
1761417542960441300,0.20744140625,-0.09178250283002853,-1.3103059530258179,-0.3381139039993286
1761417542977265700,0.224265625,0.005039638374000788,-1.0450377464294434,0.038026362657547
1761417542994090800,0.2410908203125,0.1420261710882187,-0.4346306324005127,0.5016731023788452
1761417543010914300,0.257914306640625,0.48517972230911255,0.5013676285743713,0.8319984674453735
1761417543027726800,0.274726806640625,0.9888381361961365,0.6363688707351685,0.9056077003479004
1761417543044576300,0.291576171875,1.4146112203598022,0.6302602291107178,0.942259669303894
1761417543061406500,0.308406494140625,1.6586518287658691,-0.044135015457868576,0.8460483551025391
1761417543078226200,0.32522607421875,1.6180293560028076,-1.2147055864334106,0.5256495475769043
1761417543095031600,0.342031494140625,1.1910345554351807,-2.121229648590088,0.3381139039993286
1761417543111864300,0.3588642578125,0.6546948552131653,-2.42834210395813,0.28038713335990906
1761417543128684500,0.3756845703125,0.5177083015441895,-2.1426098346710205,0.3790418803691864
1761417543145512400,0.392512451171875,0.9761626720428467,-2.576629638671875,0.2747366428375244
1761417543162335700,0.409335693359375,1.3298536539077759,-3.2123875617980957,-0.015882495790719986
1761417543179159300,0.4261591796875,1.559233546257019,-2.69345760345459,-0.09804387390613556
1761417543196002000,0.443001953125,1.744478464126587,-2.099238395690918,-0.10812314599752426
1761417543212825900,0.459825927734375,1.7889188528060913,-1.6032158136367798,-0.3006984293460846
1761417543229644300,0.476644287109375,1.6574301719665527,-1.0757336616516113,-0.5615378618240356
1761417543246474500,0.493474609375,1.4966198205947876,-1.1352930068969727,-0.6644686460494995
1761417543263296800,0.510296875,1.5570955276489258,-1.7802140712738037,-0.5890268087387085
1761417543280120300,0.527120361328125,1.6919440031051636,-2.275473117828369,-0.4129449129104614
1761417543296931600,0.543931640625,1.761888027191162,-2.4973697662353516,-0.2987131178379059
1761417543313766400,0.560766357421875,1.6059647798538208,-2.7013988494873047,-0.31291571259498596
1761417543330605300,0.577605224609375,1.4152220487594604,-2.4802656173706055,-0.1794416606426239
1761417543347418000,0.594418212890625,1.2915217876434326,-2.1204659938812256,0.041233405470848083
1761417543364236300,0.611236328125,1.0404561758041382,-2.1282544136047363,0.10476338863372803
1761417543381058000,0.62805810546875,0.7327328324317932,-2.2653937339782715,-0.04184427112340927
1761417543397880300,0.64488037109375,0.9300423264503479,-2.348013401031494,-0.4132503271102905
1761417543414693600,0.661693603515625,1.41690194606781,-2.286010503768921,-0.9847147464752197
1761417543431533000,0.678532958984375,1.8037323951721191,-1.962251901626587,-1.4943290948867798
1761417543448351500,0.6953515625,1.8664987087249756,-1.5919147729873657,-1.7531832456588745
1761417543465166800,0.712166748046875,1.60627019405365,-1.256244421005249,-1.7490599155426025
1761417543482002700,0.729002685546875,1.2811371088027954,-1.0096075534820557,-1.6733126640319824
1761417543498824000,0.745823974609375,1.216843605041504,-0.926835298538208,-1.7395914793014526
1761417543515666700,0.762666748046875,1.235474944114685,-0.869719386100769,-1.821447491645813
1761417543532488700,0.77948876953125,1.2577714920043945,-0.7365507483482361,-1.793500304222107
1761417543549282800,0.79628271484375,1.2370021343231201,-0.6782131195068359,-1.5774067640304565
1761417543566137600,0.8131376953125,1.2012665271759033,-0.630871057510376,-1.214400053024292
1761417543582945300,0.8299453125,1.1969904899597168,-0.6487388610839844,-0.8920159935951233
1761417543599758800,0.8467587890625,1.2206615209579468,-0.5329799056053162,-0.6380487680435181
1761417543616596500,0.863596435546875,1.1039862632751465,-0.44547349214553833,-0.5149593949317932
1761417543633422000,0.880422119140625,1.0781772136688232,-0.3116939961910248,-0.43478333950042725
1761417543650245400,0.897245361328125,1.018923282623291,-0.1693623960018158,-0.33735033869743347
1761417543667071200,0.9140712890625,0.9773843884468079,-0.01618792861700058,-0.25992316007614136
1761417543683911700,0.93091162109375,0.9483683109283447,0.1033889427781105,-0.1918116807937622
1761417543700733700,0.947733642578125,0.8727737069129944,0.20097467303276062,-0.12217304855585098
1761417543717557500,0.9645576171875,0.7437284588813782,0.21242839097976685,-0.052228979766368866
1761417543734368300,0.9813681640625,0.5824599862098694,0.11163562536239624,0.007788531947880983
1761417543751203800,0.998203857421875,0.43386703729629517,-0.06520986557006836,0.02076941914856434
1761417543768015400,1.015015380859375,0.2822197377681732,-0.24373523890972137,0.012217304669320583
1761417543784851000,1.031850830078125,0.1768454909324646,-0.3013092875480652,-0.0012217304902151227
1761417543801669600,1.048669677734375,0.10384709388017654,-0.290313720703125,-0.04214970022439957
1761417543818500600,1.06550048828125,0.058337632566690445,-0.12919799983501434,-0.11545353382825851
1761417543835332000,1.08233203125,0.006719517521560192,0.16462817788124084,-0.19303341209888458
1761417543852138500,1.099138427734375,-0.07987063378095627,0.3286454975605011,-0.2935207486152649
1761417543868979200,1.115979248046875,-0.19425514340400696,0.17852537333965302,-0.4586070775985718
1761417543885804300,1.13280419921875,-0.1108720451593399,0.029626963660120964,-0.5340489149093628
1761417543902608100,1.149608154296875,0.1313360333442688,0.10567969083786011,-0.2721404731273651
1761417543919437600,1.1664375,0.29107728600502014,0.39797869324684143,0.18509216606616974
1761417543936263200,1.18326318359375,0.3523165285587311,0.7336491346359253,0.6351471543312073
1761417543953073400,1.200073486328125,0.15836681425571442,0.6514877676963806,0.9592111706733704
1761417543969912000,1.216912109375,-0.10216721147298813,0.2174680233001709,1.206153392791748
1761417543986735600,1.233735595703125,-0.2756529450416565,-0.37339138984680176,1.4848606586456299
1761417544003578000,1.250578125,-0.39935314655303955,-0.7962628602981567,1.8251125812530518
1761417544020398600,1.267398681640625,-0.5265658497810364,-0.9750936627388,2.121229648590088
1761417544037198800,1.28419873046875,-0.6633996367454529,-0.8562803864479065,2.2876904010772705
1761417544054045200,1.301045166015625,-0.8610145449638367,-0.5157229900360107,2.3215932846069336
1761417544070871800,1.317871826171875,-1.0868819952011108,-0.17409659922122955,2.2382102012634277
1761417544087682600,1.3346826171875,-1.2945761680603027,0.04948008432984352,2.0984747409820557
1761417544104508000,1.3515078125,-1.4758504629135132,0.17440202832221985,1.9929478168487549
1761417544121331500,1.36833154296875,-1.605048418045044,0.28069257736206055,1.9732474088668823
1761417544138157300,1.3851572265625,-1.6319265365600586,0.39324450492858887,2.01509165763855
1761417544154980600,1.401980712890625,-1.5526667833328247,0.5064072608947754,2.0978639125823975
1761417544171805400,1.418805419921875,-1.4436272382736206,0.5050328373908997,2.191784381866455
1761417544188648000,1.43564794921875,-1.3742940425872803,0.39614611864089966,2.2908973693847656
1761417544205469000,1.452468994140625,-1.3674218654632568,0.2513710558414459,2.36206316947937
1761417544222292000,1.4692919921875,-1.3881912231445312,0.15363261103630066,2.3458752632141113
1761417544239118000,1.4861181640625,-1.412473201751709,0.13515393435955048,2.224923849105835
1761417544255949000,1.502948974609375,-1.4065172672271729,0.166460782289505,2.027003526687622
1761417544272763000,1.519762939453125,-1.355051875114441,0.18799377977848053,1.7942639589309692
1761417544289577200,1.5365771484375,-1.2844969034194946,0.2382374405860901,1.5616769790649414
1761417544306412800,1.553412841796875,-1.19912850856781,0.3197879493236542,1.333060622215271
1761417544323216000,1.5702158203125,-1.0917688608169556,0.34437528252601624,1.1091785430908203
1761417544340064800,1.587064697265625,-0.9697485566139221,0.2704605758190155,0.9071348905563354
1761417544356890000,1.60389013671875,-0.8301658630371094,0.1586722433567047,0.7008151412010193
1761417544373697000,1.620697021484375,-0.6765332818031311,0.04764748737215996,0.4538728892803192
1761417544390524400,1.6375244140625,-0.504574716091156,0.0039706239476799965,0.14874568581581116
1761417544407345700,1.654345703125,-0.3124575614929199,0,-0.18280142545700073
1761417544424172500,1.671172607421875,-0.12828169763088226,0.03878994286060333,-0.42042800784111023
1761417544440998100,1.687998046875,0.04657847434282303,0.06352998316287994,-0.5251913666725159
1761417544457821700,1.70482177734375,0.2194533348083496,-0.11178833991289139,-0.5887213945388794
1761417544474647300,1.721647216796875,0.36010506749153137,-0.4178318381309509,-0.7860308289527893
1761417544491488000,1.738488037109375,0.46273043751716614,-0.5612324476242065,-1.1394164562225342
1761417544508286500,1.755286376953125,0.6172793507575989,-0.38179078698158264,-1.4410310983657837
1761417544525133600,1.772133544921875,0.8529205918312073,-0.18768835067749023,-1.5386168956756592
1761417544541950500,1.788950439453125,1.1071932315826416,-0.1537853181362152,-1.440267562866211
1761417544558772500,1.8057724609375,1.2994630336761475,-0.2971859276294708,-1.183704137802124
1761417544575592700,1.8225927734375,1.3724614381790161,-0.6142250299453735,-0.8069530129432678
1761417544592417500,1.83941748046875,1.399950385093689,-0.9914342761039734,-0.47189339995384216
1761417544609243100,1.8562431640625,1.420719861984253,-1.1630873680114746,-0.37629300355911255
1761417544626066400,1.87306640625,1.4120149612426758,-1.0494664907455444,-0.5102251768112183
1761417544642892300,1.889892333984375,1.334587812423706,-0.7428121566772461,-0.7359399199485779
1761417544659715300,1.90671533203125,1.1840095520019531,-0.3862195611000061,-1.000749945640564
1761417544676558300,1.923558349609375,1.0323622226715088,-0.08811730891466141,-1.2994630336761475
1761417544693383400,1.940383544921875,0.9375254511833191,0.1290452778339386,-1.5894713401794434
1761417544710203600,1.95720361328125,0.942259669303894,0.2474004179239273,-1.8037323951721191
1761417544727027500,1.97402734375,1.0201449394226074,0.27320948243141174,-1.9097174406051636
1761417544743861200,1.990861328125,1.1368201971054077,0.2347249686717987,-1.9405661821365356
1761417544760667600,2.007667724609375,1.2244794368743896,0.12446379661560059,-1.8978055715560913
1761417544777502200,2.024502197265625,1.2450960874557495,-0.05054909735918045,-1.764026165008545
1761417544794321700,2.04132177734375,1.2263119220733643,-0.21594086289405823,-1.6061174869537354
1761417544811134000,2.058134033203125,1.17240309715271,-0.30741792917251587,-1.5082262754440308
1761417544827957500,2.07495751953125,1.1323914527893066,-0.31749722361564636,-1.4697418212890625
1761417544844784400,2.091784423828125,1.1104003190994263,-0.2597704529762268,-1.4396566152572632
1761417544861627100,2.108627197265625,1.1191051006317139,-0.21334469318389893,-1.4034628868103027
1761417544878440400,2.1254404296875,1.1128437519073486,-0.22510384023189545,-1.3183999061584473
1761417544895255300,2.14225537109375,1.0705413818359375,-0.23869559168815613,-1.1730140447616577
1761417544912087300,2.15908740234375,0.988990843296051,-0.24083362519741058,-0.9957103729248047
1761417544928904400,2.175904541015625,0.8924741148948669,-0.22846360504627228,-0.8168795704841614
1761417544945720300,2.19272021484375,0.8159632682800293,-0.19532416760921478,-0.6808093190193176
1761417544962543900,2.2095439453125,0.7657195925712585,-0.1618792861700058,-0.603687584400177
1761417544979379500,2.22637939453125,0.7324274182319641,-0.12293662875890732,-0.579405665397644
1761417544996193300,2.243193359375,0.7116580009460449,0.018325956538319588,-0.5703954100608826
1761417545013009000,2.2600087890625,0.6389650702476501,0.23258693516254425,-0.5354233980178833
1761417545029842000,2.276842041015625,0.4735732674598694,0.2782491147518158,-0.5056437253952026
1761417545046667800,2.293667724609375,0.2646573781967163,0.15882496535778046,-0.5954409241676331
1761417545063491000,2.310490966796875,0.08460483700037003,0.20326541364192963,-0.7309002876281738
1761417545080332000,2.32733203125,-0.1560760736465454,0.4109596014022827,-0.6827946305274963
1761417545097139700,2.3441396484375,-0.4482223689556122,0.7192938327789307,-0.4807509481906891
1761417545113978000,2.36097802734375,-0.7380779385566711,0.9920451641082764,-0.24434609711170197
1761417545130801400,2.377801513671875,-0.9185886383056641,1.0180069208145142,-0.042760565876960754
1761417545147627000,2.394626953125,-0.8833111524581909,0.6922630667686462,0.20066922903060913
1761417545164450300,2.4114501953125,-0.6766859889030457,0.18280142545700073,0.593302845954895
1761417545181293000,2.42829296875,-0.43539419770240784,-0.2938261926174164,1.1296426057815552
1761417545198113800,2.44511376953125,-0.25213462114334106,-0.6432411074638367,1.6924021244049072
1761417545214939000,2.46193896484375,-0.15775595605373383,-0.8316930532455444,2.161088466644287
1761417545231758300,2.47875830078125,-0.11514809727668762,-0.9071348905563354,2.483930826187134
1761417545248591600,2.495591552734375,-0.10048733651638031,-0.8839219808578491,2.6989552974700928
1761417545265394700,2.512394775390625,-0.10308351367712021,-0.7809911966323853,2.867706775665283
1761417545282232600,2.529232666015625,-0.13500121235847473,-0.6769914031028748,3.026379108428955
1761417545299047700,2.546047607421875,-0.21868975460529327,-0.6168211698532104,3.1810808181762695
1761417545315885800,2.5628857421875,-0.3500257730484009,-0.6238461136817932,3.2792773246765137
1761417545332705300,2.579705322265625,-0.5085453391075134,-0.6688974499702454,3.2927165031433105
1761417545349538800,2.596538818359375,-0.6910412907600403,-0.7105889916419983,3.1920764446258545
1761417545366341000,2.613341064453125,-0.917061448097229,-0.6922630667686462,2.970026731491089
1761417545383167000,2.6301669921875,-1.177748203277588,-0.5729916095733643,2.65726375579834
1761417545399996400,2.646996337890625,-1.4095715284347534,-0.37308594584465027,2.2794437408447266
1761417545416819200,2.663819091796875,-1.5752687454223633,-0.13301590085029602,1.926210880279541
1761417545433642500,2.680642578125,-1.6644550561904907,0.09300423413515091,1.6417003870010376
1761417545450458600,2.697458740234375,-1.6840027570724487,0.2664899528026581,1.4051427841186523
1761417545467304400,2.714304443359375,-1.642922043800354,0.34834590554237366,1.207375168800354
1761417545484134700,2.731134765625,-1.5790866613388062,0.32681289315223694,1.0465649366378784
1761417545500954400,2.747954345703125,-1.5036448240280151,0.2428189367055893,0.9056077003479004
1761417545517780200,2.7647802734375,-1.4132367372512817,0.10995574295520782,0.7699956297874451
1761417545534598700,2.7815986328125,-1.2889256477355957,-0.04260785132646561,0.6490443348884583
1761417545551416000,2.798416015625,-1.1145236492156982,-0.15073099732398987,0.5609270334243774
1761417545568238300,2.81523828125,-0.9334021210670471,-0.13530665636062622,0.5067127346992493
1761417545585046300,2.83204638671875,-0.7855727076530457,-0.03878994286060333,0.4508185386657715
1761417545601892400,2.848892333984375,-0.6493497490882874,-0.12324206531047821,0.2730567753314972
1761417545618700000,2.865699951171875,-0.5885686874389648,-0.3245221674442291,-0.13118331134319305
1761417545635536600,2.88253662109375,-0.6122397184371948,-0.2246456891298294,-0.7104362845420837
1761417545652379000,2.89937890625,-0.5676465034484863,0.2606867551803589,-1.270447015762329
1761417545669182500,2.916182373046875,-0.3692680299282074,0.7680103182792664,-1.5566374063491821
1761417545686024000,2.93302392578125,-0.05100724846124649,0.8761335015296936,-1.455997347831726
1761417545702849000,2.94984912109375,0.25564709305763245,0.47448956966400146,-1.0780243873596191
1761417545719660500,2.96666064453125,0.4434881806373596,-0.0910189226269722,-0.6397286057472229
1761417545736503000,2.9835029296875,0.58062744140625,-0.5658139586448669,-0.3413209617137909
1761417545753318400,3.000318359375,0.6753115057945251,-0.8336783647537231,-0.27229318022727966
1761417545770139400,3.017139404296875,0.6881396770477295,-0.6803511381149292,-0.38011088967323303
1761417545786968600,3.033968505859375,0.7020368576049805,-0.23289237916469574,-0.6235406994819641
1761417545803797800,3.0507978515625,0.70692378282547,0.15424346923828125,-0.9010262489318848
1761417545820617700,3.06761767578125,0.7185302376747131,0.32039880752563477,-1.11085844039917
1761417545837447200,3.084447265625,0.7562511563301086,0.28420504927635193,-1.2721269130706787
1761417545854241500,3.101241455078125,0.850782573223114,0.13041973114013672,-1.3868168592453003
1761417545871079200,3.1180791015625,0.9976956844329834,-0.06322455406188965,-1.4072808027267456
1761417545887904800,3.13490478515625,1.1537717580795288,-0.24694228172302246,-1.305266261100769
1761417545904720000,3.151719970703125,1.267698049545288,-0.37048977613449097,-1.0948232412338257
1761417545921554700,3.1685546875,1.3179417848587036,-0.40775254368782043,-0.841008722782135
1761417545938376700,3.185376708984375,1.3371840715408325,-0.3446807265281677,-0.6301075220108032
1761417545955209200,3.202209228515625,1.3437508344650269,-0.22617286443710327,-0.5230533480644226
1761417545972021000,3.21902099609375,1.3715451955795288,-0.1290452778339386,-0.5294674634933472
1761417545988865500,3.235865478515625,1.4080443382263184,-0.08750644326210022,-0.5948300361633301
1761417546005707800,3.252707763671875,1.410946011543274,-0.09239336848258972,-0.6485861539840698
1761417546022514400,3.269514404296875,1.3811663389205933,-0.12202033400535583,-0.6745479702949524
1761417546039335000,3.2863349609375,1.3129020929336548,-0.12370020896196365,-0.6841690540313721
1761417546056149800,3.303149658203125,1.2281445264816284,-0.08048149943351746,-0.7238753437995911
1761417546072970000,3.319969970703125,1.1627819538116455,0.04199698567390442,-0.8185594081878662
1761417546089802000,3.336802001953125,1.1158981323242188,0.16035212576389313,-0.9098837971687317
1761417546106612200,3.3536123046875,1.0751228332519531,0.16554448008537292,-0.9275988936424255
1761417546123438000,3.37043798828125,1.0325149297714233,0.07406741380691528,-0.8749117255210876
1761417546140261600,3.38726171875,0.9787588119506836,-0.02672535367310047,-0.7887797355651855
1761417546157084000,3.404083984375,0.8758280277252197,-0.08659014850854874,-0.7067710757255554
1761417546173938000,3.42093798828125,0.6910412907600403,-0.0910189226269722,-0.6488916277885437
1761417546190743000,3.437742919921875,0.5180137157440186,-0.21105393767356873,-0.7307475209236145
1761417546207553000,3.454552978515625,0.4992296099662781,-0.22128593921661377,-0.8077165484428406
1761417546224408600,3.47140869140625,0.6166684627532959,-0.055283304303884506,-0.622624397277832
1761417546241235500,3.4882353515625,0.5745187401771545,0.13545936346054077,-0.18112154304981232
1761417546258052900,3.505052978515625,0.27091872692108154,0.2298380434513092,0.2347249686717987
1761417546274881300,3.52188134765625,-0.16233743727207184,0.11102475970983505,0.3933972120285034
1761417546291710500,3.53871044921875,-0.4879286289215088,-0.11667526513338089,0.31551191210746765
1761417546308530000,3.555530029296875,-0.608727216720581,-0.2200642079114914,0.27840182185173035
1761417546325355500,3.57235546875,-0.6401867866516113,-0.24572055041790009,0.4535674452781677
1761417546342159400,3.589159423828125,-0.675616979598999,-0.2704605758190155,0.7637342810630798
1761417546358993000,3.605992919921875,-0.7761042714118958,-0.2779437005519867,1.1134545803070068
1761417546375814000,3.62281396484375,-0.944855809211731,-0.2710714638233185,1.4013248682022095
1761417546392642000,3.63964208984375,-1.1105530261993408,-0.2301434874534607,1.5563318729400635
1761417546409457400,3.65645751953125,-1.2548699378967285,-0.14767667651176453,1.5838208198547363
1761417546426278100,3.673278076171875,-1.4101824760437012,-0.009010262787342072,1.560760736465454
1761417546443111700,3.690111572265625,-1.5810719728469849,0.15363261103630066,1.546558141708374
1761417546459941000,3.706941162109375,-1.7348573207855225,0.26832255721092224,1.5676329135894775
1761417546476755500,3.72375537109375,-1.8463401794433594,0.3170390725135803,1.6229162216186523
1761417546493573600,3.74057373046875,-1.9022343158721924,0.3352122902870178,1.671938180923462
1761417546510397400,3.7573974609375,-1.906663179397583,0.3523165285587311,1.6853772401809692
1761417546527223600,3.7742236328125,-1.8800904750823975,0.34284812211990356,1.6806429624557495
1761417546544046600,3.791046630859375,-1.8318321704864502,0.2921462953090668,1.6717854738235474
1761417546560872400,3.80787255859375,-1.7666223049163818,0.21181751787662506,1.6502524614334106
1761417546577695700,3.82469580078125,-1.700037956237793,0.15622878074645996,1.6018413305282593
1761417546594521300,3.841521240234375,-1.6201673746109009,0.13927727937698364,1.5057828426361084
1761417546611344000,3.85834375,-1.5263994932174683,0.14508049190044403,1.3747522830963135
1761417546628172800,3.8751728515625,-1.4228578805923462,0.14645494520664215,1.2454015016555786
1761417546644994000,3.891994140625,-1.3153456449508667,0.10583240538835526,1.1482739448547363
1761417546661820000,3.90881982421875,-1.2021827697753906,0.015882495790719986,1.0752755403518677
1761417546678641700,3.9256416015625,-1.104138970375061,-0.07590000331401825,0.9815077185630798
1761417546695483600,3.942483642578125,-1.0366383790969849,-0.05451972410082817,0.8593347072601318
1761417546712315600,3.959315673828125,-0.9717338681221008,0.03405573591589928,0.6543893814086914
1761417546729118500,3.976118408203125,-0.8781188130378723,0.1495092660188675,0.34544429183006287
1761417546745950000,3.992949951171875,-0.7370089292526245,0.28069257736206055,-0.032070424407720566
1761417546762779600,4.009779541015625,-0.5093088746070862,0.27641651034355164,-0.3446807265281677
1761417546779603200,4.026603271484375,-0.27229318022727966,0.02275473065674305,-0.5545129179954529
1761417546796466700,4.043466796875,-0.11041389405727386,-0.19593502581119537,-0.8006916046142578
1761417546813265000,4.060264892578125,0.06185010448098183,-0.1748601794242859,-1.1270463466644287
1761417546830072800,4.07707275390625,0.3202461004257202,0.048258353024721146,-1.3910928964614868
1761417546846899500,4.0938994140625,0.6023131608963013,0.20051652193069458,-1.4075862169265747
1761417546863725300,4.110725341796875,0.801913321018219,0.09040805697441101,-1.2122620344161987
1761417546880548600,4.127548583984375,0.875064492225647,-0.27061331272125244,-0.9749409556388855
1761417546897374200,4.144374267578125,0.8736900091171265,-0.6380487680435181,-0.8202393054962158
1761417546914185500,4.161185546875,0.8956811428070068,-0.8852964639663696,-0.7840455174446106
1761417546931036400,4.178036376953125,0.9822713136672974,-0.8393288254737854,-0.8909469842910767
1761417546947864300,4.1948642578125,1.0690141916275024,-0.4657847583293915,-1.1056660413742065
1761417546964681500,4.211681396484375,1.1064296960830688,-0.02428189292550087,-1.3359622955322266
1761417546981514000,4.228513916015625,1.0749701261520386,0.22586742043495178,-1.4792101383209229
1761417546998335000,4.2453349609375,1.0181596279144287,0.26083946228027344,-1.5080735683441162
1761417547015158500,4.262158447265625,1.0044151544570923,0.19853121042251587,-1.4984524250030518
1761417547031966500,4.278966552734375,1.0603092908859253,0.11621711403131485,-1.504713773727417
1761417547048793300,4.29579345703125,1.183398723602295,0.017409659922122955,-1.514182209968567
1761417547065619000,4.312618896484375,1.3487904071807861,-0.12522737681865692,-1.480737328529358
1761417547082442500,4.3294423828125,1.5149458646774292,-0.29825496673583984,-1.3716979026794434
1761417547099268000,4.34626806640625,1.6365079879760742,-0.4732678532600403,-1.2006556987762451
1761417547116078300,4.363078369140625,1.7238616943359375,-0.5914703011512756,-1.0502300262451172
1761417547132929800,4.3799296875,1.8096883296966553,-0.6348416805267334,-0.9729556441307068
1761417547149756000,4.396755859375,1.8839083909988403,-0.6395758986473083,-0.9482156038284302
1761417547166584600,4.41358447265625,1.927890658378601,-0.6233879923820496,-0.9752463698387146
1761417547183415300,4.430415283203125,1.9271271228790283,-0.6070473194122314,-1.0299187898635864
1761417547200220200,4.44722021484375,1.8616118431091309,-0.5564982295036316,-1.0674870014190674
1761417547217057800,4.464057861328125,1.736537218093872,-0.43905940651893616,-1.0809260606765747
1761417547233876000,4.4808759765625,1.5767959356307983,-0.26542094349861145,-1.067639708518982
1761417547250701000,4.497701171875,1.439351201057434,-0.09605856239795685,-1.0361801385879517
1761417547267526700,4.514526611328125,1.3103059530258179,0.015577063895761967,-0.997848391532898
1761417547284349700,4.531349609375,1.1823296546936035,0.0910189226269722,-0.9712757468223572
1761417547301157000,4.5481572265625,1.0186177492141724,0.15073099732398987,-0.9764680862426758
1761417547317986000,4.564986083984375,0.8083274364471436,0.23075434565544128,-1.0167851448059082
1761417547334810600,4.581810546875,0.5734497308731079,0.2477058619260788,-1.1062769889831543
1761417547351634000,4.598634033203125,0.39965859055519104,0.18295414745807648,-1.2081387042999268
1761417547368449300,4.61544921875,0.3712533414363861,0.28069257736206055,-1.1520918607711792
1761417547385283600,4.63228369140625,0.41172316670417786,0.5119050741195679,-0.8713992834091187
1761417547402108700,4.649108642578125,0.3039054572582245,0.7206682562828064,-0.5187773108482361
1761417547418934000,4.66593408203125,0.0009162978967651725,0.8118399381637573,-0.29046642780303955
1761417547435771400,4.682771484375,-0.3220787048339844,0.8274169564247131,-0.2076941877603531
1761417547452594700,4.6995947265625,-0.5300782918930054,0.7432702779769897,-0.17608191072940826
1761417547469422800,4.7164228515625,-0.6065891981124878,0.6210972666740417,-0.02535090781748295
1761417547486237200,4.7332373046875,-0.6270532011985779,0.4505131244659424,0.308792382478714
1761417547503073500,4.750073486328125,-0.7014260292053223,0.21823160350322723,0.761443555355072
1761417547519875600,4.76687548828125,-0.8869763612747192,-0.007177666760981083,1.2049317359924316
1761417547545115600,4.79211572265625,-1.3571898937225342,-0.024129176512360573,1.5595389604568481
1761417547561941500,4.80894140625,-1.7261524200439453,0.2347249686717987,1.4830280542373657
1761417547578764800,4.825764892578125,-2.060142993927002,0.6244570016860962,1.240820050239563
1761417547595571000,4.842571044921875,-2.3150265216827393,0.974177360534668,1.025948166847229
1761417547612415200,4.859415283203125,-2.479043960571289,1.1617130041122437,0.9807441234588623
1761417547629277000,4.87627685546875,-2.570826292037964,1.2105822563171387,1.0862711668014526
1761417547646076400,4.893076416015625,-2.5891523361206055,1.2128729820251465,1.257924199104309
1761417547662896600,4.909896728515625,-2.5329527854919434,1.2035572528839111,1.4048373699188232
1761417547679729200,4.926729248046875,-2.436741352081299,1.1997393369674683,1.4741705656051636
1761417547696551400,4.943551513671875,-2.327854633331299,1.2185235023498535,1.4631749391555786
1761417547713373700,4.960373779296875,-2.2208006381988525,1.2524265050888062,1.3935363292694092
1761417547730196500,4.977196533203125,-2.1125247478485107,1.3168727159500122,1.2773191928863525
1761417547747017700,4.994017822265625,-1.9866864681243896,1.4143058061599731,1.1607966423034668
1761417547763832300,5.010832275390625,-1.8654297590255737,1.4921910762786865,1.069472312927246
1761417547780673500,5.027673583984375,-1.757153868675232,1.5170838832855225,0.9870055317878723
1761417547797476600,5.0444765625,-1.6180293560028076,1.4613423347473145,0.8936958312988281
1761417547814309000,5.06130908203125,-1.450346827507019,1.3417655229568481,0.7997753024101257
1761417547831138600,5.078138671875,-1.2780828475952148,1.1636983156204224,0.6939429044723511
1761417547847950800,5.094950927734375,-1.1398745775222778,0.9334021210670471,0.5615378618240356
1761417547864785400,5.111785400390625,-1.0021244287490845,0.717613935470581,0.42012256383895874
1761417547881603000,5.12860302734375,-0.8500189781188965,0.5642867684364319,0.25854870676994324
1761417547898427100,5.14542724609375,-0.6944010853767395,0.5361869931221008,0.07925976812839508
1761417547915268400,5.162268310546875,-0.5262604355812073,0.6459900140762329,-0.09269879758358002
1761417547932092400,5.179092529296875,-0.34437528252601624,0.5797111392021179,-0.23716843128204346
1761417547948913200,5.1959130859375,-0.24587325751781464,0.19333885610103607,-0.44364088773727417
1761417547965739500,5.212739501953125,-0.20097467303276062,-0.17211128771305084,-0.812298059463501
1761417547982573300,5.2295732421875,-0.1319468915462494,-0.25366178154945374,-1.2371548414230347
1761417547999374300,5.246374267578125,0.039095375686883926,-0.08246681094169617,-1.47371244430542
1761417548016197600,5.26319775390625,0.2480112910270691,0.10094548016786575,-1.3877331018447876
1761417548033023200,5.280023193359375,0.3550654351711273,-0.003817907767370343,-0.9929614663124084
1761417548049852200,5.29685205078125,0.30695977807044983,-0.337503045797348,-0.512210488319397
1761417548066676000,5.313676025390625,0.26969701051712036,-0.7108944058418274,-0.1927279829978943
1761417548083499000,5.3304990234375,0.2922990322113037,-0.9850202202796936,-0.18906278908252716
1761417548100324600,5.34732470703125,0.3010038435459137,-0.9634872078895569,-0.4763221740722656
1761417548117160200,5.36416015625,0.28878653049468994,-0.717613935470581,-0.8663596510887146
1761417548133966000,5.380966064453125,0.19715675711631775,-0.4323398768901825,-1.165683627128601
1761417548150814500,5.397814453125,0.061391957104206085,-0.252287358045578,-1.3547463417053223
1761417548167636000,5.414635986328125,-0.056810468435287476,-0.19058994948863983,-1.493260145187378
1761417548184460300,5.431460205078125,-0.1609629988670349,-0.1921171247959137,-1.6013832092285156
1761417548201283600,5.44828369140625,-0.2353358417749405,-0.24144448339939117,-1.688889741897583
1761417548218095000,5.46509521484375,-0.2779437005519867,-0.2874121069908142,-1.7708983421325684
1761417548234933000,5.48193310546875,-0.2768746614456177,-0.33887749910354614,-1.8391625881195068
1761417548251759000,5.498759033203125,-0.22937989234924316,-0.38957929611206055,-1.845423936843872
1761417548268578300,5.515578369140625,-0.17287486791610718,-0.4216497242450714,-1.7788395881652832
1761417548285407200,5.5324072265625,-0.1661553531885147,-0.3839288055896759,-1.7177530527114868
1761417548302217700,5.5492177734375,-0.16539175808429718,-0.2912299931049347,-1.7487545013427734
1761417548319024600,5.566024658203125,-0.13668109476566315,-0.235030397772789,-1.8477146625518799
1761417548335856600,5.582856689453125,-0.0861319974064827,-0.23900102078914642,-1.914909839630127
1761417548352691500,5.59969140625,-0.029626963660120964,-0.27840182185173035,-1.8976528644561768
1761417548369518600,5.6165185546875,0.05513058975338936,-0.29794952273368835,-1.8306103944778442
1761417548386338800,5.6333388671875,0.19257527589797974,-0.3245221674442291,-1.7095063924789429
1761417548403182300,5.650182373046875,0.3813326358795166,-0.3842342495918274,-1.5347989797592163
1761417548419977700,5.666977783203125,0.5595525503158569,-0.5057964324951172,-1.327562928199768
1761417548436832800,5.683832763671875,0.7029531598091125,-0.6343835592269897,-1.140485405921936
1761417548453635600,5.700635498046875,0.8197811841964722,-0.7420485615730286,-0.9906707406044006
1761417548470459600,5.717459716796875,0.9289733171463013,-0.8260425329208374,-0.8373435139656067
1761417548487281200,5.73428125,0.9491318464279175,-0.9900598526000977,-0.7006624341011047
1761417548504098800,5.751098876953125,0.903164267539978,-1.1551461219787598,-0.7220427393913269
1761417548520924200,5.767924072265625,1.0112874507904053,-1.1456778049468994,-0.7250970602035522
1761417548537748200,5.784748291015625,1.1942415237426758,-0.9802860021591187,-0.5242751240730286
1761417548554572300,5.801572265625,1.2292135953903198,-0.6716463565826416,-0.15271630883216858
1761417548571403500,5.818403564453125,1.0100656747817993,-0.37522396445274353,0.17730364203453064
1761417548588221000,5.835220947265625,0.6829473376274109,-0.08857546001672745,0.3643811047077179
1761417548605045000,5.852044921875,0.3660610020160675,0.08124507963657379,0.42180246114730835
1761417548621869800,5.868869873046875,0.13377949595451355,0.1137736514210701,0.4288274049758911
1761417548638695700,5.88569580078125,0.03955352306365967,0.0529925599694252,0.5659666657447815
1761417548655518500,5.9025185546875,-0.00733038317412138,-0.08139779418706894,0.9221010804176331
1761417548672343000,5.919343017578125,-0.03756821155548096,-0.1866193264722824,1.3367258310317993
1761417548689183200,5.936183349609375,-0.0659734457731247,-0.18616119027137756,1.6465872526168823
1761417548706000400,5.95300048828125,-0.1466076523065567,-0.11010845750570297,1.7835737466812134
1761417548722834700,5.969834716796875,-0.30863967537879944,-0.00045814894838258624,1.787697196006775
1761417548739652900,5.98665283203125,-0.5050328373908997,0.16264286637306213,1.7182111740112305
1761417548756481300,6.003481201171875,-0.7157813310623169,0.36300668120384216,1.632842779159546
1761417548773302300,6.02030224609375,-0.9082038998603821,0.5732970237731934,1.5796974897384644
1761417548790128600,6.037128662109375,-1.0580185651779175,0.7461718916893005,1.5457944869995117
1761417548806941200,6.053941162109375,-1.1122329235076904,0.8857545852661133,1.5250251293182373
1761417548823776000,6.07077587890625,-1.0899362564086914,0.9818131923675537,1.5581644773483276
1761417548840601600,6.0876015625,-1.06351637840271,1.0219775438308716,1.666898488998413
1761417548857425200,6.104425048828125,-1.040150761604309,0.9955576062202454,1.7776178121566772
1761417548874245400,6.121245361328125,-1.0129673480987549,0.901637077331543,1.82877779006958
1761417548891095000,6.138094970703125,-1.0005972385406494,0.7961101531982422,1.7912095785140991
1761417548907910000,6.154909912109375,-0.9920451641082764,0.7779368758201599,1.720807433128357
1761417548924740400,6.171740234375,-0.9508117437362671,0.8205447196960449,1.6203200817108154
1761417548941544400,6.18854443359375,-0.8834638595581055,0.8797986507415771,1.4999796152114868
1761417548958386200,6.20538623046875,-0.8013024926185608,0.9301950335502625,1.3739886283874512
1761417548975190500,6.2221904296875,-0.7290676832199097,0.8715519905090332,1.2479976415634155
1761417548992014800,6.239014892578125,-0.694248378276825,0.6985244154930115,1.1323914527893066
1761417549008845300,6.25584521484375,-0.6902777552604675,0.4847215712070465,0.9961684942245483
1761417549025673000,6.2726728515625,-0.6823364496231079,0.3153591752052307,0.7790058851242065
1761417549042495200,6.2894951171875,-0.6641632318496704,0.2528982162475586,0.49556443095207214
1761417549059315700,6.306315673828125,-0.6438519954681396,0.2834414839744568,0.19776763021945953
1761417549076146700,6.323146728515625,-0.5804746747016907,0.3683517575263977,-0.07437284290790558
1761417549092964400,6.33996435546875,-0.49556443095207214,0.365755558013916,-0.29107728600502014
1761417549109813800,6.356813720703125,-0.44104471802711487,0.1592831164598465,-0.5487096905708313
1761417549126630400,6.37363037109375,-0.36942076683044434,-0.07925976812839508,-0.9066767692565918
1761417549143454700,6.390454833984375,-0.28069257736206055,-0.2565633952617645,-1.2696833610534668
1761417549160275200,6.407275146484375,-0.13072516024112701,-0.20891591906547546,-1.5082262754440308
1761417549177100000,6.42410009765625,0.07483099400997162,-0.07651086896657944,-1.4873042106628418
1761417549193922300,6.44092236328125,0.25671613216400146,-0.09743300825357437,-1.189049243927002
1761417549210752500,6.45775244140625,0.33475416898727417,-0.33857205510139465,-0.7617489695549011
1761417549227589000,6.474589111328125,0.3605632185935974,-0.6580545902252197,-0.44287729263305664
1761417549244396500,6.491396484375,0.4254676401615143,-0.8689557909965515,-0.3341432809829712
1761417549261228500,6.508228515625,0.4992296099662781,-0.9201157689094543,-0.41951170563697815
1761417549278037000,6.525037109375,0.5813909769058228,-0.8781188130378723,-0.6255260109901428
1761417549294861300,6.541861328125,0.6725626587867737,-0.7692320346832275,-0.8345946669578552
1761417549311673300,6.55867333984375,0.7012733221054077,-0.7105889916419983,-0.9460775256156921
1761417549328514000,6.57551416015625,0.6533203721046448,-0.7061602473258972,-0.9624181985855103
1761417549345334800,6.592334716796875,0.5590944290161133,-0.6490443348884583,-1.01617431640625
1761417549362162700,6.60916259765625,0.4619668424129486,-0.5016731023788452,-1.1673635244369507
1761417549378998800,6.625998779296875,0.4056145250797272,-0.34544429183006287,-1.3660473823547363
1761417549395822000,6.642822021484375,0.4043927788734436,-0.25442537665367126,-1.5346461534500122
1761417549412643300,6.659643310546875,0.4265366494655609,-0.230448916554451,-1.5949691534042358
1761417549429474300,6.676474365234375,0.4729624092578888,-0.24205535650253296,-1.52578866481781
1761417549446297900,6.6932978515625,0.555429220199585,-0.29306259751319885,-1.3869695663452148
1761417549463102000,6.71010205078125,0.6400340795516968,-0.3530801236629486,-1.2334896326065063
1761417549479933000,6.726932861328125,0.7020368576049805,-0.36651915311813354,-1.126588225364685
1761417549496746800,6.743746826171875,0.7289149761199951,-0.33567044138908386,-1.0966558456420898
1761417549513579800,6.760579833984375,0.7225008606910706,-0.25671613216400146,-1.1174252033233643
1761417549530407200,6.7774072265625,0.6884451508522034,-0.1794416606426239,-1.161560297012329
1761417549547240400,6.794240478515625,0.6067419052124023,-0.09911288321018219,-1.1769846677780151
1761417549564040000,6.8110400390625,0.48579058051109314,0.007941247895359993,-1.159727692604065
1761417549580878300,6.82787841796875,0.33505958318710327,0.18997909128665924,-1.085965633392334
1761417549597715200,6.844715087890625,0.1748601794242859,0.36422839760780334,-1.0059423446655273
1761417549614539800,6.861539794921875,0.05497787147760391,0.43905940651893616,-0.9957103729248047
1761417549631368400,6.878368408203125,-0.03390302136540413,0.4024074673652649,-0.9989174008369446
1761417549648190000,6.89518994140625,-0.11407908797264099,0.337503045797348,-0.9161451458930969
1761417549665013200,6.91201318359375,-0.21624629199504852,0.37568211555480957,-0.7906123399734497
1761417549681838000,6.928838134765625,-0.3654501438140869,0.4550946056842804,-0.7435756921768188
1761417549698642000,6.945641845703125,-0.5693264007568359,0.41172316670417786,-0.9098837971687317
1761417549715491800,6.962491943359375,-0.5587889552116394,0.4486805200576782,-1.0958921909332275
1761417549732311000,6.97931103515625,-0.3228422701358795,0.5015203952789307,-1.0039570331573486
1761417549749120800,6.996120849609375,-0.11804971098899841,0.5526803135871887,-0.5723807215690613
1761417549765949700,7.01294970703125,-0.14019356667995453,0.5568036437034607,-0.0328340083360672
1761417549782772000,7.02977197265625,-0.4634940028190613,0.6090326309204102,0.2776382565498352
1761417549799595500,7.046595458984375,-0.926224410533905,0.688903272151947,0.21899518370628357
1761417549816414500,7.06341455078125,-1.270447015762329,0.7704538106918335,-0.029932396486401558
1761417549833249800,7.080249755859375,-1.4219415187835693,0.7133378982543945,-0.1618792861700058
1761417549850073000,7.097072998046875,-1.51158607006073,0.540921151638031,-0.0806342139840126
1761417549866907100,7.1139072265625,-1.5861116647720337,0.3773620128631592,0.07910704612731934
1761417549883725300,7.130725341796875,-1.6406313180923462,0.40164390206336975,0.27061331272125244
1761417549900562000,7.14756201171875,-1.744783878326416,0.6446155309677124,0.4482223689556122
1761417549917361000,7.16436083984375,-1.9017761945724487,0.9537133574485779,0.4889976382255554
1761417549934188300,7.181188232421875,-2.0474674701690674,1.244943380355835,0.4063780903816223
1761417549951017500,7.198017578125,-2.1183278560638428,1.4593570232391357,0.34865134954452515
1761417549967835100,7.214835205078125,-2.0981693267822266,1.5774067640304565,0.40744712948799133
1761417549984653600,7.231653564453125,-1.9882136583328247,1.5373951196670532,0.5713117122650146
1761417550001475600,7.2484755859375,-1.8141170740127563,1.3410019874572754,0.7852672934532166
1761417550018302500,7.265302490234375,-1.6183347702026367,1.1129964590072632,1.0016663074493408
1761417550035127000,7.282126953125,-1.4501941204071045,0.9219483733177185,1.1462886333465576
1761417550051951600,7.29895166015625,-1.3145819902420044,0.7994698882102966,1.198823094367981
1761417550068775400,7.315775390625,-1.192256212234497,0.7046330571174622,1.1621711254119873
1761417550085599000,7.332598876953125,-1.0658071041107178,0.5716171264648438,1.0374019145965576
1761417550102424000,7.349424072265625,-0.9318749308586121,0.47250425815582275,0.9042332768440247
1761417550119248100,7.366248046875,-0.8387179970741272,0.40103304386138916,0.8191702961921692
1761417550136072200,7.383072265625,-0.8112290501594543,0.3436116874217987,0.7673994898796082
1761417550152908000,7.399907958984375,-0.8069530129432678,0.24953845143318176,0.6696610450744629
1761417550169738000,7.416738037109375,-0.7930558323860168,0.10354165732860565,0.502436637878418
1761417550186536200,7.4335361328125,-0.7744244337081909,-0.06459899991750717,0.2845104932785034
1761417550203385600,7.450385498046875,-0.7365507483482361,-0.1872301995754242,0.03237585723400116
1761417550220207000,7.46720703125,-0.6579018831253052,-0.20815233886241913,-0.17333301901817322
1761417550237044500,7.48404443359375,-0.5493205785751343,-0.1547016203403473,-0.2793181240558624
1761417550253857000,7.50085693359375,-0.4141666293144226,-0.15943582355976105,-0.33292156457901
1761417550270680300,7.517680419921875,-0.27458393573760986,-0.3257438838481903,-0.3675881624221802
1761417550287505000,7.5345048828125,-0.2025018334388733,-0.7594582438468933,-0.5057964324951172
1761417550304329200,7.5513291015625,-0.08857546001672745,-1.1731667518615723,-0.7761042714118958
1761417550321155000,7.568155029296875,0.1440114825963974,-1.327257513999939,-1.0690141916275024
1761417550337982000,7.58498193359375,0.4043927788734436,-1.1536190509796143,-1.216843605041504
1761417550354816500,7.60181640625,0.6316346526145935,-0.898124635219574,-1.1647672653198242
1761417550371640800,7.618640869140625,0.7234171628952026,-0.7967209815979004,-0.9263771176338196
1761417550388471300,7.63547119140625,0.6423248052597046,-0.9266825914382935,-0.6789767146110535
1761417550405281500,7.652281494140625,0.4764748811721802,-1.1696542501449585,-0.6004805564880371
1761417550422090800,7.6690908203125,0.30833423137664795,-1.4089607000350952,-0.6922630667686462
1761417550438937300,7.685937255859375,0.18005253374576569,-1.5853480100631714,-0.8849910497665405
1761417550455761700,7.70276171875,0.11331550031900406,-1.5853480100631714,-1.1213958263397217
1761417550472596500,7.719596435546875,0.08659014850854874,-1.394452691078186,-1.3807082176208496
1761417550489395200,7.736395263671875,0.048258353024721146,-1.094365119934082,-1.6484198570251465
1761417550506223000,7.75322314453125,-0.04199698567390442,-0.7461718916893005,-1.902539849281311
1761417550523048400,7.77004833984375,-0.1748601794242859,-0.4999932050704956,-2.143831491470337
1761417550548284700,7.79528466796875,-0.9825767278671265,-0.6317873597145081,-2.595871925354004
1761417550565109500,7.812109619140625,-1.3539828062057495,-0.029626963660120964,-3.2366695404052734
1761417550581934000,7.82893408203125,-1.1788171529769897,0.6250678896903992,-3.824779987335205
1761417550598755800,7.845755859375,-0.9862419366836548,1.2287554740905762,-4.0378193855285645
1761417550615591700,7.862591796875,-0.9402743577957153,1.3892602920532227,-3.8154642581939697
1761417550632425200,7.87942529296875,-0.9127854108810425,1.141707181930542,-3.3350188732147217
1761417550649275600,7.896275634765625,-0.7883216142654419,0.7072292566299438,-2.8399124145507812
1761417550666065200,7.913065185546875,-0.5688682794570923,0.31871894001960754,-2.465299367904663
1761417550682893800,7.929893798828125,-0.32681289315223694,0.14782938361167908,-2.22782564163208
1761417550699719400,7.946719482421875,-0.1033889427781105,0.14584407210350037,-2.079232692718506
1761417550716542700,7.963542724609375,0.05467243865132332,0.21884247660636902,-1.9608774185180664
1761417550733351200,7.98035107421875,0.09483683109283447,0.30543261766433716,-1.8613064289093018
1761417550750177800,7.997177734375,0.07880161702632904,0.36102136969566345,-1.787697196006775
1761417550766981000,8.013981201171875,0.04886921867728233,0.4086688458919525,-1.7663168907165527
1761417550783826700,8.03082666015625,0.029474247246980667,0.4486805200576782,-1.7999144792556763
1761417550800652300,8.04765234375,0.042760565876960754,0.4703662395477295,-1.814880609512329
1761417550817475600,8.0644755859375,0.0429132841527462,0.4697553813457489,-1.7658586502075195
1761417550834315300,8.081315185546876,-0.062460970133543015,0.46868637204170227,-1.6704109907150269
1761417550851140600,8.098140625,-0.25793784856796265,0.43279802799224854,-1.7345519065856934
1761417550867948300,8.1149482421875,-0.3179553747177124,0.5719226002693176,-1.9046778678894043
1761417550884772600,8.131772705078125,-0.22372940182685852,0.693026602268219,-1.9251418113708496
1761417550901612300,8.1486123046875,-0.15913039445877075,0.7988590002059937,-1.670716404914856
1761417550918419700,8.165419677734375,-0.22708915174007416,0.9382890462875366,-1.2435688972473145
1761417550935261400,8.182261474609374,-0.42699480056762695,1.1345294713974,-0.8407033085823059
1761417550952077000,8.1990771484375,-0.7452555894851685,1.325730323791504,-0.6829473376274109
1761417550968907000,8.215906982421876,-1.0329731702804565,1.4805846214294434,-0.7128797173500061
1761417550985720000,8.232719970703124,-1.2182179689407349,1.545030951499939,-0.6911939978599548
1761417551002545700,8.249545654296876,-1.3339769840240479,1.4460707902908325,-0.5418374538421631
1761417551019356200,8.266356201171876,-1.4453071355819702,1.2898420095443726,-0.3000875413417816
1761417551036194600,8.283194580078124,-1.5771013498306274,1.2015719413757324,-0.02168571576476097
1761417551053014800,8.300014892578124,-1.7018705606460571,1.3396275043487549,0.2926044464111328
1761417551069850400,8.316850341796876,-1.8046486377716064,1.6780468225479126,0.36560285091400146
1761417551086681300,8.333681396484375,-2.1452059745788574,2.0245602130889893,0.3715587854385376
1761417551103510500,8.350510498046875,-2.445293664932251,2.4274258613586426,0.4786129295825958
1761417551120325400,8.367325439453126,-2.521498918533325,2.6481008529663086,0.6520986557006836
1761417551137153500,8.384153564453126,-2.4575109481811523,2.6537513732910156,0.8460483551025391
1761417551153975300,8.400975341796874,-2.336254119873047,2.5282185077667236,0.9947940707206726
1761417551170807300,8.417807373046875,-2.1733057498931885,2.3689353466033936,1.0803152322769165
1761417551187627500,8.43462744140625,-1.7327193021774292,2.552042245864868,1.2374602556228638
1761417551204453000,8.451453125,-1.3706289529800415,2.079538106918335,1.077413558959961
1761417551221259500,8.468259521484375,-1.1119275093078613,2.071138620376587,0.9329439401626587
1761417551238088400,8.48508837890625,-0.9358455538749695,2.2122485637664795,0.8071057200431824
1761417551254911500,8.501911376953124,-0.8866708874702454,2.2602014541625977,0.707534670829773
1761417551271737000,8.518737060546876,-0.9146180152893066,2.2227859497070312,0.6887505650520325
1761417551288560400,8.535560302734375,-1.0122036933898926,1.958128571510315,0.746630072593689
1761417551305373000,8.552373046875,-1.124755620956421,1.5700763463974,0.8962920308113098
1761417551322209800,8.569209716796875,-1.1801916360855103,1.2574660778045654,1.0517572164535522
1761417551339048700,8.586048583984375,-1.1658363342285156,1.0096075534820557,1.0731375217437744
1761417551355872000,8.6028720703125,-1.114981770515442,0.7985535860061646,0.9001099467277527
1761417551372679200,8.61967919921875,-1.0793988704681396,0.5821545720100403,0.5677992701530457
1761417551389522700,8.636522705078125,-1.067639708518982,0.43768495321273804,0.23273965716362
1761417551406346500,8.653346435546876,-1.0693196058273315,0.3026837408542633,-0.08124507963657379
1761417551423153400,8.6701533203125,-1.0903944969177246,0.16600263118743896,-0.3546072840690613
1761417551439995400,8.686995361328124,-1.1062769889831543,-0.07299839705228806,-0.6126978397369385
1761417551456802600,8.703802490234375,-1.0891727209091187,-0.3471241891384125,-0.9330966472625732
1761417551473627100,8.720627197265625,-1.0723739862442017,-0.5537493228912354,-1.279915452003479
1761417551490444500,8.737444580078124,-1.1482739448547363,-0.5694791078567505,-1.5916093587875366
1761417551507279400,8.754279296875,-1.078940749168396,-0.45631635189056396,-1.6407840251922607
1761417551524105000,8.77110498046875,-0.7771732807159424,-0.49617528915405273,-1.3646728992462158
1761417551540926500,8.787926513671875,-0.46181413531303406,-0.6688974499702454,-0.8822421431541443
1761417551557751800,8.804751708984375,-0.38896843791007996,-0.9752463698387146,-0.4314235746860504
1761417551574590200,8.821590087890625,-0.5455026626586914,-1.383457064628601,-0.24358251690864563
1761417551591414300,8.838414306640624,-0.6876815557479858,-1.8350391387939453,-0.375529408454895
1761417551608239400,8.8552392578125,-0.7379252314567566,-2.0140228271484375,-0.626747727394104
1761417551625042200,8.872042236328125,-0.7171558141708374,-2.1236729621887207,-1.0016663074493408
1761417551641872600,8.88887255859375,-0.6478226184844971,-2.057699680328369,-1.3813190460205078
1761417551658699800,8.90569970703125,-0.5668829679489136,-1.9191858768463135,-1.6769778728485107
1761417551675537700,8.92253759765625,-0.697149932384491,-1.8532124757766724,-1.863139033317566
1761417551692361200,8.939361328125,-0.9161451458930969,-1.940413475036621,-1.9411770105361938
1761417551709169700,8.956169677734374,-1.0193814039230347,-2.0094411373138428,-1.9973766803741455
1761417551725996300,8.972996337890624,-0.9961684942245483,-1.8283196687698364,-1.9604192972183228
1761417551742822100,8.989822265625,-0.8521569967269897,-1.4275920391082764,-1.8655824661254883
1761417551759642000,9.00664208984375,-0.5931501388549805,-0.8275696635246277,-1.835650086402893
1761417551776473300,9.023473388671874,-0.418748140335083,-0.18707747757434845,-1.804495930671692
1761417551793294800,9.040294921875,-0.39477166533470154,0.09926560521125793,-1.7437148094177246
1761417551810137000,9.05713720703125,-0.4231768846511841,0.1722639948129654,-1.6597208976745605
1761417551826937600,9.0739375,-0.4778493344783783,-0.02932153269648552,-1.6184874773025513
1761417551843766000,9.09076611328125,-0.5102251768112183,-0.37048977613449097,-1.5856534242630005
1761417551860591600,9.107591552734375,-0.48838675022125244,-0.6827946305274963,-1.5294538736343384
1761417551877405700,9.12440576171875,-0.42699480056762695,-0.8251262307167053,-1.4233160018920898
1761417551894243600,9.14124365234375,-0.3098613917827606,-0.878576934337616,-1.3704761266708374
1761417551911063800,9.158063720703124,-0.14584407210350037,-0.7318165898323059,-1.3333661556243896
1761417551927898000,9.174898193359375,0.0503963828086853,-0.45753806829452515,-1.282511591911316
1761417551944715500,9.191715576171875,0.23839016258716583,-0.2165517359972,-1.2304353713989258
1761417551961538800,9.208538818359376,0.38117989897727966,-0.11514809727668762,-1.1853840351104736
1761417551978361000,9.225361083984374,0.432034432888031,-0.08231408894062042,-1.1429288387298584
1761417551995187700,9.242187744140624,0.3767511546611786,-0.13576480746269226,-1.1252137422561646
1761417552012000500,9.25900048828125,0.2002110779285431,-0.19532416760921478,-1.1200214624404907
1761417552028824000,9.275823974609375,-0.012217304669320583,-0.10965031385421753,-1.2108876705169678
1761417552045652500,9.292652587890625,-0.078343465924263,-0.006261368747800589,-1.3640620708465576
1761417552062470000,9.309469970703125,-0.05757404863834381,0.04841107130050659,-1.3836097717285156
1761417552079299300,9.32629931640625,0.022143865004181862,0.10445795953273773,-1.2296717166900635
1761417552096122400,9.343122314453124,-0.046273041516542435,0.45982882380485535,-0.9065240025520325
1761417552112950000,9.359949951171876,-0.30115658044815063,0.9312640428543091,-0.5670356750488281
1761417552129771300,9.376771240234374,-0.6840163469314575,1.269836187362671,-0.3471241891384125
1761417552146600700,9.3936005859375,-1.0005972385406494,1.3448197841644287,-0.2528982162475586
1761417552163432200,9.41043212890625,-1.1421653032302856,1.2999212741851807,-0.22632557153701782
1761417552180257800,9.4272578125,-1.0965031385421753,1.2217304706573486,-0.1742493063211441
1761417552197068000,9.444068115234375,-1.1354458332061768,1.161560297012329,-0.14019356667995453
1761417552213907000,9.460906982421875,-1.0910053253173828,0.9266825914382935,-0.006872233934700489
1761417552230731800,9.477731689453124,-0.9098837971687317,0.9250026941299438,0.25763240456581116
1761417552247555600,9.4945556640625,-0.8672759532928467,1.0618364810943604,0.5392413139343262
1761417552264379000,9.51137890625,-0.9631817936897278,1.22279953956604,0.7684684991836548
1761417552281191400,9.52819140625,-1.052673578262329,1.36482572555542,0.9453139901161194
1761417552298024700,9.545024658203126,-1.0934487581253052,1.3726142644882202,1.0589349269866943
1761417552314873300,9.561873291015624,-1.0680978298187256,1.321606993675232,1.14873206615448
1761417552331683300,9.578683349609374,-1.0012081861495972,1.218676209449768,1.1814134120941162
1761417552348520200,9.595520263671874,-0.8623890280723572,1.0380127429962158,1.1707231998443604
1761417552365307600,9.6123076171875,-0.7447974681854248,0.8284859657287598,1.0965031385421753
1761417552382169000,9.629169189453124,-0.6824892163276672,0.7539604306221008,0.9375254511833191
1761417552398988300,9.64598828125,-0.6821837425231934,0.8087855577468872,0.679740309715271
1761417552415821800,9.66282177734375,-0.6550002694129944,0.9686795473098755,0.40072759985923767
1761417552432635600,9.6796357421875,-0.7328855991363525,1.0674870014190674,0.15683965384960175
1761417552449447700,9.69644775390625,-0.8811731338500977,0.9537133574485779,-0.037110064178705215
1761417552466272300,9.713272216796875,-0.8052731156349182,0.9152288436889648,-0.09865473955869675
1761417552483098000,9.73009814453125,-0.5920811295509338,0.8915578126907349,0.00855211354792118
1761417552499912400,9.746912353515626,-0.3988949954509735,0.7284567952156067,0.20906862616539001
1761417552516736800,9.76373681640625,-0.33078351616859436,0.7386888265609741,0.45631635189056396
1761417552533570000,9.780570068359374,-0.3767511546611786,0.7422012686729431,0.6609562039375305
1761417552550412500,9.79741259765625,-0.49098294973373413,0.6368269920349121,0.8709411025047302
1761417552567233300,9.8142333984375,-0.5835290551185608,0.3208569586277008,1.1299480199813843
1761417552584081700,9.83108154296875,-0.5229006409645081,0.08857546001672745,1.1142182350158691
1761417552600886500,9.847886474609375,-0.4660901725292206,0.08674286305904388,0.9390525817871094
1761417552617707500,9.86470751953125,-0.3700316250324249,0.035582900047302246,0.5531384944915771
1761417552634526500,9.8815263671875,-0.3019201457500458,-0.0734565481543541,0.003512475173920393
1761417552651353000,9.89835302734375,-0.2623666226863861,-0.058337632566690445,-0.46700647473335266
