time,seconds_elapsed,z,y,x
1761305281246187800,0.198187744140625,-0.040679931640625,0.01284240186214447,0.0023500919342041016
1761305281263011800,0.21501171875,-0.040526390075683594,0.013338908553123474,-0.0004474520683288574
1761305281279835400,0.23183544921875,-0.046692848205566406,0.012450531125068665,0.0031540244817733765
1761305281296658000,0.248657958984375,-0.040152549743652344,0.007060140371322632,0.0037603750824928284
1761305281313481500,0.2654814453125,-0.042087554931640625,-0.0036422759294509888,0.003800414502620697
1761305281330300200,0.282300048828125,-0.044653892517089844,-0.011531591415405273,0.007880397140979767
1761305281347132200,0.299132080078125,-0.04390239715576172,-0.01261572539806366,0.0032028332352638245
1761305281363938300,0.315938232421875,-0.03972911834716797,-0.00876876711845398,0.0024169012904167175
1761305281380774700,0.332774658203125,-0.04250621795654297,-0.0010770708322525024,0.0017705559730529785
1761305281397580300,0.349580322265625,-0.04422473907470703,0.005285516381263733,-0.0012602433562278748
1761305281414409500,0.366409423828125,-0.045337677001953125,0.020283415913581848,-0.002949632704257965
1761305281431227600,0.3832275390625,-0.0445098876953125,0.015622586011886597,-0.005505204200744629
1761305281448055800,0.400055908203125,-0.03839111328125,0.017948582768440247,-0.0036529675126075745
1761305281464876300,0.416876220703125,-0.04052925109863281,0.016614675521850586,-0.0067733898758888245
1761305281481700400,0.433700439453125,-0.04440784454345703,0.009427055716514587,0.0019694939255714417
1761305281498523000,0.45052294921875,-0.043854713439941406,0.0014709830284118652,0.00032917410135269165
1761305281515349800,0.467349853515625,-0.04084491729736328,-0.007804214954376221,0.00707872211933136
1761305281532194600,0.484194580078125,-0.0363311767578125,-0.015585213899612427,0.01206553727388382
1761305281549006800,0.5010068359375,-0.04669189453125,-0.01257583498954773,0.012840136885643005
1761305281565826600,0.51782666015625,-0.04939842224121094,-0.01216992735862732,0.01697392761707306
1761305281582638800,0.534638916015625,-0.03762054443359375,0.0008485019207000732,0.007603265345096588
1761305281599475700,0.551475830078125,-0.047247886657714844,0.015152305364608765,0.0011079981923103333
1761305281616283100,0.568283203125,-0.04478168487548828,0.02547752857208252,-0.0038909465074539185
1761305281633118000,0.585117919921875,-0.04440784454345703,0.03342708945274353,-0.006966292858123779
1761305281649950000,0.601949951171875,-0.04142189025878906,0.03997848927974701,-0.0021090954542160034
1761305281666768600,0.6187685546875,-0.04795265197753906,0.04402679204940796,-0.0049675628542900085
1761305281683575800,0.635575927734375,-0.046011924743652344,0.03307609260082245,-0.0015982389450073242
1761305281700400600,0.652400634765625,-0.04827308654785156,-0.00569385290145874,-0.010841883718967438
1761305281717226000,0.66922607421875,-0.04083728790283203,-0.05151672661304474,-0.019004784524440765
1761305281734047500,0.686047607421875,-0.04036521911621094,-0.07120595872402191,-0.01859910786151886
1761305281750871800,0.702871826171875,-0.03686809539794922,-0.07846376299858093,0.0028325989842414856
1761305281767694300,0.7196943359375,-0.038132667541503906,-0.05181881785392761,0.021380387246608734
1761305281784535300,0.736535400390625,-0.039465904235839844,-0.01723100244998932,0.04275370016694069
1761305281801377000,0.753376953125,-0.039038658142089844,0.026280641555786133,0.04528370499610901
1761305281818178000,0.770177978515625,-0.038687705993652344,0.05258271098136902,0.01793300360441208
1761305281834974000,0.786973876953125,-0.04612159729003906,0.07412762939929962,-0.010447263717651367
1761305281851793200,0.803793212890625,-0.05550384521484375,0.07508888840675354,-0.04408442974090576
1761305281868647400,0.8206474609375,-0.05285835266113281,0.05324679613113403,-0.054693691432476044
1761305281885471200,0.83747119140625,-0.05487251281738281,0.01766073703765869,-0.03960070759057999
1761305281902276600,0.854276611328125,-0.04084491729736328,-0.010417431592941284,-0.008439995348453522
1761305281919092200,0.87109228515625,-0.02995586395263672,-0.03554998338222504,0.033116623759269714
1761305281935927800,0.887927734375,-0.033023834228515625,-0.03543221950531006,0.05539587885141373
1761305281952751900,0.904751953125,-0.037545204162597656,-0.026508301496505737,0.06106670945882797
1761305281969573000,0.921572998046875,-0.03566932678222656,-0.0054194629192352295,0.03811660408973694
1761305281986396700,0.938396728515625,-0.0487213134765625,0.013004660606384277,0.0029797032475471497
1761305282003217200,0.955217041015625,-0.042428016662597656,0.01709917187690735,-0.03659864515066147
1761305282020053200,0.97205322265625,-0.047324180603027344,0.01983782649040222,-0.05300958454608917
1761305282036884200,0.98888427734375,-0.04884052276611328,0.006934642791748047,-0.04388134181499481
1761305282053686800,1.005686767578125,-0.04399681091308594,-0.010166555643081665,-0.0194118469953537
1761305282070521900,1.02252197265625,-0.04198932647705078,-0.008197665214538574,0.015558645129203796
1761305282087332400,1.039332275390625,-0.03598308563232422,-0.003964528441429138,0.04448042809963226
1761305282104172300,1.05617236328125,-0.03620719909667969,0.0019965171813964844,0.05001674219965935
1761305282120996000,1.07299609375,-0.040810585021972656,0.01802976429462433,0.033931948244571686
1761305282137818600,1.089818603515625,-0.03780651092529297,0.020537585020065308,0.011376358568668365
1761305282154644700,1.106644775390625,-0.04740428924560547,0.01623569428920746,-0.012341916561126709
1761305282171446500,1.123446533203125,-0.04885387420654297,0.014541223645210266,-0.03730706870555878
1761305282188275500,1.140275390625,-0.04728889465332031,0.0031566768884658813,-0.04053642600774765
1761305282205098000,1.157097900390625,-0.04120922088623047,-0.00391775369644165,-0.02605089545249939
1761305282221922000,1.173922119140625,-0.04563331604003906,-0.009178057312965393,-0.0018884986639022827
1761305282238744600,1.19074462890625,-0.03704357147216797,-0.009945616126060486,0.013236887753009796
1761305282255568400,1.207568359375,-0.044513702392578125,-0.008224889636039734,0.02481694519519806
1761305282272403500,1.224403564453125,-0.036866188049316406,0.0014834702014923096,0.033573172986507416
1761305282289207000,1.24120703125,-0.03749656677246094,0.0029170066118240356,0.018073946237564087
1761305282306046700,1.258046630859375,-0.04315471649169922,0.009031221270561218,-0.003383226692676544
1761305282322876700,1.274876708984375,-0.04236602783203125,0.0081644207239151,-0.007067330181598663
1761305282339698700,1.29169873046875,-0.04046058654785156,0.0028226524591445923,-0.014663048088550568
1761305282356505000,1.308505126953125,-0.041960716247558594,0.007862120866775513,-0.012923508882522583
1761305282373340000,1.32533984375,-0.045108795166015625,0.008024737238883972,-0.008522652089595795
1761305282390154800,1.34215478515625,-0.041382789611816406,0.010958939790725708,-0.0026404187083244324
1761305282406976800,1.358976806640625,-0.03866291046142578,0.013768404722213745,0.009320683777332306
1761305282423800800,1.37580078125,-0.039389610290527344,0.014169365167617798,0.008228786289691925
1761305282440614100,1.3926142578125,-0.04193592071533203,0.010165676474571228,0.0039662569761276245
1761305282457443800,1.40944384765625,-0.04181194305419922,0.001486077904701233,-0.002999529242515564
1761305282474272500,1.4262724609375,-0.04457855224609375,-0.005141764879226685,0.005253702402114868
1761305282491110700,1.443110595703125,-0.0409393310546875,-0.015061229467391968,0.011690184473991394
1761305282507930000,1.45993017578125,-0.04558849334716797,-0.011234477162361145,0.011527054011821747
1761305282524727800,1.476727783203125,-0.03751945495605469,-0.0002973824739456177,0.0045308917760849
1761305282541580000,1.493580078125,-0.04315948486328125,0.016513213515281677,-0.0005142614245414734
1761305282558400300,1.510400146484375,-0.045294761657714844,0.03116568922996521,-0.008241750299930573
1761305282575222800,1.527222900390625,-0.04789161682128906,0.03342394530773163,-0.011658109724521637
1761305282592042200,1.544042236328125,-0.04714775085449219,0.027897298336029053,-0.009278431534767151
1761305282608873500,1.56087353515625,-0.042466163635253906,0.013088524341583252,0.0014952272176742554
1761305282625693200,1.577693115234375,-0.04062366485595703,-0.002516433596611023,0.013968341052532196
1761305282642516200,1.59451611328125,-0.040345191955566406,-0.017089560627937317,0.019891031086444855
1761305282659322000,1.611322021484375,-0.03993988037109375,-0.022245794534683228,0.024700641632080078
1761305282676148000,1.62814794921875,-0.04203033447265625,-0.022357776761054993,0.016688361763954163
1761305282692972500,1.64497265625,-0.040557861328125,-0.01127345860004425,0.014352105557918549
1761305282709795000,1.661795166015625,-0.04033184051513672,0.006737619638442993,0.005943119525909424
1761305282726607000,1.678607177734375,-0.05185127258300781,0.02984035015106201,-0.012879565358161926
1761305282743441000,1.69544091796875,-0.04953193664550781,0.026325657963752747,-0.018312968313694
1761305282760278300,1.7122783203125,-0.04446983337402344,0.02697211503982544,-0.02026093751192093
1761305282777125600,1.729125732421875,-0.04662799835205078,0.014824450016021729,-0.01068185269832611
1761305282793925000,1.745925048828125,-0.04581928253173828,0.01120506227016449,-0.011145196855068207
1761305282810750200,1.762750244140625,-0.04112720489501953,-0.002709910273551941,-0.00003231316804885864
1761305282827570000,1.77956982421875,-0.04512977600097656,-0.004255220293998718,0.006843067705631256
1761305282844390400,1.796390380859375,-0.03988361358642578,-0.013084903359413147,0.01595960557460785
1761305282861219300,1.81321923828125,-0.04022693634033203,-0.01844128966331482,0.020219609141349792
1761305282878035500,1.830035400390625,-0.04206275939941406,-0.009241655468940735,0.010967716574668884
1761305282894856000,1.84685595703125,-0.049813270568847656,-0.006670564413070679,0.002644374966621399
1761305282911673300,1.86367333984375,-0.052124977111816406,-0.0011879801750183105,-0.0031578093767166138
1761305282928497400,1.880497314453125,-0.04258155822753906,0.006740778684616089,-0.011599279940128326
1761305282945308400,1.897308349609375,-0.04520130157470703,0.01604001224040985,-0.004196502268314362
1761305282962141200,1.91414111328125,-0.03290843963623047,0.014466062188148499,0.006007194519042969
1761305282978960400,1.93096044921875,-0.042090415954589844,0.020172983407974243,0.011803582310676575
1761305282995804000,1.947803955078125,-0.04169273376464844,0.01813812553882599,0.012667007744312286
1761305283012626400,1.96462646484375,-0.040495872497558594,0.011969074606895447,0.012705810368061066
1761305283029451000,1.981450927734375,-0.04031658172607422,0.0017771869897842407,0.002729550004005432
1761305283046273300,1.998273193359375,-0.043212890625,0.00028736889362335205,-0.0022614672780036926
1761305283063096800,2.015096923828125,-0.04478931427001953,-0.009247437119483948,-0.008131332695484161
1761305283079945500,2.031945556640625,-0.044376373291015625,-0.010624662041664124,-0.009653337299823761
1761305283096739600,2.048739501953125,-0.04433631896972656,-0.0010304749011993408,-0.019166186451911926
1761305283113570000,2.065570068359375,-0.040126800537109375,0.010288834571838379,-0.005470924079418182
1761305283130390000,2.08239013671875,-0.03770637512207031,0.01936952769756317,0.001714356243610382
1761305283147195600,2.099195556640625,-0.04103851318359375,0.028812870383262634,0.009762518107891083
1761305283164022800,2.116022705078125,-0.044470787048339844,0.039333537220954895,0.01321982592344284
1761305283180845300,2.13284521484375,-0.036865234375,0.032959043979644775,0.01652379333972931
1761305283197668900,2.1496689453125,-0.04269981384277344,0.026162579655647278,0.0059032142162323
1761305283214497500,2.16649755859375,-0.044722557067871094,0.004822328686714172,0.00303041934967041
1761305283231312100,2.18331201171875,-0.038041114807128906,-0.016910627484321594,0.0026271864771842957
1761305283248165600,2.20016552734375,-0.03995323181152344,-0.028248727321624756,-0.006776951253414154
1761305283264952600,2.21695263671875,-0.0431671142578125,-0.03287239372730255,-0.005990467965602875
1761305283281795000,2.233795166015625,-0.040726661682128906,-0.021811112761497498,-0.011030562222003937
1761305283298625800,2.250625732421875,-0.03780174255371094,-0.010928228497505188,-0.0117674320936203
1761305283315428400,2.267428466796875,-0.042984962463378906,0.00512869656085968,-0.007841594517230988
1761305283332265200,2.28426513671875,-0.04476737976074219,0.017412900924682617,0.003668546676635742
1761305283349094700,2.3010947265625,-0.04211235046386719,0.02262677252292633,0.005442894995212555
1761305283365931000,2.317930908203125,-0.042365074157714844,0.018114924430847168,0.011897623538970947
1761305283382720500,2.334720458984375,-0.04175376892089844,0.02036130428314209,0.011761561036109924
1761305283399547600,2.351547607421875,-0.045723915100097656,0.018856123089790344,0.014662303030490875
1761305283416370400,2.368370361328125,-0.041126251220703125,0.00753958523273468,0.013962335884571075
1761305283433194200,2.3851943359375,-0.04449176788330078,0.00880703330039978,0.0062286630272865295
1761305283450015500,2.402015380859375,-0.04207611083984375,0.006115809082984924,0.000960715115070343
1761305283466835700,2.418835693359375,-0.046929359436035156,-0.002417445182800293,-0.011986657977104187
1761305283483684600,2.4356845703125,-0.042952537536621094,-0.014793097972869873,-0.019111350178718567
1761305283500497700,2.45249755859375,-0.039707183837890625,-0.018168479204177856,-0.015500009059906006
1761305283517323300,2.4693232421875,-0.039073944091796875,-0.016406849026679993,-0.006750606000423431
1761305283534147000,2.48614697265625,-0.04596424102783203,-0.012119069695472717,-0.00027007609605789185
1761305283550974000,2.502973876953125,-0.04229545593261719,-0.001550033688545227,0.006025224924087524
1761305283567790300,2.519790283203125,-0.041747093200683594,0.01310884952545166,0.006922826170921326
1761305283584620300,2.536620361328125,-0.04359245300292969,0.025793597102165222,0.007076680660247803
1761305283601440500,2.5534404296875,-0.04273414611816406,0.027637049555778503,0.0072074756026268005
1761305283618268200,2.57026806640625,-0.042969703674316406,0.040726110339164734,0.003579266369342804
1761305283635065300,2.5870654296875,-0.039432525634765625,0.02811780571937561,-0.0043168142437934875
1761305283651893200,2.603893310546875,-0.04117393493652344,0.011038929224014282,-0.005660779774188995
1761305283668719400,2.62071923828125,-0.04756927490234375,-0.0059365928173065186,-0.006527543067932129
1761305283685544700,2.637544677734375,-0.04433155059814453,-0.0054800063371658325,-0.0033032819628715515
1761305283702355200,2.654355224609375,-0.044983863830566406,-0.013684868812561035,0.004093170166015625
1761305283719185400,2.671185302734375,-0.042156219482421875,-0.011267513036727905,0.003399401903152466
1761305283736002800,2.6880029296875,-0.044651031494140625,-0.0027822107076644897,0.00920509546995163
1761305283752849000,2.704848876953125,-0.04503059387207031,-0.00100727379322052,0.0012181177735328674
1761305283769673000,2.7216728515625,-0.04508686065673828,0.007430851459503174,0.0018222853541374207
1761305283786495500,2.73849560546875,-0.046599388122558594,0.009780362248420715,-0.00510077178478241
1761305283803319000,2.755319091796875,-0.039475440979003906,0.010186195373535156,0.003782927989959717
1761305283820141600,2.7721416015625,-0.041324615478515625,0.007860764861106873,-0.0006553083658218384
1761305283836965600,2.788965576171875,-0.047454833984375,-0.0006949156522750854,0.0015008747577667236
1761305283853790000,2.8057900390625,-0.04545783996582031,-0.004840299487113953,0.00591200590133667
1761305283870582000,2.82258203125,-0.044017791748046875,-0.0025962740182876587,0.007822610437870026
1761305283887429000,2.83942919921875,-0.046072959899902344,0.0035980194807052612,0.00409630686044693
1761305283904245000,2.856244873046875,-0.04524517059326172,0.004635244607925415,0.00824030488729477
1761305283921067300,2.8730673828125,-0.039272308349609375,0.015111029148101807,0.003085225820541382
1761305283937891000,2.88989111328125,-0.04030132293701172,0.016591966152191162,0.0010706931352615356
1761305283954713600,2.906713623046875,-0.04045677185058594,0.006869211792945862,-0.0072700753808021545
1761305283971538200,2.9235380859375,-0.04553794860839844,-0.003847181797027588,-0.00861755758523941
1761305283988373500,2.94037353515625,-0.03932380676269531,-0.013676539063453674,-0.0007699355483055115
1761305284005198600,2.957198486328125,-0.04309368133544922,-0.013348519802093506,-0.003607824444770813
1761305284022020400,2.974020263671875,-0.04008674621582031,-0.012049362063407898,0.00004149973392486572
1761305284038845000,2.990844970703125,-0.04028034210205078,-0.003741547465324402,0.004720151424407959
1761305284055646200,3.007646240234375,-0.037383079528808594,0.004596829414367676,0.0026136860251426697
1761305284072494800,3.024494873046875,-0.045070648193359375,0.01390373706817627,0.0022440627217292786
1761305284089313800,3.041313720703125,-0.048384666442871094,0.018227756023406982,-0.004666507244110107
1761305284106113500,3.058113525390625,-0.04496479034423828,0.014210745692253113,-0.005705051124095917
1761305284122945500,3.074945556640625,-0.04700469970703125,0.006606161594390869,-0.006875455379486084
1761305284139772700,3.091772705078125,-0.04032611846923828,0.006200924515724182,-0.004222698509693146
1761305284156592400,3.10859228515625,-0.04857635498046875,0.015469878911972046,0.003095276653766632
1761305284173403100,3.125403076171875,-0.04306316375732422,0.026740282773971558,0.005319610238075256
1761305284190234600,3.142234619140625,-0.043000221252441406,0.026634380221366882,0.016256198287010193
1761305284207062800,3.159062744140625,-0.04656410217285156,0.03362375497817993,0.01293143630027771
1761305284223889200,3.17588916015625,-0.043549537658691406,0.031773731112480164,0.00503559410572052
1761305284240723200,3.19272314453125,-0.03951835632324219,0.024534329771995544,-0.00010358542203903198
1761305284257548800,3.209548828125,-0.04197406768798828,0.003180459141731262,0.0001972988247871399
1761305284274364200,3.2263642578125,-0.04055500030517578,-0.013956636190414429,-0.008943259716033936
1761305284291175200,3.243175048828125,-0.04034423828125,-0.020045295357704163,-0.011550553143024445
1761305284308016000,3.26001611328125,-0.039658546447753906,-0.023695647716522217,0.0009104982018470764
1761305284324834600,3.27683447265625,-0.04313182830810547,-0.011525988578796387,0.0013092383742332458
1761305284341666300,3.293666259765625,-0.03780841827392578,0.006620585918426514,0.00720369815826416
1761305284358467800,3.3104677734375,-0.04285144805908203,0.014545485377311707,0.011028267443180084
1761305284375293000,3.32729296875,-0.04069328308105469,0.020875155925750732,0.008635848760604858
1761305284392105200,3.344105224609375,-0.04150390625,0.010738611221313477,0.0019547566771507263
1761305284408930600,3.3609306640625,-0.04048633575439453,-0.000588536262512207,-0.004940398037433624
1761305284425764000,3.37776416015625,-0.04033088684082031,-0.009725496172904968,-0.011101454496383667
1761305284442588200,3.394588134765625,-0.041446685791015625,-0.019912108778953552,-0.014989316463470459
1761305284459424800,3.4114248046875,-0.04467964172363281,-0.02077294886112213,-0.014889933168888092
1761305284476246000,3.42824609375,-0.043892860412597656,-0.01173168420791626,-0.011484555900096893
1761305284493076200,3.445076171875,-0.04377460479736328,0.00237920880317688,-0.006871894001960754
1761305284509890300,3.461890380859375,-0.048956871032714844,0.01956525444984436,-0.0003571435809135437
1761305284526713300,3.47871337890625,-0.042632102966308594,0.031501248478889465,0.0057951658964157104
1761305284543545300,3.49554541015625,-0.046654701232910156,0.043544620275497437,0.009976230561733246
1761305284560359400,3.512359375,-0.04241371154785156,0.04123218357563019,0.011336192488670349
1761305284577180200,3.52918017578125,-0.037708282470703125,0.02986939251422882,0.008725732564926147
1761305284593990100,3.545990234375,-0.043982505798339844,0.015950515866279602,0.005290821194648743
1761305284610817000,3.562817138671875,-0.04379844665527344,-0.002491310238838196,0.002417340874671936
1761305284627643000,3.579642822265625,-0.03791999816894531,-0.018560782074928284,-0.006058394908905029
1761305284644467000,3.596467041015625,-0.037029266357421875,-0.02675652503967285,-0.0004519820213317871
1761305284661286400,3.613286376953125,-0.040955543518066406,-0.026187345385551453,0.010323718190193176
1761305284678116400,3.630116455078125,-0.042690277099609375,-0.027308404445648193,0.01115921139717102
1761305284694933200,3.646933349609375,-0.047013282775878906,-0.015262752771377563,0.012500755488872528
1761305284711779300,3.663779296875,-0.046036720275878906,-0.001103326678276062,0.015719309449195862
1761305284728596500,3.680596435546875,-0.047878265380859375,0.019078657031059265,0.00633886456489563
1761305284745420500,3.697420654296875,-0.043107032775878906,0.027144819498062134,-0.005514375865459442
1761305284762232000,3.714232177734375,-0.039460182189941406,0.028798788785934448,-0.014258399605751038
1761305284779068200,3.731068115234375,-0.039559364318847656,0.02373547852039337,-0.019507698714733124
1761305284795889400,3.747889404296875,-0.042987823486328125,0.024098902940750122,-0.013355433940887451
1761305284812712700,3.764712646484375,-0.03524208068847656,0.013796716928482056,-0.00329434871673584
1761305284829540400,3.781540283203125,-0.035488128662109375,0.008264675736427307,-0.0017852112650871277
1761305284846352000,3.798351806640625,-0.06454849243164062,0.00635954737663269,0.006869561970233917
1761305284863168300,3.815168212890625,-0.04378795623779297,-0.006323531270027161,0.004277721047401428
1761305284879992000,3.831991943359375,-0.02515125274658203,-0.00868619978427887,0.018499448895454407
1761305284896814600,3.848814697265625,-0.043895721435546875,-0.025188609957695007,-0.010036967694759369
1761305284913638700,3.865638671875,-0.037960052490234375,-0.027652159333229065,-0.009291671216487885
1761305284930461400,3.88246142578125,-0.042263031005859375,-0.02114337682723999,-0.014440774917602539
1761305284947288600,3.89928857421875,-0.041007041931152344,0.0030317306518554688,-0.00996166467666626
1761305284964105000,3.91610498046875,-0.03945732116699219,0.01697482168674469,-0.00043022632598876953
1761305284980945700,3.932945556640625,-0.044646263122558594,0.03411939740180969,0.0019852593541145325
1761305284997768000,3.949767822265625,-0.045067787170410156,0.03603494167327881,0.010148093104362488
1761305285014575000,3.9665751953125,-0.041072845458984375,0.03618989884853363,0.017002686858177185
1761305285031414800,3.983414794921875,-0.039333343505859375,0.029168471693992615,0.016369149088859558
1761305285048241700,4.00024169921875,-0.04426383972167969,0.014938801527023315,0.00527142733335495
1761305285065041000,4.017041015625,-0.03916358947753906,-0.0023798346519470215,-0.002831503748893738
1761305285081880800,4.033880859375,-0.0442352294921875,-0.007149264216423035,-0.012078933417797089
1761305285098694100,4.050694091796875,-0.046792030334472656,-0.024093419313430786,-0.012512266635894775
1761305285115505700,4.067505615234375,-0.04425239562988281,-0.019644498825073242,-0.01255565881729126
1761305285132335400,4.08433544921875,-0.04500770568847656,-0.012069329619407654,-0.007857166230678558
1761305285149169000,4.1011689453125,-0.043984413146972656,0.004146859049797058,0.005165413022041321
1761305285165986300,4.117986328125,-0.044968605041503906,0.010012030601501465,0.0053549036383628845
1761305285182810600,4.134810546875,-0.04690361022949219,0.01895444095134735,0.006636045873165131
1761305285199634200,4.15163427734375,-0.04327964782714844,0.020248204469680786,0.0015336722135543823
1761305285216470800,4.168470703125,-0.040801048278808594,0.009403809905052185,0.005986236035823822
1761305285233292800,4.185292724609375,-0.04448699951171875,-0.011330842971801758,0.0014301612973213196
1761305285250117400,4.202117431640625,-0.040984153747558594,-0.00871238112449646,-0.003232911229133606
1761305285266929000,4.218928955078125,-0.04565238952636719,-0.012340962886810303,0.00013981759548187256
1761305285283766800,4.235766845703125,-0.042298316955566406,-0.005996078252792358,-0.0062960609793663025
1761305285300590000,4.252590087890625,-0.04372119903564453,0.011162132024765015,-0.0025284811854362488
1761305285317406000,4.269406005859375,-0.03945159912109375,0.02354845404624939,0.0032612159848213196
1761305285334232600,4.286232666015625,-0.040368080139160156,0.028820186853408813,0.0030690953135490417
1761305285351039200,4.303039306640625,-0.05027580261230469,0.025532543659210205,0.008242100477218628
1761305285367864000,4.319864013671875,-0.04072856903076172,0.0139312744140625,0.008931167423725128
1761305285384690700,4.336690673828125,-0.043994903564453125,-0.0029094666242599487,0.003269083797931671
1761305285401511700,4.35351171875,-0.04384326934814453,-0.010135680437088013,0.004154570400714874
1761305285418333200,4.370333251953125,-0.03911113739013672,-0.02345411479473114,-0.001572735607624054
1761305285435160600,4.38716064453125,-0.041319847106933594,-0.017406225204467773,-0.0035879164934158325
1761305285451984600,4.403984619140625,-0.04165172576904297,-0.007103219628334045,-0.005038715898990631
1761305285468811300,4.420811279296875,-0.03942394256591797,0.009588643908500671,-0.0010603070259094238
1761305285485649400,4.4376494140625,-0.04201030731201172,0.01733696460723877,0.003660164773464203
1761305285502450000,4.454449951171875,-0.04481983184814453,0.02481083571910858,0.007355965673923492
1761305285519284700,4.47128466796875,-0.042179107666015625,0.023642703890800476,0.006088435649871826
1761305285536120600,4.48812060546875,-0.04763031005859375,0.01868918538093567,0.002948284149169922
1761305285552926000,4.504926025390625,-0.04374217987060547,0.006901279091835022,0.0025486722588539124
1761305285569754600,4.521754638671875,-0.040877342224121094,-0.0011586695909500122,0.0002799034118652344
1761305285586568400,4.538568359375,-0.042229652404785156,-0.008704334497451782,-0.004697278141975403
1761305285603378000,4.5553779296875,-0.037865638732910156,-0.010526522994041443,-0.005861610174179077
1761305285620209200,4.572209228515625,-0.038849830627441406,-0.0049353837966918945,-0.0008715838193893433
1761305285637042200,4.589042236328125,-0.042410850524902344,0.0011114329099655151,0.005059458315372467
1761305285653861400,4.605861328125,-0.05058479309082031,0.013658374547958374,0.007166348397731781
1761305285670683600,4.62268359375,-0.044189453125,0.01257997751235962,0.003335997462272644
1761305285687508200,4.63950830078125,-0.045009613037109375,0.010681882500648499,0.0025887489318847656
1761305285704341800,4.656341796875,-0.03700733184814453,0.006425186991691589,-0.0015290528535842896
1761305285721170000,4.673169921875,-0.03693199157714844,0.01170523464679718,-0.0002929568290710449
1761305285737977900,4.689977783203125,-0.038421630859375,0.0037696808576583862,-0.005978159606456757
1761305285754810400,4.706810302734375,-0.03892993927001953,0.00553467869758606,0.0001258254051208496
1761305285771640600,4.723640625,-0.04599571228027344,0.001637384295463562,0.002812311053276062
1761305285788461000,4.7404609375,-0.04170513153076172,0.005122169852256775,-0.0009079203009605408
1761305285805281000,4.757281005859375,-0.04284191131591797,0.006782591342926025,0.00500006228685379
1761305285822109000,4.77410888671875,-0.04707622528076172,0.009900063276290894,0.004658102989196777
1761305285838912500,4.79091259765625,-0.04722785949707031,0.005232289433479309,0.0017179474234580994
1761305285855740000,4.807739990234375,-0.04546356201171875,0.007489398121833801,0.002429261803627014
1761305285872562400,4.8245625,-0.04405975341796875,0.0030652284622192383,-0.0015472471714019775
1761305285889386200,4.84138623046875,-0.042713165283203125,-0.000016108155250549316,-0.0032483264803886414
1761305285906208500,4.85820849609375,-0.04072284698486328,-0.004558339715003967,0.0005291402339935303
1761305285923033000,4.875033203125,-0.039282798767089844,0.00001539289951324463,0.0023191049695014954
1761305285939868200,4.8918681640625,-0.04605293273925781,0.0035232752561569214,0.006609588861465454
1761305285956693200,4.908693359375,-0.04122638702392578,0.009310141205787659,0.007382065057754517
1761305285973515800,4.925515869140625,-0.03936004638671875,0.006065055727958679,0.002256721258163452
1761305285990312700,4.942312744140625,-0.0390777587890625,0.004495248198509216,0.001409582793712616
1761305286007157500,4.959157470703125,-0.03469085693359375,0.007120236754417419,-0.0016025155782699585
1761305286023990000,4.975989990234375,-0.03922557830810547,0.009793475270271301,-0.005003795027732849
1761305286040808400,4.992808349609375,-0.04476451873779297,0.010240525007247925,-0.011805318295955658
1761305286057628700,5.009628662109375,-0.03683280944824219,0.003218024969100952,-0.0128936767578125
1761305286074441700,5.026441650390625,-0.04326629638671875,0.005142837762832642,-0.008993200957775116
1761305286091265300,5.043265380859375,-0.0414581298828125,0.0013204514980316162,-0.0013870075345039368
1761305286108087600,5.060087646484375,-0.04166984558105469,0.0008549243211746216,0.006115421652793884
1761305286124898800,5.07689892578125,-0.046410560607910156,-0.00318010151386261,0.010134465992450714
1761305286141731000,5.09373095703125,-0.039005279541015625,0.0013957172632217407,0.010659664869308472
1761305286158561300,5.110561279296875,-0.037238121032714844,0.0026397407054901123,0.00848960131406784
1761305286175398000,5.12739794921875,-0.04281806945800781,0.005166545510292053,0.0033695846796035767
1761305286192218400,5.14421826171875,-0.03781604766845703,0.002571314573287964,-0.0025612637400627136
1761305286209015800,5.161015869140625,-0.03819465637207031,0.002138480544090271,-0.002241864800453186
1761305286225865700,5.17786572265625,-0.040038108825683594,-0.001920744776725769,-0.006227359175682068
1761305286242686200,5.194686279296875,-0.03853034973144531,-0.0007498860359191895,-0.00387466698884964
1761305286259516400,5.211516357421875,-0.0430145263671875,0.007442250847816467,-0.003436952829360962
1761305286276328400,5.228328369140625,-0.04076671600341797,0.008738577365875244,-0.0004761219024658203
1761305286293158700,5.24515869140625,-0.04485607147216797,0.010005712509155273,-0.0018295571208000183
1761305286309980400,5.26198046875,-0.043323516845703125,0.010197162628173828,0.00784185528755188
1761305286326787800,5.278787841796875,-0.04488086700439453,0.014223650097846985,0.013324141502380371
1761305286343613200,5.29561328125,-0.04105186462402344,0.005681782960891724,0.011243864893913269
1761305286360437000,5.31243701171875,-0.0416107177734375,0.005461513996124268,0.005094908177852631
1761305286377246200,5.32924609375,-0.04348278045654297,-0.0004533827304840088,0.0019103437662124634
1761305286394083600,5.34608349609375,-0.050750732421875,-0.007656529545783997,-0.003741323947906494
1761305286410889700,5.3628896484375,-0.04636669158935547,-0.01164621114730835,-0.013322152197360992
1761305286427750100,5.379750244140625,-0.04939842224121094,-0.0034690499305725098,-0.007749117910861969
1761305286444562200,5.396562255859375,-0.04579639434814453,0.001781553030014038,0.001886412501335144
1761305286461390600,5.413390625,-0.040541648864746094,0.004805833101272583,0.002716347575187683
1761305286478200800,5.430200927734375,-0.04039764404296875,0.007490038871765137,0.005730323493480682
1761305286495038000,5.447037841796875,-0.040373802185058594,0.012702077627182007,0.006158486008644104
1761305286511858200,5.463858154296875,-0.045078277587890625,0.017666935920715332,0.008466742932796478
1761305286528667000,5.4806669921875,-0.04221820831298828,0.01545579731464386,0.005376823246479034
1761305286545502000,5.497501953125,-0.04357433319091797,0.009814336895942688,0.00201532244682312
1761305286562316800,5.51431689453125,-0.04312610626220703,0.0020965933799743652,-0.002526715397834778
1761305286579125200,5.531125244140625,-0.03936481475830078,-0.002049878239631653,-0.010259568691253662
1761305286595962600,5.547962646484375,-0.03908061981201172,-0.006764605641365051,0.003710836172103882
1761305286612785000,5.564784912109375,-0.04310035705566406,-0.007502734661102295,0.005789272487163544
1761305286629595600,5.581595703125,-0.03899383544921875,-0.0004655569791793823,0.005976878106594086
1761305286646431500,5.598431396484375,-0.04129791259765625,0.007553502917289734,0.007780291140079498
1761305286663268400,5.615268310546875,-0.04164600372314453,0.009895265102386475,0.007424183189868927
1761305286680096000,5.632095947265625,-0.03991413116455078,0.006185784935951233,0.004364915192127228
1761305286696901600,5.648901611328125,-0.042578697204589844,0.003688797354698181,0.003984622657299042
1761305286713738000,5.665738037109375,-0.044768333435058594,-0.001854240894317627,-0.000703960657119751
1761305286730542000,5.6825419921875,-0.04725170135498047,0.002020791172981262,-0.011912398040294647
1761305286747394600,5.69939453125,-0.04292106628417969,-0.0004601478576660156,-0.009012579917907715
1761305286764201700,5.71620166015625,-0.04240608215332031,0.005569741129875183,-0.00964810699224472
1761305286781031200,5.73303125,-0.038265228271484375,0.005284324288368225,-0.005549021065235138
1761305286797828600,5.74982861328125,-0.04412078857421875,0.0040107667446136475,0.00022815167903900146
1761305286814671600,5.766671630859375,-0.0438690185546875,0.0009161978960037231,0.008003346621990204
1761305286831487700,5.78348779296875,-0.039771080017089844,-0.006514951586723328,0.00785893201828003
1761305286848308500,5.80030859375,-0.04028892517089844,-0.004747793078422546,0.006036423146724701
1761305286865136600,5.81713671875,-0.03565406799316406,-0.004354432225227356,0.0028038769960403442
1761305286881954300,5.833954345703125,-0.04258918762207031,-0.005478888750076294,0.009257957339286804
1761305286898780400,5.850780517578125,-0.04071235656738281,0.0014014989137649536,0.003865547478199005
1761305286915606500,5.8676064453125,-0.04854869842529297,0.007782310247421265,0.0036053285002708435
1761305286932427300,5.88442724609375,-0.04275226593017578,0.013810649514198303,0.0023319795727729797
1761305286949267500,5.901267333984375,-0.045165061950683594,0.01655900478363037,-0.001987352967262268
1761305286966083300,5.918083251953125,-0.04922294616699219,0.01348547637462616,0.0002618134021759033
1761305286982915800,5.934915771484375,-0.04591655731201172,0.01191161572933197,-0.004415921866893768
1761305286999732000,5.95173193359375,-0.05240154266357422,-0.00045339763164520264,-0.01219506561756134
1761305287016556500,5.968556640625,-0.045119285583496094,-0.0023669302463531494,-0.008233174681663513
1761305287033366500,5.985366455078125,-0.04336738586425781,-0.004904597997665405,-0.004823736846446991
1761305287050172700,6.002172607421875,-0.043099403381347656,0.002939194440841675,-0.001993723213672638
1761305287067013400,6.019013427734375,-0.044844627380371094,0.005299597978591919,0.00726056843996048
1761305287083835600,6.035835693359375,-0.04397106170654297,0.00861947238445282,0.009739972651004791
1761305287100659500,6.052659423828125,-0.04497528076171875,0.0044584572315216064,0.008289001882076263
1761305287117482000,6.06948193359375,-0.042205810546875,0.005508393049240112,0.003976084291934967
1761305287134306300,6.086306396484375,-0.04471397399902344,0.0037501752376556396,-0.0059023573994636536
1761305287151145700,6.103145751953125,-0.046596527099609375,-0.0017269104719161987,-0.010338671505451202
1761305287167966700,6.119966796875,-0.03725624084472656,-0.011776089668273926,-0.007604561746120453
1761305287184795100,6.136795166015625,-0.04004192352294922,-0.013163164258003235,-0.008170045912265778
1761305287201607000,6.15360693359375,-0.04731178283691406,-0.00885598361492157,-0.006617285311222076
1761305287218435800,6.170435791015625,-0.042563438415527344,-0.0018768459558486938,0.006454497575759888
1761305287235271000,6.18727099609375,-0.037784576416015625,0.009525090456008911,0.008436337113380432
1761305287252073200,6.2040732421875,-0.04697418212890625,0.01817077398300171,0.017934411764144897
1761305287268914700,6.220914794921875,-0.046092987060546875,0.02223287522792816,0.009522631764411926
1761305287285745400,6.237745361328125,-0.045311927795410156,0.016906648874282837,0.01191142201423645
1761305287302551800,6.2545517578125,-0.045192718505859375,0.01615254580974579,0.0023592710494995117
1761305287319358500,6.2713583984375,-0.039325714111328125,0.005640134215354919,-0.0008614212274551392
1761305287336176600,6.2881767578125,-0.04428672790527344,0.0004894286394119263,-0.0066250041127204895
1761305287353006000,6.305006103515625,-0.03955268859863281,0.00042034685611724854,-0.008591659367084503
1761305287369833000,6.3218330078125,-0.040252685546875,-0.003489956259727478,-0.004806980490684509
1761305287386642000,6.338641845703125,-0.03922462463378906,-0.004834949970245361,0.00270833820104599
1761305287403475200,6.35547509765625,-0.0402069091796875,-0.0014874935150146484,0.002077043056488037
1761305287420320300,6.3723203125,-0.050263404846191406,0.006061911582946777,0.0008584111928939819
1761305287437138200,6.38913818359375,-0.04366493225097656,0.0013077259063720703,0.001774020493030548
1761305287453960700,6.405960693359375,-0.044940948486328125,0.0035249292850494385,-0.0033082887530326843
1761305287470785000,6.422784912109375,-0.04285907745361328,0.004950776696205139,0.00005386769771575928
1761305287487607000,6.43960693359375,-0.040757179260253906,0.004040256142616272,-0.0034329816699028015
1761305287504427000,6.456427001953125,-0.04057884216308594,0.006177455186843872,-0.004981197416782379
1761305287521257500,6.473257568359375,-0.04447364807128906,0.012288033962249756,0.0011661127209663391
1761305287538060800,6.490060791015625,-0.0515594482421875,0.004454359412193298,0.003832124173641205
1761305287554886700,6.50688671875,-0.008147239685058594,0.003941088914871216,-0.006804309785366058
1761305287571710200,6.523710205078125,-0.03777503967285156,0.0027693510055541992,0.010325342416763306
1761305287588518400,6.540518310546875,-0.04339885711669922,-0.008059442043304443,0.004649162292480469
1761305287605346000,6.557345947265625,-0.039702415466308594,-0.01320485770702362,-0.00031541287899017334
1761305287622179600,6.5741796875,-0.04905509948730469,-0.004136621952056885,-0.006272442638874054
1761305287639016400,6.591016357421875,-0.0431976318359375,-0.001550033688545227,-0.008220240473747253
1761305287655843600,6.607843505859375,-0.04194831848144531,0.007986247539520264,-0.0014668181538581848
1761305287672663600,6.62466357421875,-0.040618896484375,0.012407422065734863,0.007770933210849762
1761305287689478700,6.641478759765625,-0.04269218444824219,0.021264702081680298,0.011424094438552856
1761305287706313500,6.6583134765625,-0.045932769775390625,0.016677141189575195,0.010832622647285461
1761305287723132200,6.675132080078125,-0.045284271240234375,0.011973902583122253,0.007715754210948944
1761305287739940000,6.691940185546875,-0.04518604278564453,0.0101642906665802,0.0021185874938964844
1761305287756776000,6.70877587890625,-0.044175148010253906,-0.0011460185050964355,-0.003916606307029724
1761305287773606000,6.72560595703125,-0.04944419860839844,-0.006942838430404663,-0.012429870665073395
1761305287790425600,6.742425537109375,-0.04467582702636719,-0.008921891450881958,-0.009030789136886597
1761305287807229200,6.759229248046875,-0.04038047790527344,-0.013298198580741882,-0.005461879074573517
1761305287824061700,6.776061767578125,-0.04736328125,-0.010950237512588501,-0.0026407390832901
1761305287840882200,6.792882080078125,-0.03851318359375,0.0015340149402618408,0.0005263388156890869
1761305287857704700,6.80970458984375,-0.04302215576171875,0.009269893169403076,0.00213826447725296
1761305287874516000,6.826515869140625,-0.039643287658691406,0.017890602350234985,0.008239880204200745
1761305287891347700,6.84334765625,-0.04242134094238281,0.01625579595565796,0.001539960503578186
1761305287908195800,6.86019580078125,-0.04475116729736328,0.011988833546638489,-0.0017280206084251404
1761305287925011200,6.87701123046875,-0.042830467224121094,0.011227533221244812,0.0007636994123458862
1761305287941807400,6.893807373046875,-0.04189109802246094,-0.006329074501991272,-0.002858102321624756
1761305287958642400,6.910642333984375,-0.04060935974121094,-0.014081060886383057,-0.009280256927013397
1761305287975465000,6.92746484375,-0.03927421569824219,-0.01225745677947998,-0.0024876669049263
1761305287992305000,6.944304931640625,-0.039073944091796875,-0.010874375700950623,-0.00031982362270355225
1761305288009128200,6.961128173828125,-0.04602813720703125,-0.005440890789031982,0.0011615082621574402
1761305288025933800,6.977933837890625,-0.04821968078613281,0.005237609148025513,0.008323870599269867
1761305288042761200,6.99476123046875,-0.04448509216308594,0.014468580484390259,0.009515918791294098
1761305288059580000,7.011579833984375,-0.04136085510253906,0.022847920656204224,0.0038916543126106262
1761305288076411400,7.028411376953125,-0.04509258270263672,0.02813097834587097,0.0020077526569366455
1761305288093230300,7.045230224609375,-0.039302825927734375,0.020784705877304077,0.004536047577857971
1761305288110054100,7.06205419921875,-0.044643402099609375,0.022468015551567078,0.0035221800208091736
1761305288126893800,7.078893798828125,-0.04522705078125,0.012871429324150085,0.0007909238338470459
1761305288143710700,7.095710693359375,-0.04732799530029297,0.008385732769966125,-0.004419103264808655
1761305288160541000,7.112541015625,-0.0711507797241211,0.00555381178855896,0.00746995210647583
1761305288177340200,7.129340087890625,-0.03654289245605469,-0.007292002439498901,0.00011847913265228271
1761305288194171000,7.1461708984375,-0.02872943878173828,-0.011537894606590271,-0.0034457817673683167
1761305288211007500,7.163007568359375,-0.03747081756591797,-0.017736345529556274,0.000171661376953125
1761305288227826200,7.179826171875,-0.048709869384765625,-0.020988717675209045,0.00718168169260025
1761305288244657400,7.196657470703125,-0.04862213134765625,-0.021459251642227173,0.003632277250289917
1761305288261478100,7.21347802734375,-0.04454803466796875,-0.011150449514389038,0.00019259005784988403
1761305288278298600,7.230298583984375,-0.04214763641357422,0.0001808851957321167,-0.0014429911971092224
1761305288295106300,7.247106201171875,-0.04215049743652344,0.015217170119285583,0.0023372024297714233
1761305288311933000,7.263932861328125,-0.047776222229003906,0.024928346276283264,0.00527220219373703
1761305288328767700,7.280767822265625,-0.047204017639160156,0.03234878182411194,0.006748825311660767
1761305288345579800,7.297579833984375,-0.04598045349121094,0.026428967714309692,0.0029886364936828613
1761305288362402000,7.314402099609375,-0.04415416717529297,0.013191178441047668,0.003148600459098816
1761305288379225900,7.331225830078125,-0.04793548583984375,0.002061799168586731,0.0031692683696746826
1761305288396065500,7.3480654296875,-0.04444599151611328,-0.01426665484905243,0.0009624138474464417
1761305288412873000,7.364873046875,-0.043918609619140625,-0.021279171109199524,-0.002281464636325836
1761305288429705000,7.381705078125,-0.03912639617919922,-0.02055196464061737,0.0013575702905654907
1761305288446532600,7.39853271484375,-0.03547382354736328,-0.01223309338092804,0.0020685195922851562
1761305288463359200,7.415359130859375,-0.04775524139404297,-0.0017124414443969727,0.008056528866291046
1761305288480180000,7.432179931640625,-0.04185676574707031,0.01901799440383911,0.0042584240436553955
1761305288497002000,7.449001953125,-0.04886436462402344,0.027313053607940674,0.004342339932918549
1761305288513808400,7.465808349609375,-0.04279899597167969,0.0226413756608963,0.009451225399971008
1761305288530631200,7.482631103515625,-0.04494762420654297,0.015641257166862488,0.004999198019504547
1761305288547458800,7.499458740234375,-0.03814697265625,-0.001752316951751709,0.00023650377988815308
1761305288564282000,7.5162822265625,-0.041179656982421875,-0.01137252151966095,-0.0022378340363502502
1761305288581090600,7.533090576171875,-0.04163646697998047,-0.017925620079040527,-0.006640806794166565
1761305288597929000,7.549928955078125,-0.041703224182128906,-0.01591363549232483,-0.00030197203159332275
1761305288614767000,7.56676708984375,-0.040574073791503906,-0.005153834819793701,-0.0011582672595977783
1761305288631562800,7.583562744140625,-0.039267539978027344,0.007406115531921387,0.012781307101249695
1761305288648415000,7.6004150390625,-0.04605388641357422,0.012283071875572205,0.013082630932331085
1761305288665234200,7.617234130859375,-0.04643440246582031,0.0111674964427948,0.011935636401176453
1761305288682058200,7.634058349609375,-0.041660308837890625,0.019052907824516296,0.005929283797740936
1761305288698876700,7.650876708984375,-0.04207420349121094,0.009203657507896423,-0.0031278282403945923
1761305288715708700,7.667708740234375,-0.04583168029785156,0.0037080049514770508,0.0002855658531188965
1761305288732511200,7.68451123046875,-0.04818916320800781,-0.004683837294578552,-0.000972062349319458
1761305288749342700,7.7013427734375,-0.04496955871582031,-0.00473177433013916,0.0005897209048271179
1761305288766182100,7.71818212890625,-0.04919242858886719,-0.0017087459564208984,0.0018853545188903809
1761305288782994400,7.734994384765625,-0.03878593444824219,-0.00017021596431732178,0.004979066550731659
1761305288799806500,7.751806396484375,-0.04305839538574219,0.004132553935050964,0.0008127540349960327
1761305288816630500,7.768630615234375,-0.04385089874267578,0.00576820969581604,-0.0003429129719734192
1761305288833431300,7.785431396484375,-0.045470237731933594,0.00905519723892212,-0.00929330289363861
1761305288850276900,7.80227685546875,-0.047135353088378906,0.009579792618751526,-0.004714369773864746
1761305288867103200,7.819103271484375,-0.04040050506591797,0.016713976860046387,9.611248970031738e-7
1761305288883926300,7.83592626953125,-0.037451744079589844,0.016669362783432007,0.004793919622898102
1761305288900760300,7.85276025390625,-0.04399299621582031,0.01776808500289917,0.015419386327266693
1761305288917584000,7.869583984375,-0.039132118225097656,0.01622912287712097,0.010529942810535431
1761305288934402300,7.88640234375,-0.045386314392089844,0.007755666971206665,0.01671139895915985
1761305288951234300,7.903234375,-0.041131019592285156,-0.0015660524368286133,0.016500644385814667
1761305288968053500,7.920053466796875,-0.04568672180175781,-0.007020682096481323,0.009484924376010895
1761305288984858600,7.936858642578125,-0.03825569152832031,-0.013158097863197327,0.004268832504749298
1761305289001688600,7.9536884765625,-0.03891563415527344,-0.022132664918899536,0.0012356042861938477
1761305289018492000,7.970491943359375,-0.040154457092285156,-0.01364976167678833,0.003114365041255951
1761305289035334700,7.987334716796875,-0.041477203369140625,-0.005347803235054016,-0.001735404133796692
1761305289052156000,8.004156005859375,-0.04460430145263672,0.003981500864028931,0.0016473457217216492
1761305289068972800,8.020972900390625,-0.040389060974121094,0.015625491738319397,-0.006042048335075378
1761305289085798000,8.0377978515625,-0.043816566467285156,0.023073986172676086,-0.006077781319618225
1761305289102646800,8.054646728515625,-0.048399925231933594,0.027494773268699646,-0.008269302546977997
1761305289119458300,8.071458251953125,-0.04617118835449219,0.02511933445930481,-0.007390037178993225
1761305289136285200,8.08828515625,-0.04469871520996094,0.016585007309913635,-0.007336050271987915
1761305289153113300,8.10511328125,-0.045612335205078125,0.013551920652389526,-0.007332444190979004
1761305289169928000,8.121927978515625,-0.04232025146484375,0.011397793889045715,0.00254734605550766
1761305289186759700,8.138759765625,-0.04474449157714844,0.006469175219535828,0.006279356777667999
1761305289203578000,8.155578125,-0.04625129699707031,0.0016049742698669434,0.010859832167625427
1761305289220402400,8.17240234375,-0.04127693176269531,0.006821349263191223,0.019560910761356354
1761305289237224700,8.189224609375,-0.044586181640625,-0.002245783805847168,0.019684508442878723
1761305289254048300,8.20604833984375,-0.04508686065673828,-0.004741564393043518,0.013854175806045532
1761305289270874400,8.222874267578124,-0.044022560119628906,-0.013850882649421692,0.01074274629354477
1761305289287675000,8.2396748046875,-0.04093647003173828,-0.01632547378540039,0.003292866051197052
1761305289304503800,8.25650390625,-0.041604042053222656,-0.021794989705085754,-0.0007393062114715576
1761305289321327900,8.273327880859375,-0.06866741180419922,-0.013773724436759949,-0.000011861324310302734
1761305289338149400,8.2901494140625,-0.028244972229003906,-0.005810275673866272,-0.021531492471694946
1761305289354975200,8.306975341796875,-0.04228782653808594,0.014630183577537537,-0.009261779487133026
1761305289371797000,8.323796875,-0.034152984619140625,0.03181755542755127,-0.007488332688808441
1761305289388621600,8.34062158203125,-0.03407478332519531,0.030415698885917664,-0.007343165576457977
1761305289405456100,8.3574560546875,-0.04107093811035156,0.03267556428909302,0.002412550151348114
1761305289422284500,8.374284423828126,-0.050889015197753906,0.025964826345443726,0.01099085807800293
1761305289439101200,8.39110107421875,-0.04896068572998047,0.012821972370147705,0.007755175232887268
1761305289455915500,8.40791552734375,-0.045746803283691406,0.005579203367233276,0.006041102111339569
1761305289472745700,8.424745849609375,-0.04412555694580078,-0.003710642457008362,-0.00013554096221923828
1761305289489561000,8.44156103515625,-0.04323005676269531,-0.005130171775817871,-0.0033568739891052246
1761305289506382800,8.4583828125,-0.044884681701660156,-0.005415990948677063,-0.002780511975288391
1761305289523206700,8.47520654296875,-0.04399585723876953,-0.008239388465881348,0.007079474627971649
1761305289540017400,8.492017333984375,-0.04500102996826172,-0.013890504837036133,0.009574688971042633
1761305289556854300,8.508854248046875,-0.03816795349121094,-0.017665952444076538,0.015106461942195892
1761305289573675000,8.525675048828125,-0.038918495178222656,-0.015265107154846191,0.017018593847751617
1761305289590517000,8.54251708984375,-0.04017066955566406,-0.01896624267101288,0.015080124139785767
1761305289607331800,8.559331787109375,-0.0444183349609375,-0.009533196687698364,0.0037970468401908875
1761305289624150800,8.57615087890625,-0.04429340362548828,0.0039665549993515015,-0.0026491060853004456
1761305289640982800,8.592982666015626,-0.046199798583984375,0.014226630330085754,-0.011044874787330627
1761305289657806600,8.609806640625,-0.03998851776123047,0.022165462374687195,-0.012322649359703064
1761305289674612200,8.6266123046875,-0.04489707946777344,0.030386149883270264,-0.006819918751716614
1761305289691453200,8.643453125,-0.04856681823730469,0.03264947235584259,0.0028012245893478394
1761305289708275700,8.660275634765625,-0.046199798583984375,0.025927871465682983,0.0024306699633598328
1761305289725092400,8.67709228515625,-0.036705970764160156,0.013809338212013245,0.007722899317741394
1761305289741928700,8.6939287109375,-0.03691291809082031,-0.009424224495887756,0.005603589117527008
1761305289758751000,8.7107509765625,-0.0369415283203125,-0.029113098978996277,0.010477028787136078
1761305289775551500,8.727551513671875,-0.038079261779785156,-0.03310614824295044,0.0072621554136276245
1761305289792378600,8.744378662109375,-0.044096946716308594,-0.034727662801742554,0.007951155304908752
1761305289809201200,8.761201171875,-0.03688621520996094,-0.02398340404033661,0.003900289535522461
1761305289826025200,8.778025146484374,-0.041647911071777344,-0.005098789930343628,0.005001790821552277
1761305289842848000,8.794847900390625,-0.046431541442871094,0.01978825032711029,0.007828496396541595
1761305289859668500,8.81166845703125,-0.04573631286621094,0.028661534190177917,0.0012398362159729004
1761305289876494000,8.828494140625,-0.04057502746582031,0.033368438482284546,0.005739137530326843
1761305289893332200,8.845332275390625,-0.038005828857421875,0.023104026913642883,-0.0006470978260040283
1761305289910158800,8.862158935546875,-0.04167747497558594,0.021555572748184204,-0.004880912601947784
1761305289926978300,8.878978271484375,-0.045157432556152344,0.019013628363609314,-0.008325032889842987
1761305289943800800,8.89580078125,-0.04568290710449219,0.006446167826652527,-0.013962209224700928
1761305289960625400,8.91262548828125,-0.04383373260498047,0.0004951804876327515,-0.008504711091518402
1761305289977424600,8.929424560546876,-0.04091072082519531,0.0037591755390167236,-0.0036919191479682922
1761305289994258400,8.946258544921875,-0.044531822204589844,0.009326890110969543,0.001269221305847168
1761305290011079400,8.963079345703125,-0.04686546325683594,0.009091541171073914,0.011838190257549286
1761305290027904500,8.979904541015625,-0.04364776611328125,0.007856637239456177,0.011644460260868073
1761305290044726800,8.996726806640625,-0.042672157287597656,0.0018389225006103516,0.008683867752552032
1761305290061547000,9.013547119140625,-0.03959465026855469,-0.0029144883155822754,0.001261398196220398
1761305290078383600,9.030383544921875,-0.04253959655761719,-0.013532683253288269,-0.000937826931476593
1761305290095201300,9.047201171875,-0.04184913635253906,-0.013417944312095642,-0.005315601825714111
1761305290112037000,9.064037109375,-0.0406036376953125,-0.007363706827163696,-0.0012043267488479614
1761305290128857900,9.08085791015625,-0.04333972930908203,-0.0035813897848129272,0.004660196602344513
1761305290145679000,9.09767919921875,-0.044892311096191406,0.0010677725076675415,0.008454374969005585
1761305290162503700,9.114503662109374,-0.03927421569824219,0.0070655494928359985,0.012424938380718231
1761305290179327200,9.1313271484375,-0.043135643005371094,0.014971762895584106,0.0037229135632514954
1761305290196134100,9.148134033203124,-0.04116249084472656,0.01845914125442505,-0.00351637601852417
1761305290212972800,9.164972900390625,-0.04100513458251953,0.019004061818122864,-0.0068496763706207275
1761305290229797000,9.181797119140626,-0.043257713317871094,0.016085714101791382,-0.007382191717624664
1761305290246619600,9.19861962890625,-0.04830741882324219,0.012766271829605103,-0.007382199168205261
1761305290263426600,9.215426513671876,-0.04015922546386719,0.009923726320266724,-0.003364779055118561
1761305290280252000,9.232251953125,-0.039208412170410156,-0.0014263391494750977,0.0040807053446769714
1761305290297076200,9.249076171875,-0.036141395568847656,-0.011296823620796204,0.010366305708885193
1761305290313901800,9.26590185546875,-0.04152393341064453,-0.01388135552406311,0.008445046842098236
1761305290330719500,9.282719482421875,-0.04055023193359375,-0.012450754642486572,0.011106885969638824
1761305290347532000,9.299531982421875,-0.042191505432128906,-0.009980052709579468,0.008520349860191345
1761305290364386300,9.31638623046875,-0.04243755340576172,-0.003683626651763916,0.005261063575744629
1761305290381189000,9.333189208984376,-0.043608665466308594,0.003700360655784607,0.0026398226618766785
1761305290398027000,9.350027099609376,-0.042649269104003906,0.010638505220413208,0.0010901615023612976
1761305290414854100,9.366854248046875,-0.04591846466064453,0.009843304753303528,-0.0021554231643676758
1761305290431649000,9.38364892578125,-0.039794921875,0.011403128504753113,-0.0014788061380386353
1761305290448498400,9.40049853515625,-0.04449176788330078,0.011043444275856018,0.00047218799591064453
1761305290465292000,9.4172919921875,-0.043784141540527344,0.016753822565078735,0.0007207170128822327
1761305290482131000,9.434130859375,-0.048026084899902344,0.012800976634025574,0.0007234364748001099
1761305290498955300,9.450955322265624,-0.04559898376464844,0.010034993290901184,0.004693858325481415
1761305290515777800,9.46777783203125,-0.04230499267578125,0.0027741342782974243,0.009311504662036896
1761305290532601600,9.4846015625,-0.042456626892089844,-0.0006079524755477905,0.004069715738296509
1761305290549421300,9.50142138671875,-0.040691375732421875,-0.005855381488800049,0.0033421590924263
1761305290566268400,9.518268310546874,-0.040427207946777344,-0.007852301001548767,0.0008555799722671509
1761305290583084300,9.535084228515625,-0.04038810729980469,-0.004110261797904968,0.0027720630168914795
1761305290599905800,9.55190576171875,-0.043305397033691406,-0.008656591176986694,-0.0022192075848579407
1761305290616729300,9.568729248046875,-0.043463706970214844,0.0034298300743103027,-0.004075728356838226
1761305290633555000,9.585554931640624,-0.04085063934326172,0.006248548626899719,0.0008518993854522705
1761305290650374000,9.602373779296874,-0.04451751708984375,0.011880874633789062,0.0016069486737251282
1761305290667205400,9.619205322265625,-0.049782752990722656,0.012769833207130432,0.004592791199684143
1761305290684023600,9.6360234375,-0.04002189636230469,0.012831762433052063,0.007271245121955872
1761305290700843000,9.652843017578125,-0.04439544677734375,0.013920798897743225,0.00357142835855484
1761305290717676000,9.669676025390626,-0.043923377990722656,0.0070054978132247925,0.00297468900680542
1761305290734496500,9.68649658203125,-0.04206275939941406,0.004840105772018433,0.004726037383079529
1761305290751311000,9.70331103515625,-0.04876518249511719,0.004614934325218201,-0.0020344480872154236
1761305290768127500,9.72012744140625,-0.04571533203125,0.001749575138092041,-0.00599883496761322
1761305290784936400,9.7369365234375,-0.04832267761230469,0.001209065318107605,-0.007753297686576843
1761305290801761000,9.753760986328125,-0.04465770721435547,0.003967747092247009,-0.0003684014081954956
1761305290818598700,9.7705986328125,-0.03697490692138672,0.009639173746109009,0.005295947194099426
1761305290835408400,9.787408447265625,-0.04101371765136719,0.013396963477134705,0.007183246314525604
1761305290852240400,9.804240478515625,-0.04455089569091797,0.002826973795890808,0.006242439150810242
1761305290869069600,9.821069580078126,-0.04102611541748047,0.0022868067026138306,0.010162591934204102
1761305290885902600,9.837902587890625,-0.04163169860839844,-0.00004278123378753662,0.0037243589758872986
1761305290902727000,9.854726806640626,-0.04351043701171875,-0.0022157877683639526,-0.00020604580640792847
1761305290919549400,9.871549560546875,-0.04785346984863281,-0.007607176899909973,-0.0031011179089546204
1761305290936369000,9.888368896484375,-0.04481315612792969,-0.005493372678756714,-0.010482639074325562
1761305290953182700,9.9051826171875,-0.04512596130371094,-0.0011004507541656494,-0.004697374999523163
1761305290970006300,9.92200634765625,-0.041108131408691406,0.0014574229717254639,-0.0008199438452720642
1761305290986828500,9.93882861328125,-0.04228496551513672,0.004205361008644104,0.0038231387734413147
1761305291003652600,9.955652587890626,-0.04880237579345703,0.007423415780067444,0.005612775683403015
1761305291020475000,9.972474853515624,-0.04280567169189453,0.001984924077987671,0.0011901631951332092
1761305291037299200,9.98929931640625,-0.04482269287109375,0.0069708675146102905,0.00522816926240921
1761305291054138600,10.006138671875,-0.04220294952392578,0.008863121271133423,0.001834094524383545
1761305291070960000,10.022960205078125,-0.04117774963378906,0.00800679624080658,-0.003866329789161682
1761305291087777800,10.03977783203125,-0.04150962829589844,0.009009048342704773,-0.004664003849029541
1761305291104610000,10.056610107421875,-0.04905509948730469,0.005002230405807495,-0.006558187305927277
1761305291121428200,10.07342822265625,-0.04463005065917969,0.0004126429557800293,0.00014597177505493164
1761305291138252300,10.090252197265626,-0.0439605712890625,-0.00729784369468689,0.002404235303401947
1761305291155064000,10.10706396484375,-0.05106544494628906,-0.013443872332572937,0.0020631253719329834
1761305291171883300,10.12388330078125,-0.05443382263183594,-0.013065993785858154,0.014994733035564423
1761305291188700000,10.140699951171875,-0.033023834228515625,0.0011185258626937866,0.010422386229038239
1761305291205545000,10.157544921875,-0.03954315185546875,0.000028058886528015137,0.00797446072101593
1761305291222380300,10.17438037109375,-0.03276824951171875,0.011051446199417114,-0.003443971276283264
1761305291239196400,10.191196533203126,-0.029275894165039062,0.01907697319984436,-0.012929439544677734
1761305291255989000,10.207989013671876,-0.058567047119140625,0.00775378942489624,0.004424445331096649
