time,seconds_elapsed,z,y,x
1761417565172903200,0.202903076171875,-0.06989288330078125,-0.00941091775894165,0.004121303558349609
1761417565189730000,0.21972998046875,-0.06494522094726562,-0.008141517639160156,0.010845974087715149
1761417565206550800,0.23655078125,-0.043282508850097656,-0.0004387795925140381,-0.0053479671478271484
1761417565223370500,0.25337060546875,-0.0735931396484375,-0.012616127729415894,0.007491201162338257
1761417565240205300,0.270205322265625,-0.0483245849609375,-0.007667273283004761,0.003917664289474487
1761417565257009400,0.287009521484375,-0.05359363555908203,-0.005468904972076416,-0.0005569308996200562
1761417565273851400,0.303851318359375,-0.0662527084350586,-0.008204102516174316,0.008191809058189392
1761417565290673400,0.32067333984375,-0.04770088195800781,-0.009348362684249878,0.00687524676322937
1761417565307492000,0.3374921875,-0.06340789794921875,-0.009730786085128784,0.00156344473361969
1761417565324327200,0.3543271484375,-0.061402320861816406,0.0010240674018859863,0.010196030139923096
1761417565341145900,0.371145751953125,-0.05315589904785156,-0.0035289227962493896,0.0006279647350311279
1761417565357971000,0.387970947265625,-0.06667232513427734,-0.006222546100616455,0.005975678563117981
1761417565374791400,0.40479150390625,-0.054256439208984375,-0.005179792642593384,0.007605373859405518
1761417565391633700,0.421633544921875,-0.050426483154296875,-0.009319424629211426,0.00976535677909851
1761417565408460800,0.438460693359375,-0.06284904479980469,-0.005342960357666016,0.005447611212730408
1761417565425279000,0.455279052734375,-0.05075550079345703,-0.006229609251022339,0.008454561233520508
1761417565442102300,0.472102294921875,-0.0476226806640625,-0.009381622076034546,0.0066847652196884155
1761417565458947800,0.48894775390625,-0.052512168884277344,-0.004595756530761719,-0.0017712414264678955
1761417565475754200,0.505754150390625,-0.05373573303222656,-0.006306350231170654,0.0031854957342147827
1761417565492575700,0.52257568359375,-0.05392169952392578,-0.008747369050979614,0.01152271032333374
1761417565509407200,0.5394072265625,-0.04647254943847656,0.0029004812240600586,-0.000647127628326416
1761417565526228500,0.556228515625,-0.053466796875,-0.00821426510810852,0.0026226788759231567
1761417565543048200,0.573048095703125,-0.06086444854736328,-0.00920790433883667,0.006119877099990845
1761417565559880200,0.589880126953125,-0.059058189392089844,-0.0018741786479949951,-0.0020723193883895874
1761417565576700700,0.60670068359375,-0.06122016906738281,-0.007101655006408691,0.0006428807973861694
1761417565593522000,0.62352197265625,-0.0539093017578125,-0.0027959048748016357,0.010235369205474854
1761417565610336000,0.6403359375,-0.05393409729003906,-0.006991475820541382,-0.0017527937889099121
1761417565627160300,0.657160400390625,-0.058159828186035156,-0.009929805994033813,-0.0015731006860733032
1761417565643984400,0.673984375,-0.05229759216308594,-0.004621326923370361,0.0074395835399627686
1761417565660805000,0.69080517578125,-0.05660820007324219,-0.012624025344848633,0.005369842052459717
1761417565677637000,0.70763720703125,-0.04865074157714844,-0.006843268871307373,0.002072244882583618
1761417565694454500,0.72445458984375,-0.05898284912109375,0.0010148584842681885,0.004305422306060791
1761417565711302100,0.74130224609375,-0.06119346618652344,-0.008893817663192749,0.00038982927799224854
1761417565728104000,0.75810400390625,-0.05210304260253906,-0.0035017430782318115,0.005471900105476379
1761417565744937700,0.774937744140625,-0.05836200714111328,0.00020012259483337402,0.005746692419052124
1761417565761758200,0.79175830078125,-0.059307098388671875,-0.009193629026412964,0.0014088600873947144
1761417565778562600,0.8085625,-0.045477867126464844,-0.0013996660709381104,0.00247211754322052
1761417565795401000,0.82540087890625,-0.05963134765625,-0.007340431213378906,0.0068356990814208984
1761417565812231000,0.84223095703125,-0.05543327331542969,-0.01339694857597351,0.0015467703342437744
1761417565829052700,0.859052734375,-0.050090789794921875,-0.009048551321029663,0.0019794851541519165
1761417565845861600,0.875861572265625,-0.052211761474609375,-0.013444960117340088,0.0031317472457885742
1761417565862701600,0.89270166015625,-0.05838584899902344,-0.008184194564819336,0.006616413593292236
1761417565879525000,0.909525146484375,-0.057532310485839844,-0.00621640682220459,0.0003174245357513428
1761417565896367600,0.92636767578125,-0.05918598175048828,-0.008901476860046387,0.0024070292711257935
1761417565913193200,0.943193115234375,-0.0594329833984375,-0.0035035908222198486,0.0031088441610336304
1761417565930007800,0.9600078125,-0.05476188659667969,-0.006741136312484741,-0.0019259601831436157
1761417565946816000,0.97681591796875,-0.05470466613769531,-0.00788000226020813,0.003951072692871094
1761417565963661800,0.993661865234375,-0.05290699005126953,-0.007503151893615723,0.00978793203830719
1761417565980485000,1.010485107421875,-0.05263710021972656,-0.008080065250396729,0.003734096884727478
1761417565997294000,1.027294189453125,-0.05552387237548828,-0.009202927350997925,0.004012629389762878
1761417566014115300,1.044115234375,-0.055312156677246094,-0.008342564105987549,0.005226552486419678
1761417566030945500,1.060945556640625,-0.053002357482910156,-0.0022816359996795654,-0.0010824352502822876
1761417566047775000,1.07777490234375,-0.05330371856689453,-0.002496659755706787,0.0049378275871276855
1761417566064579300,1.094579345703125,-0.06146526336669922,-0.0067414939403533936,0.0014965087175369263
1761417566081404400,1.111404296875,-0.052791595458984375,-0.010334223508834839,0.000014349818229675293
1761417566098227700,1.128227783203125,-0.054401397705078125,-0.0057221949100494385,0.007918447256088257
1761417566115055400,1.145055419921875,-0.05399513244628906,-0.011543869972229004,0.005532369017601013
1761417566131879000,1.16187890625,-0.06042957305908203,-0.004202723503112793,0.0032559484243392944
1761417566148702000,1.178701904296875,-0.050843238830566406,-0.004870712757110596,0.00031606853008270264
1761417566165527000,1.195527099609375,-0.062226295471191406,-0.010169506072998047,0.002180755138397217
1761417566182351400,1.212351318359375,-0.05988311767578125,-0.0041380226612091064,0.0038994699716567993
1761417566199179300,1.22917919921875,-0.05075550079345703,-0.00904950499534607,0.0016200244426727295
1761417566215998000,1.245998046875,-0.05928325653076172,-0.012114733457565308,0.0023410022258758545
1761417566232827000,1.262826904296875,-0.058300018310546875,-0.0015254318714141846,-0.0001564621925354004
1761417566249649200,1.279649169921875,-0.058638572692871094,-0.004684001207351685,0.0033046603202819824
1761417566266477300,1.296477294921875,-0.05528068542480469,-0.012086153030395508,0.005414903163909912
1761417566283300600,1.313300537109375,-0.052978515625,-0.0038946866989135742,-0.0011495351791381836
1761417566300135000,1.330135009765625,-0.05555438995361328,-0.010373502969741821,-0.0011280477046966553
1761417566316958700,1.346958740234375,-0.06179237365722656,-0.014624625444412231,0.0006697922945022583
1761417566333784000,1.3637841796875,-0.051033973693847656,-0.00756072998046875,0.0014727413654327393
1761417566350607000,1.380607177734375,-0.05996227264404297,-0.004105061292648315,0.002639949321746826
1761417566367429400,1.397429443359375,-0.06651115417480469,-0.013896167278289795,0.0028014779090881348
1761417566384279000,1.414279052734375,-0.05694293975830078,-0.006375372409820557,0.0008573234081268311
1761417566401076200,1.431076171875,-0.05907249450683594,-0.002804487943649292,-0.0020076632499694824
1761417566417918500,1.44791845703125,-0.05939006805419922,-0.006445050239562988,0.002739056944847107
1761417566434743300,1.464743408203125,-0.05651569366455078,-0.008729249238967896,0.005308240652084351
1761417566451567000,1.481567138671875,-0.054943084716796875,-0.004384636878967285,0.0015896260738372803
1761417566468382200,1.49838232421875,-0.05470466613769531,-0.009586602449417114,0.001044347882270813
1761417566485215500,1.515215576171875,-0.05401420593261719,-0.007513254880905151,0.009139224886894226
1761417566502040600,1.53204052734375,-0.060898780822753906,-0.0013086795806884766,0.003695085644721985
1761417566518866700,1.54886669921875,-0.0538177490234375,-0.001530766487121582,0.0035571157932281494
1761417566535698200,1.5656982421875,-0.05859851837158203,-0.009107351303100586,0.007571294903755188
1761417566552533200,1.582533203125,-0.05460834503173828,-0.006321460008621216,0.004681646823883057
1761417566569344000,1.599343994140625,-0.054650306701660156,-0.0041619837284088135,0.006591901183128357
1761417566586139600,1.6161396484375,-0.06278038024902344,-0.010144412517547607,0.012127190828323364
1761417566602984700,1.632984619140625,-0.05410194396972656,-0.011644303798675537,0.0037601739168167114
1761417566619794700,1.649794677734375,-0.061557769775390625,-0.006743431091308594,0.002495378255844116
1761417566636624000,1.666623779296875,-0.05569648742675781,-0.00833091139793396,-0.003430664539337158
1761417566653435600,1.683435546875,-0.05643939971923828,-0.0073375403881073,-0.001407340168952942
1761417566670272000,1.70027197265625,-0.05313587188720703,-0.006133586168289185,0.00004845857620239258
1761417566687110000,1.71710986328125,-0.055558204650878906,-0.0030854344367980957,0.0025681257247924805
1761417566703933000,1.733932861328125,-0.055930137634277344,-0.0036155879497528076,0.00395539402961731
1761417566720757000,1.750757080078125,-0.06183338165283203,-0.006603896617889404,0.0019519925117492676
1761417566737582300,1.767582275390625,-0.055741310119628906,-0.005939692258834839,0.003557071089744568
1761417566754387000,1.784386962890625,-0.06294059753417969,-0.009963035583496094,-0.0002847015857696533
1761417566771218000,1.801218017578125,-0.06110191345214844,-0.0077523887157440186,0.001376420259475708
1761417566788040400,1.81804052734375,-0.058547019958496094,-0.010387986898422241,0.0022221803665161133
1761417566804865500,1.834865478515625,-0.060441017150878906,-0.008993536233901978,0.00684376060962677
1761417566821676000,1.851676025390625,-0.05845165252685547,-0.007538795471191406,0.007489338517189026
1761417566838515500,1.868515380859375,-0.06042957305908203,-0.007372468709945679,0.0025679469108581543
1761417566855355100,1.885355224609375,-0.05959320068359375,-0.0071825385093688965,0.005640760064125061
1761417566872156700,1.90215673828125,-0.04955768585205078,-0.008260101079940796,0.002773389220237732
1761417566888999200,1.918999267578125,-0.0532379150390625,-0.0073050856590271,0.0052788108587265015
1761417566905829400,1.935829345703125,-0.05265617370605469,-0.008958429098129272,0.005713865160942078
1761417566922649600,1.952649658203125,-0.054355621337890625,-0.008516967296600342,0.008108600974082947
1761417566939468800,1.96946875,-0.053473472595214844,-0.006196647882461548,0.006243199110031128
1761417566956301300,1.98630126953125,-0.05447959899902344,-0.006945163011550903,-0.0010723918676376343
1761417566973114000,2.003114013671875,-0.056423187255859375,-0.011685401201248169,0.005855485796928406
1761417566989934800,2.019934814453125,-0.05313873291015625,-0.007819712162017822,-0.000057250261306762695
1761417567006767400,2.036767333984375,-0.058493614196777344,-0.0030210018157958984,0.0020821839570999146
1761417567023599000,2.05359912109375,-0.0563812255859375,-0.005203992128372192,0.002349674701690674
1761417567040441600,2.070441650390625,-0.056061744689941406,-0.007778137922286987,-0.00046654045581817627
1761417567057221000,2.08722119140625,-0.05780220031738281,-0.013929575681686401,0.002033144235610962
1761417567074051600,2.104051513671875,-0.055145263671875,-0.00785115361213684,0.00048428773880004883
1761417567090866000,2.120865966796875,-0.05588245391845703,-0.010957956314086914,0.007914260029792786
1761417567107700700,2.13770068359375,-0.05127906799316406,-0.006300419569015503,0.007306084036827087
1761417567124530000,2.154530029296875,-0.054152488708496094,-0.00792473554611206,-0.002640962600708008
1761417567141353700,2.171353759765625,-0.05978679656982422,-0.00822487473487854,0.0060251206159591675
1761417567158176000,2.188176025390625,-0.05300617218017578,-0.010008811950683594,0.0030238181352615356
1761417567175001300,2.20500146484375,-0.05782604217529297,-0.0038031339645385742,-0.0011981725692749023
1761417567191846000,2.221845947265625,-0.06326484680175781,-0.004540383815765381,0.006478428840637207
1761417567208663800,2.238663818359375,-0.06230354309082031,-0.008937805891036987,0.0030719637870788574
1761417567225470500,2.255470458984375,-0.052247047424316406,-0.007254660129547119,0.005388319492340088
1761417567242295000,2.272294921875,-0.054299354553222656,-0.01284635066986084,0.001653820276260376
1761417567259122400,2.289122314453125,-0.05282402038574219,-0.012056738138198853,0.0044129639863967896
1761417567275947500,2.305947509765625,-0.05552864074707031,-0.004773497581481934,0.00827084481716156
1761417567292770800,2.322770751953125,-0.05301475524902344,-0.0035919547080993652,0.002002805471420288
1761417567309596000,2.339595947265625,-0.053765296936035156,-0.004680901765823364,0.008075714111328125
1761417567326419700,2.356419677734375,-0.0538787841796875,-0.006627082824707031,0.00433705747127533
1761417567343261400,2.373261474609375,-0.05389404296875,-0.008768320083618164,0.009614869952201843
1761417567360082400,2.39008251953125,-0.06559276580810547,-0.0076736509799957275,0.006624996662139893
1761417567376889600,2.4068896484375,-0.054531097412109375,-0.008989185094833374,0.005677774548530579
1761417567393716500,2.423716552734375,-0.04765796661376953,-0.011463433504104614,0.005511730909347534
1761417567410561000,2.44056103515625,-0.06173133850097656,-0.007686585187911987,0.003665730357170105
1761417567427374300,2.457374267578125,-0.056873321533203125,-0.006004899740219116,-0.006498754024505615
1761417567444207900,2.474207763671875,-0.05435371398925781,-0.003925889730453491,-0.0004401206970214844
1761417567461027600,2.491027587890625,-0.05348396301269531,-0.006504744291305542,0.008009850978851318
1761417567477855200,2.507855224609375,-0.0596923828125,-0.006813615560531616,-0.000019684433937072754
1761417567494658300,2.524658203125,-0.06241798400878906,-0.006837427616119385,0.0017551928758621216
1761417567511503400,2.54150341796875,-0.05520153045654297,-0.009627848863601685,0.0019789934158325195
1761417567528327400,2.558327392578125,-0.054106712341308594,-0.01121819019317627,0.003215968608856201
1761417567545134300,2.57513427734375,-0.054592132568359375,-0.008544713258743286,0.004001915454864502
1761417567561953500,2.59195361328125,-0.05466651916503906,-0.008105158805847168,0.0023024529218673706
1761417567578788900,2.608788818359375,-0.05809211730957031,-0.00795397162437439,0.002114340662956238
1761417567595609300,2.625609375,-0.05812644958496094,-0.013649314641952515,0.0050569623708724976
1761417567612434700,2.6424345703125,-0.04464912414550781,-0.011568129062652588,-0.0002949833869934082
1761417567629244200,2.659244140625,-0.057229042053222656,-0.008347570896148682,0.005877196788787842
1761417567646083600,2.67608349609375,-0.06319618225097656,-0.00960513949394226,0.0016224533319473267
1761417567662923000,2.692923095703125,-0.05305194854736328,-0.006889045238494873,0.0031124353408813477
1761417567679745500,2.70974560546875,-0.056715965270996094,-0.009410649538040161,-0.0018254220485687256
1761417567696569000,2.726569091796875,-0.05613517761230469,-0.009750932455062866,-0.0008268505334854126
1761417567713390300,2.743390380859375,-0.05426216125488281,-0.005060762166976929,0.0015677660703659058
1761417567730200800,2.760200927734375,-0.0598297119140625,-0.010163992643356323,0.0018963366746902466
1761417567747029200,2.777029296875,-0.05255317687988281,-0.010800719261169434,0.0019609928131103516
1761417567763852800,2.793852783203125,-0.05664825439453125,-0.00979161262512207,0.0032153278589248657
1761417567780677600,2.810677734375,-0.05791759490966797,-0.009647965431213379,0.002209678292274475
1761417567797501700,2.827501708984375,-0.05925559997558594,-0.009433150291442871,0.0019739270210266113
1761417567814327800,2.844327880859375,-0.05945873260498047,-0.0035469532012939453,0.0030990242958068848
1761417567831168800,2.861168701171875,-0.05364418029785156,-0.005504220724105835,0.00030715763568878174
1761417567847992300,2.877992431640625,-0.05276298522949219,-0.005825906991958618,0.0046090781688690186
1761417567864796200,2.894796142578125,-0.055556297302246094,-0.005786150693893433,0.004128009080886841
1761417567881638100,2.91163818359375,-0.053053855895996094,-0.00580790638923645,0.0005418509244918823
1761417567898434600,2.9284345703125,-0.05965995788574219,-0.009881556034088135,0.001783996820449829
1761417567915288600,2.94528857421875,-0.056606292724609375,-0.007383197546005249,0.0019295662641525269
1761417567932109800,2.96210986328125,-0.053215980529785156,-0.005959868431091309,-0.002139165997505188
1761417567948940800,2.97894091796875,-0.05854988098144531,-0.008723318576812744,0.004244700074195862
1761417567965752800,2.9957529296875,-0.0634145736694336,-0.004489213228225708,0.003899216651916504
1761417567982581200,3.012581298828125,-0.0513153076171875,-0.009748309850692749,0.003425285220146179
1761417567999406600,3.029406494140625,-0.05825519561767578,-0.007675677537918091,0.003966718912124634
1761417568016225000,3.04622509765625,-0.05638694763183594,-0.003208756446838379,0.002230018377304077
1761417568033055700,3.0630556640625,-0.057239532470703125,-0.0095481276512146,-0.0027683526277542114
1761417568049860600,3.079860595703125,-0.054442405700683594,-0.007644355297088623,0.004124894738197327
1761417568066681300,3.096681396484375,-0.054015159606933594,-0.007462143898010254,-0.0006683766841888428
1761417568083516200,3.11351611328125,-0.05346202850341797,-0.006294757127761841,0.0015410780906677246
1761417568100339500,3.13033935546875,-0.06264114379882812,-0.0031117796897888184,0.0033836811780929565
1761417568117151500,3.1471513671875,-0.057041168212890625,-0.002711862325668335,0.006227642297744751
1761417568133988400,3.16398828125,-0.057335853576660156,-0.005530864000320435,0.0006712079048156738
1761417568150830800,3.180830810546875,-0.05559539794921875,-0.004934430122375488,-0.000044286251068115234
1761417568167646500,3.197646484375,-0.05711650848388672,-0.005910426378250122,0.0014601945877075195
1761417568184470300,3.21447021484375,-0.053933143615722656,-0.008985966444015503,0.0005663782358169556
1761417568201304800,3.231304931640625,-0.053938865661621094,-0.01238146424293518,0.0034149140119552612
1761417568218121500,3.24812158203125,-0.058650970458984375,-0.004140198230743408,-0.0005457550287246704
1761417568234934300,3.264934326171875,-0.053508758544921875,-0.005930483341217041,-0.00020168721675872803
1761417568251759000,3.281759033203125,-0.05159759521484375,-0.004314422607421875,0.001572445034980774
1761417568268569900,3.29856982421875,-0.060568809509277344,-0.00583532452583313,-0.0008706748485565186
1761417568285409000,3.315408935546875,-0.054938316345214844,-0.007225394248962402,0.005644455552101135
1761417568302234600,3.332234619140625,-0.05587291717529297,-0.006312370300292969,0.002568870782852173
1761417568319060200,3.349060302734375,-0.06186485290527344,-0.006137549877166748,0.0050334930419921875
1761417568335911000,3.365910888671875,-0.05513572692871094,-0.00900164246559143,0.0036793649196624756
1761417568352710400,3.38271044921875,-0.05704021453857422,-0.010638952255249023,-0.0017691552639007568
1761417568369526300,3.3995263671875,-0.05505561828613281,-0.007915914058685303,0.000350072979927063
1761417568386351400,3.416351318359375,-0.057677268981933594,-0.012228131294250488,-0.0010517984628677368
1761417568403167500,3.43316748046875,-0.05628490447998047,-0.010014981031417847,0.002851054072380066
1761417568420003000,3.450003173828125,-0.05607795715332031,-0.003740847110748291,0.004038825631141663
1761417568436814800,3.46681494140625,-0.053122520446777344,-0.0068298280239105225,-0.002744629979133606
1761417568453651500,3.4836513671875,-0.05267620086669922,-0.0020749568939208984,0.0014850795269012451
1761417568470475300,3.500475341796875,-0.059592247009277344,-0.00657239556312561,0.0009939968585968018
1761417568487300400,3.51730029296875,-0.05657672882080078,-0.007320046424865723,0.0037530511617660522
1761417568504140800,3.534140869140625,-0.0543365478515625,-0.007386296987533569,0.002356588840484619
1761417568520942800,3.55094287109375,-0.050583839416503906,-0.009199470281600952,0.0021633654832839966
1761417568537772500,3.5677724609375,-0.058139801025390625,-0.008296430110931396,0.002144366502761841
1761417568554598100,3.58459814453125,-0.052948951721191406,-0.010449826717376709,0.0031871050596237183
1761417568571408000,3.601407958984375,-0.05556774139404297,-0.0109347403049469,0.001145392656326294
1761417568588243000,3.618242919921875,-0.05011749267578125,-0.006941080093383789,0.00019416213035583496
1761417568605073200,3.6350732421875,-0.05286598205566406,-0.009224802255630493,0.0018466860055923462
1761417568621879600,3.651879638671875,-0.05896568298339844,-0.005579620599746704,0.00502738356590271
1761417568638723800,3.668723876953125,-0.05647563934326172,-0.010225802659988403,0.006753802299499512
1761417568655541800,3.685541748046875,-0.05203723907470703,-0.012071579694747925,0.0028976798057556152
1761417568672366800,3.702366943359375,-0.058353424072265625,-0.00711667537689209,-0.0006442368030548096
1761417568689189400,3.719189453125,-0.056385040283203125,-0.0034661591053009033,0.0028482824563980103
1761417568706003700,3.736003662109375,-0.059012413024902344,-0.002879589796066284,0.0033929944038391113
1761417568722829300,3.752829345703125,-0.056488037109375,-0.0039001405239105225,0.00516781210899353
1761417568739652600,3.769652587890625,-0.05496501922607422,-0.005911409854888916,0.0014520138502120972
1761417568756492800,3.786492919921875,-0.05295276641845703,-0.0101756751537323,0.0013310164213180542
1761417568773300200,3.80330029296875,-0.06256294250488281,-0.011060386896133423,0.0059804171323776245
1761417568790138000,3.82013818359375,-0.057033538818359375,-0.007838159799575806,0.004423484206199646
1761417568806956800,3.836956787109375,-0.054412841796875,-0.002085089683532715,-0.0016967058181762695
1761417568823792400,3.85379248046875,-0.058730125427246094,-0.008488506078720093,0.0032413750886917114
1761417568840620800,3.870620849609375,-0.05240154266357422,-0.006095021963119507,0.006217882037162781
1761417568857453000,3.887453125,-0.05777549743652344,-0.008874356746673584,0.004051685333251953
1761417568874268700,3.9042685546875,-0.05809974670410156,-0.005098611116409302,0.005715236067771912
1761417568891103000,3.92110302734375,-0.056357383728027344,-0.006815969944000244,0.00288352370262146
1761417568907921700,3.937921630859375,-0.053170204162597656,-0.003029733896255493,-0.0005357116460800171
1761417568924747000,3.9547470703125,-0.05739879608154297,-0.005395561456680298,0.002970680594444275
1761417568941571000,3.971571044921875,-0.05382347106933594,-0.004620462656021118,0.006479114294052124
1761417568958379000,3.98837890625,-0.05393028259277344,-0.00953894853591919,0.004019558429718018
1761417568975219000,4.005218994140625,-0.05573749542236328,-0.004362761974334717,0.0024636834859848022
1761417568992044500,4.02204443359375,-0.06120777130126953,-0.004258662462234497,0.002243831753730774
1761417569008867800,4.038867919921875,-0.052127838134765625,-0.007077127695083618,0.0023197978734970093
1761417569025661700,4.05566162109375,-0.05253791809082031,-0.005744516849517822,-0.0034137070178985596
1761417569042505700,4.072505615234375,-0.05552387237548828,-0.009618759155273438,0.00042387843132019043
1761417569059327700,4.08932763671875,-0.05483436584472656,-0.0032852888107299805,0.006258025765419006
1761417569076151600,4.106151611328125,-0.05878925323486328,-0.009362518787384033,-0.0009240955114364624
1761417569092973600,4.1229736328125,-0.055324554443359375,-0.010280400514602661,-0.0008152127265930176
1761417569109803000,4.139802978515625,-0.058864593505859375,-0.004536271095275879,0.007916659116744995
1761417569126642200,4.15664208984375,-0.057608604431152344,-0.008494585752487183,0.0004868507385253906
1761417569143450000,4.1734501953125,-0.056281089782714844,-0.005030691623687744,0.00046187639236450195
1761417569160287500,4.19028759765625,-0.058350563049316406,-0.004621297121047974,0.0013181865215301514
1761417569177098800,4.2070986328125,-0.05639457702636719,-0.005542248487472534,-0.0033929049968719482
1761417569193918000,4.22391796875,-0.056095123291015625,-0.011608153581619263,0.0006642192602157593
1761417569210747000,4.240746826171875,-0.058971405029296875,-0.007873088121414185,0.002421081066131592
1761417569227550200,4.25755029296875,-0.05241584777832031,-0.008064299821853638,-0.0002725273370742798
1761417569244394500,4.27439453125,-0.062470436096191406,-0.0049842894077301025,0.0043092817068099976
1761417569261197300,4.291197265625,-0.05700397491455078,-0.008208483457565308,0.0011895745992660522
1761417569278043600,4.308043701171875,-0.05618095397949219,-0.00454828143119812,0.001312851905822754
1761417569294868700,4.32486865234375,-0.054266929626464844,-0.010562419891357422,0.0014919638633728027
1761417569311709000,4.341708984375,-0.057552337646484375,-0.006715536117553711,0.00252358615398407
1761417569328514600,4.3585146484375,-0.05447673797607422,-0.006103634834289551,-0.00023284554481506348
1761417569345335600,4.37533544921875,-0.051085472106933594,-0.008899718523025513,0.004218608140945435
1761417569362163700,4.392163818359375,-0.054144859313964844,-0.006368726491928101,0.00027082860469818115
1761417569378988000,4.408988037109375,-0.04989433288574219,-0.006055235862731934,0.006646841764450073
1761417569395815200,4.425815185546875,-0.052170753479003906,-0.010117679834365845,0.004845470190048218
1761417569412639000,4.442638916015625,-0.05430030822753906,-0.010780781507492065,0.00347156822681427
1761417569429462500,4.459462646484375,-0.05576324462890625,-0.00385439395904541,0.003162190318107605
1761417569446286600,4.47628662109375,-0.05078601837158203,-0.006885111331939697,0.00595855712890625
1761417569463111700,4.493111572265625,-0.054093360900878906,-0.0073527991771698,0.002398058772087097
1761417569479923000,4.5099228515625,-0.06271553039550781,-0.010352283716201782,-0.0010103732347488403
1761417569496777700,4.52677783203125,-0.055901527404785156,-0.005518436431884766,0.002476736903190613
1761417569513581000,4.5435810546875,-0.05893230438232422,-0.0077336132526397705,-0.0010910332202911377
1761417569530406400,4.560406494140625,-0.050620079040527344,-0.008027046918869019,-0.0016691386699676514
1761417569547220700,4.577220703125,-0.04935646057128906,-0.006453424692153931,0.004097118973731995
1761417569564045600,4.594045654296875,-0.05501747131347656,-0.0072882771492004395,0.004218563437461853
1761417569580868900,4.610868896484375,-0.054091453552246094,-0.004365831613540649,0.0019311606884002686
1761417569597693400,4.627693359375,-0.05687141418457031,-0.0057933032512664795,-0.00008848309516906738
1761417569614517800,4.644517822265625,-0.05209159851074219,-0.0031426846981048584,0.0013795346021652222
1761417569631343900,4.66134375,-0.05543041229248047,-0.0038397610187530518,0.005661040544509888
1761417569648166100,4.678166259765625,-0.05008983612060547,-0.00856691598892212,0.002351626753807068
1761417569664991700,4.69499169921875,-0.05513286590576172,-0.007370561361312866,0.0042057037353515625
1761417569681816000,4.711816162109375,-0.054107666015625,-0.003165692090988159,0.00041481852531433105
1761417569698640000,4.728639892578125,-0.05931568145751953,-0.006551623344421387,-0.0013937801122665405
1761417569715465200,4.74546533203125,-0.05652332305908203,-0.009663224220275879,0.0013249516487121582
1761417569732289800,4.762289794921875,-0.053183555603027344,-0.0064026713371276855,-0.00010158121585845947
1761417569749113900,4.77911376953125,-0.05674266815185547,-0.009896665811538696,0.005483537912368774
1761417569765937400,4.7959375,-0.05792999267578125,-0.0074752867221832275,0.002377539873123169
1761417569782761200,4.81276123046875,-0.05745887756347656,-0.005990862846374512,-0.0009765177965164185
1761417569799586600,4.829586669921875,-0.056252479553222656,-0.008646070957183838,-0.001534968614578247
1761417569816410400,4.846410400390625,-0.05314826965332031,-0.0059919655323028564,0.0025484859943389893
1761417569833235700,4.863235595703125,-0.05446624755859375,-0.008859902620315552,0.007901221513748169
1761417569850059300,4.880059326171875,-0.056941986083984375,-0.010675698518753052,0.0029997676610946655
1761417569866883600,4.896883544921875,-0.05617332458496094,-0.010463237762451172,0.0032551437616348267
1761417569883723000,4.913722900390625,-0.064178466796875,-0.005728572607040405,0.007957994937896729
1761417569900545000,4.930544921875,-0.05613136291503906,-0.0056528449058532715,0.0028987526893615723
1761417569917368300,4.947368408203125,-0.05718803405761719,-0.00852137804031372,-0.0006761848926544189
1761417569934180000,4.96418017578125,-0.054424285888671875,-0.007135927677154541,0.0027768462896347046
1761417569951017000,4.981016845703125,-0.055789947509765625,-0.000667870044708252,-0.0006994456052780151
1761417569967839200,4.997839111328125,-0.05306720733642578,-0.004991650581359863,-0.000040665268898010254
1761417569984685800,5.014685791015625,-0.04973316192626953,-0.002671152353286743,0.0030254125595092773
1761417570001487600,5.031487548828125,-0.052155494689941406,-0.006297469139099121,0.0034814178943634033
1761417570018314500,5.048314453125,-0.05544757843017578,-0.0039006471633911133,0.0034997165203094482
1761417570035139600,5.0651396484375,-0.060006141662597656,-0.002474457025527954,0.006378859281539917
1761417570051964400,5.08196435546875,-0.06069374084472656,-0.008106142282485962,0.0068654865026474
1761417570068786400,5.098786376953125,-0.05787181854248047,-0.007230699062347412,0.0029724091291427612
1761417570085611800,5.11561181640625,-0.06328678131103516,-0.008982688188552856,-0.000497281551361084
1761417570102450200,5.1324501953125,-0.05419635772705078,-0.006370246410369873,0.0017926841974258423
1761417570119270100,5.149270263671875,-0.05574798583984375,-0.007063716650009155,0.003289833664894104
1761417570136106500,5.1661064453125,-0.060698509216308594,-0.005898207426071167,0.0005465000867843628
1761417570152920300,5.18292041015625,-0.06079864501953125,-0.008624494075775146,0.001977667212486267
1761417570169740000,5.199739990234375,-0.057890892028808594,-0.005003839731216431,0.0032193511724472046
1761417570186568200,5.216568115234375,-0.05631065368652344,-0.0038946568965911865,0.00861281156539917
1761417570203382500,5.233382568359375,-0.05607128143310547,-0.005537450313568115,0.007098481059074402
1761417570220206300,5.250206298828125,-0.05311107635498047,-0.002847224473953247,0.002768486738204956
1761417570237023000,5.26702294921875,-0.058508872985839844,-0.006577938795089722,0.0032561123371124268
1761417570253856500,5.2838564453125,-0.06046295166015625,-0.0030867159366607666,0.0004109591245651245
1761417570270680000,5.30068017578125,-0.05556297302246094,-0.005392134189605713,-0.000014826655387878418
1761417570287503600,5.317503662109375,-0.060667991638183594,-0.007009923458099365,0.005611136555671692
1761417570304328700,5.33432861328125,-0.05964946746826172,0.0008606612682342529,0.0007895231246948242
1761417570321152000,5.351152099609375,-0.05721855163574219,-0.006129652261734009,0.0029615461826324463
1761417570337977300,5.367977294921875,-0.05506610870361328,-0.013027608394622803,0.003235936164855957
1761417570354818000,5.384818115234375,-0.055876731872558594,-0.007103294134140015,0.0032818466424942017
1761417570371623400,5.40162353515625,-0.060065269470214844,-0.007301002740859985,0.0031889528036117554
1761417570388463400,5.41846337890625,-0.057778358459472656,-0.006060212850570679,0.0002710074186325073
1761417570405288200,5.4352880859375,-0.059215545654296875,-0.00595778226852417,-0.0030377954244613647
1761417570422105900,5.45210595703125,-0.056511878967285156,-0.009948670864105225,0.005171239376068115
1761417570438943700,5.46894384765625,-0.057891845703125,-0.003495454788208008,0.005280643701553345
1761417570455760600,5.4857607421875,-0.06443405151367188,-0.005488753318786621,0.0035570859909057617
1761417570472585500,5.50258544921875,-0.05730247497558594,-0.006902098655700684,0.005071014165878296
1761417570489392000,5.51939208984375,-0.0528106689453125,-0.004234611988067627,0.004598513245582581
1761417570506220300,5.53622021484375,-0.05846691131591797,-0.002730339765548706,0.0004279613494873047
1761417570523040800,5.553040771484375,-0.052337646484375,-0.005395859479904175,0.0027266740798950195
1761417570539869200,5.569869140625,-0.05140972137451172,-0.0017295479774475098,0.004258543252944946
1761417570556676900,5.5866767578125,-0.05646514892578125,-0.009374439716339111,0.004530906677246094
1761417570573518000,5.60351806640625,-0.057231903076171875,-0.007573127746582031,0.002241000533103943
1761417570590358800,5.62035888671875,-0.052150726318359375,-0.0061283111572265625,0.001203879714012146
1761417570607180000,5.637179931640625,-0.05138206481933594,-0.009982198476791382,-0.001264825463294983
1761417570624003800,5.65400390625,-0.05646800994873047,-0.004686892032623291,0.006382852792739868
1761417570640829400,5.670829345703125,-0.056099891662597656,-0.010833591222763062,0.0017628371715545654
1761417570657653000,5.687653076171875,-0.054904937744140625,-0.00376206636428833,0.005662634968757629
1761417570674473200,5.70447314453125,-0.05358600616455078,-0.006696850061416626,0.006411328911781311
1761417570691288300,5.721288330078125,-0.05159568786621094,-0.006121993064880371,0.00471140444278717
1761417570708113000,5.73811279296875,-0.05827903747558594,-0.009000539779663086,0.005046546459197998
1761417570724936000,5.75493603515625,-0.057015419006347656,-0.0036042332649230957,0.0015387386083602905
1761417570741761000,5.771760986328125,-0.062023162841796875,-0.008643031120300293,-0.0001732558012008667
1761417570758568700,5.788568603515625,-0.05985450744628906,-0.008867412805557251,0.0006133913993835449
1761417570775413800,5.805413818359375,-0.05660533905029297,-0.010644525289535522,0.0054084062576293945
1761417570792247800,5.822247802734375,-0.05611133575439453,-0.010988444089889526,0.00311434268951416
1761417570809062400,5.8390625,-0.058963775634765625,-0.011590659618377686,0.0028332918882369995
1761417570825894100,5.85589404296875,-0.052407264709472656,-0.008146435022354126,-0.00008526444435119629
1761417570842717700,5.8727177734375,-0.05661582946777344,-0.007603377103805542,0.0035248994827270508
1761417570859550200,5.88955029296875,-0.05610847473144531,-0.007696300745010376,-0.002259373664855957
1761417570876376300,5.906376220703125,-0.05603218078613281,-0.009494215250015259,0.0060667842626571655
1761417570893197600,5.923197509765625,-0.054236412048339844,-0.006759732961654663,0.00445672869682312
1761417570910010400,5.94001025390625,-0.05980968475341797,-0.00929868221282959,0.002033546566963196
1761417570926845700,5.956845703125,-0.05951118469238281,-0.0069161057472229,0.0034372806549072266
1761417570943668500,5.97366845703125,-0.059467315673828125,-0.010493844747543335,0.0031008273363113403
1761417570960490800,5.99049072265625,-0.059462547302246094,-0.007003307342529297,0.006987959146499634
1761417570977298700,6.007298583984375,-0.056537628173828125,-0.007618516683578491,0.003522828221321106
1761417570994125300,6.024125244140625,-0.05382251739501953,-0.000688016414642334,0.004079043865203857
1761417571010950400,6.040950439453125,-0.055690765380859375,-0.0042629241943359375,0.0070308297872543335
1761417571027774200,6.057774169921875,-0.05191802978515625,-0.008777886629104614,0.0061350613832473755
1761417571044596200,6.07459619140625,-0.0554046630859375,-0.012499988079071045,-0.0016016215085983276
1761417571061426000,6.091426025390625,-0.05186939239501953,-0.008355647325515747,0.0007994323968887329
1761417571078258700,6.1082587890625,-0.05539512634277344,-0.006655693054199219,0.0063464343547821045
1761417571095092500,6.125092529296875,-0.0547943115234375,-0.007444024085998535,0.0031221359968185425
1761417571111910700,6.14191064453125,-0.05471229553222656,-0.0032853782176971436,-0.0003422200679779053
1761417571128734200,6.158734130859375,-0.052908897399902344,-0.008638530969619751,-0.003179028630256653
1761417571145558800,6.175558837890625,-0.06140708923339844,-0.005427002906799316,-0.0013212859630584717
1761417571162382300,6.19238232421875,-0.05798625946044922,-0.007157951593399048,0.001781180500984192
1761417571179192800,6.20919287109375,-0.057465553283691406,-0.0063495934009552,0.002211630344390869
1761417571196015000,6.22601513671875,-0.053328514099121094,-0.0032543540000915527,0.005145281553268433
1761417571212840000,6.24283984375,-0.052700042724609375,-0.011610060930252075,-0.0013897716999053955
1761417571229668600,6.259668701171875,-0.06073188781738281,-0.008056819438934326,0.0016784965991973877
1761417571246491100,6.2764912109375,-0.057888031005859375,-0.003438204526901245,-0.001966342329978943
1761417571263314400,6.293314453125,-0.057453155517578125,-0.0017198026180267334,0.005602002143859863
1761417571280157000,6.310156982421875,-0.052188873291015625,-0.0014054477214813232,0.005699262022972107
1761417571296956400,6.326956298828125,-0.05253314971923828,-0.005384624004364014,0.002722993493080139
1761417571313806000,6.34380615234375,-0.058432579040527344,-0.0071318745613098145,0.001141279935836792
1761417571330625300,6.360625244140625,-0.054617881774902344,-0.00843152403831482,0.002035856246948242
1761417571347450400,6.377450439453125,-0.0587615966796875,-0.0050363242626190186,0.004883334040641785
1761417571364274400,6.3942744140625,-0.05061626434326172,-0.009747922420501709,0.003013327717781067
1761417571381099800,6.411099853515625,-0.05117607116699219,-0.006201952695846558,0.002134352922439575
1761417571397923300,6.42792333984375,-0.0506134033203125,-0.003865569829940796,0.008962810039520264
1761417571414745000,6.4447451171875,-0.05637550354003906,-0.008278727531433105,0.00290660560131073
1761417571431570700,6.46157080078125,-0.054320335388183594,-0.011906206607818604,-0.000817224383354187
1761417571448380700,6.478380615234375,-0.05693244934082031,-0.0036914050579071045,-0.0002094060182571411
1761417571465203000,6.495202880859375,-0.05098915100097656,-0.004257380962371826,0.0017104744911193848
1761417571482031900,6.512031982421875,-0.054154396057128906,-0.00830608606338501,0.002088502049446106
1761417571498851000,6.52885107421875,-0.04765033721923828,-0.004147887229919434,0.00207500159740448
1761417571515684900,6.545684814453125,-0.056578636169433594,-0.005228757858276367,0.005042597651481628
1761417571532499500,6.56249951171875,-0.0520782470703125,-0.008378595113754272,0.0014217346906661987
1761417571549319700,6.579319580078125,-0.05431938171386719,-0.008895725011825562,0.00027498602867126465
1761417571566152200,6.596152099609375,-0.054009437561035156,-0.0043138861656188965,-0.000008761882781982422
1761417571582981600,6.612981689453125,-0.05282783508300781,-0.005353391170501709,0.0046133846044540405
1761417571599785000,6.629784912109375,-0.05443096160888672,-0.005672276020050049,-0.000575140118598938
1761417571616639700,6.6466396484375,-0.05580615997314453,-0.0028837621212005615,0.0045876652002334595
1761417571633463800,6.6634638671875,-0.06007671356201172,-0.008292436599731445,0.005294501781463623
1761417571650288600,6.68028857421875,-0.056670188903808594,-0.007180660963058472,0.003466308116912842
1761417571667095300,6.69709521484375,-0.06021595001220703,-0.007005065679550171,0.0038535594940185547
1761417571683923200,6.713923095703125,-0.05555534362792969,-0.012732923030853271,-0.0006949305534362793
1761417571700747300,6.730747314453125,-0.05420398712158203,-0.010601669549942017,-0.0025289803743362427
1761417571717572600,6.747572509765625,-0.053508758544921875,-0.006291121244430542,0.004117712378501892
1761417571734392300,6.764392333984375,-0.05859947204589844,-0.0057353973388671875,0.007988810539245605
1761417571751224000,6.78122412109375,-0.05823326110839844,-0.005594611167907715,0.001101270318031311
1761417571768061700,6.798061767578125,-0.06224250793457031,-0.005533754825592041,0.001719146966934204
1761417571784874200,6.814874267578125,-0.05115222930908203,-0.006233394145965576,-0.00005862116813659668
1761417571801706500,6.83170654296875,-0.05240058898925781,-0.010823965072631836,0.0002861618995666504
1761417571818515200,6.84851513671875,-0.05486774444580078,-0.01211857795715332,0.0060778409242630005
1761417571835378000,6.8653779296875,-0.05702781677246094,-0.007662951946258545,-0.00476527214050293
1761417571852176000,6.88217578125,-0.05735206604003906,-0.00406530499458313,-0.0005021095275878906
1761417571869008100,6.899008056640625,-0.059187889099121094,-0.002411782741546631,0.00013566017150878906
1761417571885829000,6.9158291015625,-0.05362224578857422,-0.010785281658172607,0.0042835623025894165
1761417571902659800,6.932659912109375,-0.0527801513671875,-0.010283797979354858,0.0060350000858306885
1761417571919461000,6.949461181640625,-0.052654266357421875,-0.00610661506652832,0.0010993629693984985
1761417571936284200,6.9662841796875,-0.05442237854003906,-0.008403807878494263,0.0014358311891555786
1761417571953113300,6.98311328125,-0.05696678161621094,-0.005781590938568115,0.0044085681438446045
1761417571969936400,6.999936279296875,-0.05215263366699219,-0.005345642566680908,-0.0038035959005355835
1761417571986761500,7.016761474609375,-0.055484771728515625,-0.00529208779335022,0.0019676387310028076
1761417572003585000,7.0335849609375,-0.05485248565673828,-0.0035046041011810303,-0.0013252496719360352
1761417572020407800,7.05040771484375,-0.05881690979003906,-0.005082309246063232,-0.005910053849220276
1761417572037248500,7.06724853515625,-0.05648994445800781,-0.005422264337539673,-0.0007961392402648926
1761417572054076000,7.084075927734375,-0.056140899658203125,-0.002493530511856079,0.00690421462059021
1761417572070896000,7.100896240234375,-0.053154945373535156,-0.009239643812179565,-0.0017257481813430786
1761417572087720700,7.117720703125,-0.05448722839355469,-0.0044405460357666016,-0.00007627904415130615
1761417572104541000,7.134541015625,-0.054688453674316406,-0.005496203899383545,0.008372947573661804
1761417572121374000,7.1513740234375,-0.054068565368652344,-0.005664467811584473,-0.0002689659595489502
1761417572138172400,7.16817236328125,-0.056900978088378906,-0.008567333221435547,0.001292794942855835
1761417572155000300,7.185000244140625,-0.06317710876464844,-0.003232032060623169,-0.0025705844163894653
1761417572171817500,7.2018173828125,-0.06233692169189453,-0.005400240421295166,-0.0049241334199905396
1761417572188640500,7.218640625,-0.05814647674560547,-0.009888976812362671,0.005703434348106384
1761417572205465300,7.23546533203125,-0.060439109802246094,-0.011580199003219604,0.0010833293199539185
1761417572222290400,7.25229052734375,-0.049735069274902344,-0.011412382125854492,0.001553952693939209
1761417572239115800,7.26911572265625,-0.05510425567626953,-0.005485117435455322,0.00047978758811950684
1761417572255950600,7.28595068359375,-0.054782867431640625,-0.0067275166511535645,0.00441858172416687
1761417572272770000,7.30277001953125,-0.0570068359375,-0.003546297550201416,0.0015311837196350098
1761417572289603000,7.31960302734375,-0.060265541076660156,-0.008266448974609375,-0.0011438876390457153
1761417572306422800,7.3364228515625,-0.06075477600097656,-0.006172686815261841,0.0025489628314971924
1761417572323247900,7.353247802734375,-0.05968952178955078,-0.005909949541091919,0.0001789182424545288
1761417572340071400,7.370071533203125,-0.05660057067871094,-0.005971342325210571,-0.0002332627773284912
1761417572356891400,7.386891357421875,-0.057926177978515625,-0.01283961534500122,0.00025568902492523193
1761417572373736700,7.40373681640625,-0.05634021759033203,-0.006860584020614624,0.0015809088945388794
1761417572390558500,7.420558349609375,-0.06195068359375,-0.003062307834625244,0.003343522548675537
1761417572407382000,7.437382080078125,-0.06393814086914062,-0.00542643666267395,0.0006146281957626343
1761417572424207000,7.45420703125,-0.056113243103027344,-0.006976336240768433,-0.0026504546403884888
1761417572441003500,7.47100341796875,-0.057206153869628906,-0.0071128904819488525,0.0020959675312042236
1761417572457845800,7.487845703125,-0.059162139892578125,-0.005917638540267944,-0.004218235611915588
1761417572474654000,7.504654052734375,-0.061733245849609375,-0.005729347467422485,-0.0011535733938217163
1761417572491490800,7.52149072265625,-0.052211761474609375,-0.0027643144130706787,0.0011520236730575562
1761417572508311600,7.5383115234375,-0.06247138977050781,-0.00921747088432312,0.0015068799257278442
1761417572525139700,7.5551396484375,-0.061095237731933594,-0.007345110177993774,0.0027567297220230103
1761417572541967400,7.57196728515625,-0.057961463928222656,-0.005960971117019653,0.0029467493295669556
1761417572558785300,7.588785400390625,-0.056354522705078125,-0.007422834634780884,0.0047666579484939575
1761417572575625700,7.605625732421875,-0.05611419677734375,0.0000673830509185791,0.0020778775215148926
1761417572592450800,7.622450927734375,-0.05721759796142578,-0.007533758878707886,0.002774149179458618
1761417572609274000,7.639274169921875,-0.05965900421142578,-0.006917685270309448,0.004678472876548767
1761417572626099700,7.656099609375,-0.054831504821777344,-0.0015965104103088379,0.0031379908323287964
1761417572642915000,7.6729150390625,-0.052959442138671875,-0.007778853178024292,0.0037192702293395996
1761417572659748900,7.689748779296875,-0.05559825897216797,-0.005792587995529175,0.0032937228679656982
1761417572676557600,7.7065576171875,-0.05713844299316406,-0.005387753248214722,-0.0007881671190261841
1761417572693372200,7.7233720703125,-0.05915641784667969,-0.006475359201431274,0.0027544796466827393
1761417572710203400,7.740203369140625,-0.05881214141845703,-0.002582043409347534,-0.004872754216194153
1761417572727031600,7.757031494140625,-0.05242347717285156,-0.007842332124710083,0.0020644068717956543
1761417572743857700,7.773857666015625,-0.051461219787597656,-0.0015811920166015625,0.0018930435180664062
1761417572760683500,7.79068359375,-0.058302879333496094,-0.0046121180057525635,0.0008041709661483765
1761417572777511400,7.807511474609375,-0.06339550018310547,0.0006835460662841797,0.0006956309080123901
1761417572794340000,7.824340087890625,-0.05897045135498047,-0.004325240850448608,0.0017185956239700317
1761417572811169300,7.841169189453125,-0.06235980987548828,-0.005154818296432495,0.0018970072269439697
1761417572827987500,7.857987548828125,-0.05231761932373047,-0.005191296339035034,0.0007488876581192017
1761417572844798500,7.874798583984375,-0.05436897277832031,-0.005281180143356323,0.0016800612211227417
1761417572861623000,7.891623046875,-0.058739662170410156,-0.005294293165206909,-0.0021654367446899414
1761417572878430000,7.908429931640625,-0.049488067626953125,-0.007124155759811401,-0.002685651183128357
1761417572895272000,7.92527197265625,-0.05621051788330078,-0.005604982376098633,0.0031811296939849854
1761417572912099000,7.94209912109375,-0.05202960968017578,-0.0053726136684417725,-0.000045359134674072266
1761417572928923600,7.958923583984375,-0.05837535858154297,-0.0065765380859375,-0.0010078400373458862
1761417572945746700,7.97574658203125,-0.06047630310058594,-0.008495092391967773,0.0017072111368179321
1761417572962571500,7.992571533203125,-0.05380821228027344,-0.005836814641952515,-0.0019176304340362549
1761417572979395300,8.009395263671875,-0.051662445068359375,-0.005461215972900391,0.0062030404806137085
1761417572996221200,8.02622119140625,-0.058325767517089844,-0.002397477626800537,-0.003036990761756897
1761417573013044500,8.04304443359375,-0.0604705810546875,-0.0031552910804748535,0.0041801780462265015
1761417573029885400,8.059885498046874,-0.05787181854248047,-0.0038590729236602783,0.0036651194095611572
1761417573046680000,8.07668017578125,-0.059261322021484375,-0.006903141736984253,0.005455002188682556
1761417573063535600,8.09353564453125,-0.05070018768310547,-0.011420756578445435,0.0027938485145568848
1761417573080336400,8.11033642578125,-0.058831214904785156,-0.00325852632522583,0.001165822148323059
1761417573097165600,8.12716552734375,-0.05762290954589844,-0.004981517791748047,0.0021319538354873657
1761417573113983700,8.143983642578124,-0.05338096618652344,-0.005210191011428833,0.005147188901901245
1761417573130799900,8.1607998046875,-0.0574493408203125,-0.005220949649810791,0.004479438066482544
1761417573147626200,8.177626220703125,-0.056929588317871094,-0.0028784871101379395,0.005569204688072205
1761417573164452400,8.194452392578125,-0.0631856918334961,-0.004833430051803589,-0.00010564923286437988
1761417573181274400,8.2112744140625,-0.057143211364746094,-0.008115947246551514,0.0002364814281463623
1761417573198099500,8.228099365234375,-0.053307533264160156,-0.0026809871196746826,0.0009417980909347534
1761417573214925600,8.244925537109374,-0.05500602722167969,-0.00466647744178772,0.0010587126016616821
1761417573231749000,8.2617490234375,-0.059973716735839844,-0.0020408034324645996,-0.00069408118724823
1761417573248572000,8.278572021484376,-0.05488014221191406,-0.0044439733028411865,0.007908478379249573
1761417573265399600,8.295399658203126,-0.06174182891845703,-0.004844725131988525,0.006322085857391357
1761417573282221600,8.3122216796875,-0.05400848388671875,-0.011878162622451782,-0.0008968710899353027
1761417573299045400,8.32904541015625,-0.04991722106933594,-0.00703766942024231,0.0008963197469711304
1761417573315869700,8.34586962890625,-0.04929828643798828,-0.0062576234340667725,-0.0005459785461425781
1761417573332693500,8.362693603515625,-0.059119224548339844,-0.0031322240829467773,-0.0008588433265686035
1761417573349518300,8.379518310546874,-0.052481651306152344,-0.0026501119136810303,0.0009575188159942627
1761417573366343200,8.39634326171875,-0.05667591094970703,-0.00033867359161376953,0.0023710280656814575
1761417573383167500,8.41316748046875,-0.0590972900390625,-0.006339997053146362,0.00249326229095459
1761417573399992800,8.429992919921874,-0.06011199951171875,-0.004981309175491333,-0.0003833174705505371
1761417573416816600,8.446816650390625,-0.05961418151855469,-0.003711700439453125,0.0032515525817871094
1761417573433652500,8.463652587890625,-0.05954170227050781,-0.008665144443511963,0.0055399686098098755
1761417573450471700,8.4804716796875,-0.06180381774902344,-0.0065155029296875,0.000012919306755065918
1761417573467306200,8.49730615234375,-0.05580902099609375,-0.008040010929107666,0.006169557571411133
1761417573484111600,8.514111572265625,-0.06009960174560547,-0.008276045322418213,0.003048732876777649
1761417573500949800,8.53094970703125,-0.05669116973876953,-0.005300760269165039,0.002533257007598877
1761417573517791200,8.547791259765624,-0.056824684143066406,-0.0036504268646240234,0.0025729238986968994
1761417573534608100,8.564608154296875,-0.05619335174560547,-0.007540702819824219,0.0037073642015457153
1761417573551440000,8.58143994140625,-0.05788230895996094,-0.0022816359996795654,0.003496810793876648
1761417573568261000,8.59826123046875,-0.054566383361816406,-0.006159007549285889,-0.0002104640007019043
1761417573585084400,8.61508447265625,-0.05699348449707031,-0.004879981279373169,0.0020764321088790894
1761417573601909500,8.631909423828125,-0.05849742889404297,-0.004716217517852783,-0.0004708319902420044
1761417573618716400,8.64871630859375,-0.04881095886230469,-0.010590851306915283,0.001040130853652954
1761417573635558000,8.665557861328125,-0.054984092712402344,-0.008510679006576538,0.0023010969161987305
1761417573652364500,8.682364501953124,-0.05591583251953125,-0.006428539752960205,0.001479417085647583
1761417573669193000,8.69919287109375,-0.05719757080078125,-0.003761202096939087,-0.0016163289546966553
1761417573686016300,8.716016357421875,-0.05625152587890625,-0.006849855184555054,-0.0009248405694961548
1761417573702841300,8.73284130859375,-0.06130790710449219,-0.009002089500427246,0.0032945871353149414
1761417573719665400,8.74966552734375,-0.05866432189941406,-0.006337165832519531,0.0027952194213867188
1761417573736490200,8.766490234375,-0.053551673889160156,-0.011800110340118408,-0.00018724799156188965
1761417573753314300,8.783314208984375,-0.05862998962402344,-0.005610018968582153,0.0010602474212646484
1761417573770152200,8.800152099609376,-0.059395790100097656,-0.007611870765686035,-0.00040477514266967773
1761417573786975700,8.816975830078125,-0.055446624755859375,-0.002780318260192871,0.001204177737236023
1761417573803801000,8.833801025390626,-0.053063392639160156,-0.0031538307666778564,0.0036687850952148438
1761417573820604000,8.85060400390625,-0.05854606628417969,-0.004475325345993042,0.0011882632970809937
1761417573837446000,8.86744580078125,-0.0517425537109375,-0.007597923278808594,0.004330530762672424
1761417573854280700,8.88428076171875,-0.055423736572265625,-0.0062444210052490234,0.0019496381282806396
1761417573871095000,8.901094970703125,-0.0559844970703125,-0.007741689682006836,0.0015405714511871338
1761417573887922000,8.917921875,-0.05606842041015625,-0.00626489520072937,0.0025320202112197876
1761417573904729600,8.9347294921875,-0.05900382995605469,-0.004916101694107056,0.0015710294246673584
1761417573921557200,8.95155712890625,-0.05766582489013672,0.0012647807598114014,0.0013828277587890625
1761417573938382000,8.968382080078126,-0.05340290069580078,0.0022450685501098633,0.004294589161872864
1761417573955201800,8.985201904296876,-0.058605194091796875,-0.0023491978645324707,0.000035196542739868164
1761417573972033500,9.002033447265624,-0.06166839599609375,-0.004139959812164307,0.0064230263233184814
1761417573988854000,9.01885400390625,-0.0639181137084961,-0.008486717939376831,0.004460439085960388
1761417574005696500,9.035696533203126,-0.057277679443359375,-0.004944473505020142,-0.0010673999786376953
1761417574022516500,9.0525166015625,-0.056278228759765625,-0.0024932920932769775,0.0021716952323913574
1761417574039341600,9.069341552734375,-0.05904579162597656,-0.003985166549682617,0.006824955344200134
1761417574056165400,9.086165283203124,-0.059462547302246094,-0.007223784923553467,0.0051890164613723755
1761417574072987600,9.102987548828125,-0.05368328094482422,-0.0087851881980896,0.00008663535118103027
1761417574089816600,9.119816650390625,-0.06998443603515625,-0.008277952671051025,0.009327441453933716
1761417574106638600,9.136638671875,-0.0649423599243164,-0.009232878684997559,0.0015275031328201294
1761417574123444500,9.153444580078125,-0.02607440948486328,0.008995980024337769,-0.01911608874797821
1761417574140259000,9.170259033203125,-0.0672769546508789,-0.008965075016021729,0.0097857266664505
