time,seconds_elapsed,z,y,x
1761484839797631200,0.23463134765625,-0.056915283203125,-0.003403782844543457,-0.00421220064163208
1761484839814439200,0.251439208984375,-0.060555458068847656,-0.008595705032348633,-0.0007585883140563965
1761484839831282000,0.268281982421875,-0.059319496154785156,-0.00871586799621582,-0.0015880763530731201
1761484839848107000,0.28510693359375,-0.053936004638671875,-0.010498642921447754,0.0012170374393463135
1761484839864933000,0.30193310546875,-0.06011009216308594,-0.006734728813171387,-0.005054295063018799
1761484839881758200,0.31875830078125,-0.055199623107910156,-0.0014231204986572266,-0.009050518274307251
1761484839898584000,0.335583984375,-0.056243896484375,-0.005304813385009766,-0.0038775205612182617
1761484839915409400,0.352409423828125,-0.062267303466796875,-0.006907939910888672,-0.0018998980522155762
1761484839932235300,0.3692353515625,-0.05439472198486328,-0.01016545295715332,-0.007952302694320679
1761484839949043500,0.38604345703125,-0.054332733154296875,-0.013645052909851074,0.0033150315284729004
1761484839965879600,0.402879638671875,-0.05498027801513672,-0.01234579086303711,0.0021375715732574463
1761484839982704400,0.419704345703125,-0.053295135498046875,-0.006926298141479492,0.007193088531494141
1761484839999558700,0.43655859375,-0.055312156677246094,-0.004396677017211914,0.005584657192230225
1761484840016361700,0.45336181640625,-0.05740070343017578,-0.0017508268356323242,0.002033710479736328
1761484840033184500,0.4701845703125,-0.05517768859863281,-0.0012197494506835938,-0.010471642017364502
1761484840050016000,0.48701611328125,-0.061463356018066406,-0.008068084716796875,-0.00740361213684082
1761484840066838800,0.5038388671875,-0.05657482147216797,-0.011365652084350586,-0.004860520362854004
1761484840083642600,0.520642578125,-0.05356025695800781,-0.01411449909210205,-0.007623463869094849
1761484840100462800,0.537462890625,-0.060085296630859375,-0.008220553398132324,-0.0011058151721954346
1761484840117310700,0.554310791015625,-0.05521583557128906,-0.005614042282104492,-0.00010702013969421387
1761484840134144500,0.57114453125,-0.061476707458496094,-0.00518035888671875,-0.006384074687957764
1761484840150966000,0.587966064453125,-0.05429649353027344,-0.0028667449951171875,-0.007086902856826782
1761484840167791400,0.604791259765625,-0.05612468719482422,-0.004320383071899414,0.0020455121994018555
1761484840184573400,0.621573486328125,-0.05460834503173828,-0.008021354675292969,0.0003771185874938965
1761484840201451000,0.638450927734375,-0.05146980285644531,-0.007304191589355469,0.00011783838272094727
1761484840218267400,0.655267333984375,-0.06675529479980469,-0.0071871280670166016,-0.003482341766357422
1761484840235074800,0.67207470703125,-0.06322288513183594,-0.010067939758300781,-0.008466362953186035
1761484840251903000,0.688903076171875,-0.05975341796875,-0.004734516143798828,-0.004793316125869751
1761484840268732700,0.705732666015625,-0.059218406677246094,-0.008051633834838867,-0.001923590898513794
1761484840285556000,0.722555908203125,-0.05214881896972656,-0.010352015495300293,-0.003312528133392334
1761484840302381600,0.739381591796875,-0.058058738708496094,-0.00892949104309082,0.0022182464599609375
1761484840319207000,0.75620703125,-0.054889678955078125,-0.007595658302307129,-0.005058318376541138
1761484840336032800,0.77303271484375,-0.057343482971191406,-0.007310628890991211,-0.004385530948638916
1761484840352857900,0.78985791015625,-0.060642242431640625,-0.007249951362609863,-0.004529207944869995
1761484840369700400,0.806700439453125,-0.06519126892089844,-0.0003352165222167969,-0.0026800036430358887
1761484840386522600,0.823522705078125,-0.058895111083984375,-0.006235003471374512,-0.0007335245609283447
1761484840403344000,0.84034375,-0.05566978454589844,-0.010027527809143066,-0.00567898154258728
1761484840420178000,0.857177978515625,-0.06330299377441406,-0.011760473251342773,-0.002327531576156616
1761484840437019000,0.874018798828125,-0.05570411682128906,-0.004906773567199707,-0.004656434059143066
1761484840453826000,0.890825927734375,-0.056334495544433594,-0.009758591651916504,-0.0021072030067443848
1761484840470649000,0.907649169921875,-0.058704376220703125,-0.004667878150939941,0.001256793737411499
1761484840487461600,0.924461669921875,-0.052730560302734375,-0.009712815284729004,-0.0011748969554901123
1761484840504306200,0.94130615234375,-0.057021141052246094,-0.007583975791931152,-0.0015497803688049316
1761484840521123800,0.958123779296875,-0.06059837341308594,-0.005452156066894531,-0.007454216480255127
1761484840537952500,0.974952392578125,-0.0611419677734375,-0.0028314590454101562,-0.0032795071601867676
1761484840554775000,0.991775146484375,-0.06123638153076172,-0.006372570991516113,-0.0014255642890930176
1761484840571605200,1.008605224609375,-0.05896949768066406,-0.002889394760131836,-0.0031231939792633057
1761484840588407600,1.025407470703125,-0.057323455810546875,-0.0053555965423583984,-0.0005793869495391846
1761484840605254400,1.04225439453125,-0.057727813720703125,-0.0009827613830566406,-0.0013483166694641113
1761484840622083300,1.059083251953125,-0.053722381591796875,-0.010305285453796387,-0.002602189779281616
1761484840638892000,1.07589208984375,-0.05830860137939453,-0.0036573410034179688,0.0012950301170349121
1761484840655730700,1.092730712890625,-0.057875633239746094,-0.0025718212127685547,-0.005059272050857544
1761484840672556000,1.10955615234375,-0.057816505432128906,-0.010461807250976562,-0.00900810956954956
1761484840689378300,1.12637841796875,-0.055530548095703125,-0.007629990577697754,-0.004837989807128906
1761484840706205400,1.143205322265625,-0.054534912109375,-0.011281490325927734,-0.003677845001220703
1761484840723019500,1.16001953125,-0.056179046630859375,-0.007741093635559082,0.0013412535190582275
1761484840739844400,1.17684423828125,-0.06340694427490234,-0.0061446428298950195,-0.003818005323410034
1761484840756668000,1.19366796875,-0.06449127197265625,-0.004178047180175781,-0.0070886313915252686
1761484840773496600,1.21049658203125,-0.06072998046875,-0.0028023719787597656,-0.008029967546463013
1761484840790298600,1.227298583984375,-0.05820751190185547,-0.00973820686340332,-0.00637972354888916
1761484840807146200,1.244146240234375,-0.056029319763183594,-0.00390934944152832,-0.00185433030128479
1761484840823971300,1.260971435546875,-0.06154823303222656,-0.0041348934173583984,0.0055488646030426025
1761484840840797000,1.277796875,-0.05541038513183594,-0.009935736656188965,0.004977881908416748
1761484840857642000,1.29464208984375,-0.057410240173339844,-0.006734728813171387,0.004963666200637817
1761484840874442500,1.3114423828125,-0.05364418029785156,-0.005188345909118652,-0.0042237937450408936
1761484840891286800,1.328286865234375,-0.056151390075683594,-0.008924484252929688,-0.004989951848983765
1761484840908110800,1.34511083984375,-0.0627288818359375,-0.013530969619750977,-0.000518500804901123
1761484840924938000,1.36193798828125,-0.05852985382080078,-0.014150142669677734,-0.006944239139556885
1761484840941762800,1.3787626953125,-0.060825347900390625,-0.008327484130859375,-0.0021144449710845947
1761484840958590000,1.39558984375,-0.053534507751464844,-0.010401368141174316,-0.0054475367069244385
1761484840975414300,1.412414306640625,-0.05599212646484375,-0.01013171672821045,-0.006061524152755737
1761484840992237000,1.429237060546875,-0.05523490905761719,-0.006595015525817871,-0.0061987340450286865
1761484841009061000,1.44606103515625,-0.060306549072265625,-0.010201215744018555,0.0006605684757232666
1761484841025898800,1.462898681640625,-0.09517860412597656,-0.020380496978759766,0.014014661312103271
1761484841042712600,1.479712646484375,-0.017693519592285156,-0.00625002384185791,-0.020919620990753174
1761484841059545000,1.496545166015625,-0.053318023681640625,-0.012017965316772461,0.004189342260360718
1761484841076367600,1.51336767578125,-0.06314659118652344,-0.0024628639221191406,-0.014008551836013794
1761484841093192400,1.5301923828125,-0.053391456604003906,-0.008301258087158203,-0.00004410743713378906
1761484841110006300,1.54700634765625,-0.07401371002197266,-0.01385033130645752,0.003446638584136963
1761484841126845400,1.563845458984375,-0.05959796905517578,-0.008161306381225586,0.0039708614349365234
1761484841143651300,1.5806513671875,-0.04701423645019531,-0.006748318672180176,0.003986656665802002
1761484841160489700,1.59748974609375,-0.0619964599609375,0.0008769035339355469,0.0026292502880096436
1761484841177322200,1.614322265625,-0.05550956726074219,-0.007737994194030762,0.0032408535480499268
1761484841194149000,1.631149169921875,-0.05518054962158203,-0.00903308391571045,-0.0017722547054290771
1761484841210954500,1.64795458984375,-0.06083393096923828,-0.007270693778991699,-0.0013675093650817871
1761484841227783000,1.664782958984375,-0.050154685974121094,-0.005265235900878906,-0.005355864763259888
1761484841244608500,1.6816083984375,-0.06250953674316406,-0.009639978408813477,-0.0016609430313110352
1761484841261434000,1.69843408203125,-0.055606842041015625,-0.004479527473449707,-0.004287004470825195
1761484841278259700,1.715259765625,-0.060418128967285156,-0.00653994083404541,-0.001837015151977539
1761484841295084500,1.73208447265625,-0.0541534423828125,-0.005797028541564941,-0.0031558573246002197
1761484841311910400,1.748910400390625,-0.057277679443359375,-0.00965571403503418,-0.005648583173751831
1761484841328733000,1.76573291015625,-0.057732582092285156,-0.008584260940551758,-0.0008900165557861328
1761484841345552000,1.7825517578125,-0.05894184112548828,-0.00025534629821777344,-0.005055516958236694
1761484841362398200,1.799398193359375,-0.05799388885498047,-0.008829712867736816,-0.004960060119628906
1761484841379226000,1.81622607421875,-0.06075859069824219,-0.008473753929138184,-0.0002849102020263672
1761484841396038100,1.8330380859375,-0.05713367462158203,-0.005999088287353516,-0.001313328742980957
1761484841412860400,1.8498603515625,-0.05365562438964844,-0.008585333824157715,0.0002906918525695801
1761484841429702100,1.8667021484375,-0.051344871520996094,-0.007158517837524414,-0.0030931830406188965
1761484841446525700,1.883525634765625,-0.0557098388671875,-0.010977745056152344,-0.0029540657997131348
1761484841463355400,1.90035546875,-0.05572223663330078,-0.010390877723693848,-0.004780232906341553
1761484841480179200,1.91717919921875,-0.0615692138671875,-0.002697467803955078,-0.0017651021480560303
1761484841497004000,1.934004150390625,-0.05662345886230469,-0.004927635192871094,-0.0004957020282745361
1761484841513830100,1.950830078125,-0.05764961242675781,-0.013480901718139648,-0.00856238603591919
1761484841530664200,1.967664306640625,-0.05602455139160156,-0.01002037525177002,-0.005088180303573608
1761484841547480800,1.984480712890625,-0.060484886169433594,-0.006110787391662598,-0.006356865167617798
1761484841564306400,2.001306396484375,-0.058234214782714844,-0.006673932075500488,-0.003585338592529297
1761484841581111600,2.018111572265625,-0.05676555633544922,-0.009650468826293945,0.0010304749011993408
1761484841597935900,2.034935791015625,-0.06061363220214844,-0.010023951530456543,0.002828270196914673
1761484841614778600,2.051778564453125,-0.05940437316894531,-0.00832521915435791,-0.0009725689888000488
1761484841631612200,2.068612060546875,-0.061018943786621094,-0.010907292366027832,-0.002695828676223755
1761484841648427300,2.08542724609375,-0.059472084045410156,-0.005433917045593262,-0.00896155834197998
1761484841665259500,2.102259521484375,-0.062155723571777344,-0.009336233139038086,-0.0030749142169952393
1761484841682075000,2.119074951171875,-0.06028461456298828,-0.014001131057739258,-0.001034379005432129
1761484841698892000,2.13589208984375,-0.05528450012207031,-0.00892484188079834,-0.0006874799728393555
1761484841715723000,2.152722900390625,-0.05746746063232422,-0.003957152366638184,-0.002440124750137329
1761484841732547300,2.16954736328125,-0.06072044372558594,-0.004384875297546387,-0.00046575069427490234
1761484841749373000,2.186373046875,-0.06528282165527344,-0.005019545555114746,-0.00560683012008667
1761484841766195000,2.20319482421875,-0.058989524841308594,-0.003313302993774414,-0.01059451699256897
1761484841783020500,2.2200205078125,-0.06501483917236328,-0.0031331777572631836,-0.0010372400283813477
1761484841799832000,2.23683203125,-0.054871559143066406,-0.004954814910888672,-0.0035414695739746094
1761484841816671700,2.253671630859375,-0.05918121337890625,-0.007514238357543945,-0.005117893218994141
1761484841833503000,2.2705029296875,-0.0569000244140625,-0.006831169128417969,-0.00654447078704834
1761484841850339300,2.28733935546875,-0.05768585205078125,-0.006743907928466797,-0.009782403707504272
1761484841867153700,2.304153564453125,-0.051967620849609375,-0.00486147403717041,-0.010262817144393921
1761484841883990500,2.320990478515625,-0.05695056915283203,-0.006345868110656738,-0.0056841373443603516
1761484841900797400,2.33779736328125,-0.05884742736816406,-0.006543636322021484,-0.0008407533168792725
1761484841917636600,2.35463671875,-0.058643341064453125,-0.011793851852416992,0.002138108015060425
1761484841934466600,2.371466552734375,-0.04985523223876953,-0.0061691999435424805,-0.0024701058864593506
1761484841951292400,2.38829248046875,-0.055510520935058594,-0.006436347961425781,-0.006178140640258789
1761484841968122000,2.4051220703125,-0.06043243408203125,-0.009374022483825684,-0.0026305019855499268
1761484841984938500,2.4219384765625,-0.06003284454345703,-0.006921648979187012,0.0007149279117584229
1761484842001768700,2.438768798828125,-0.057053565979003906,-0.0076552629470825195,0.0012776851654052734
1761484842018590500,2.455590576171875,-0.058884620666503906,-0.010612130165100098,0.0012908875942230225
1761484842035410200,2.47241015625,-0.05915355682373047,-0.011138677597045898,0.00020015239715576172
1761484842052245200,2.489245361328125,-0.06324958801269531,-0.0031595230102539062,-0.006772875785827637
1761484842069074200,2.50607421875,-0.059813499450683594,-0.004190325736999512,-0.00792849063873291
1761484842085892900,2.522892822265625,-0.052962303161621094,-0.006055712699890137,-0.007087826728820801
1761484842102721500,2.539721435546875,-0.05597972869873047,-0.006421089172363281,-0.005765348672866821
1761484842119547400,2.55654736328125,-0.05642986297607422,-0.005401492118835449,-0.003740280866622925
1761484842136372200,2.573372314453125,-0.060581207275390625,-0.002136826515197754,-0.0019511878490447998
1761484842153194200,2.5901943359375,-0.05714893341064453,-0.005702018737792969,-0.002007097005844116
1761484842170028000,2.607028076171875,-0.053714752197265625,-0.009138822555541992,-0.011778980493545532
1761484842186831600,2.62383154296875,-0.05141162872314453,-0.00670933723449707,-0.007390409708023071
1761484842203660500,2.64066064453125,-0.05689239501953125,-0.010525107383728027,-0.0027842819690704346
1761484842220486400,2.657486328125,-0.05658531188964844,-0.004122018814086914,-0.003169804811477661
1761484842237311500,2.6743115234375,-0.05945777893066406,-0.00903165340423584,-0.007337123155593872
1761484842254139000,2.691138916015625,-0.06103229522705078,-0.007960200309753418,0.00010198354721069336
1761484842270962700,2.707962646484375,-0.05769634246826172,-0.006693840026855469,0.006668001413345337
1761484842287777000,2.724777099609375,-0.05376434326171875,-0.002518296241760254,0.0066179633140563965
1761484842304613600,2.741613525390625,-0.051375389099121094,-0.00017631053924560547,0.0022076964378356934
1761484842321434400,2.758434326171875,-0.05865287780761719,-0.006775856018066406,0.00012069940567016602
1761484842338282000,2.775281982421875,-0.05796337127685547,-0.004883408546447754,0.0016297399997711182
1761484842355100000,2.792099853515625,-0.056077003479003906,-0.01041555404663086,-0.0025320053100585938
1761484842371933000,2.808932861328125,-0.05531597137451172,-0.007074236869812012,0.0008394122123718262
1761484842388755000,2.8257548828125,-0.05747509002685547,-0.010672926902770996,-0.0003383755683898926
1761484842405576200,2.842576171875,-0.058930397033691406,-0.0072307586669921875,-0.002762407064437866
1761484842422410000,2.859409912109375,-0.059151649475097656,-0.003753185272216797,-0.003198295831680298
1761484842439231000,2.87623095703125,-0.057389259338378906,-0.0021753311157226562,-0.001982748508453369
1761484842456056800,2.893056884765625,-0.05372047424316406,-0.012889742851257324,-0.0048812031745910645
1761484842472882000,2.9098818359375,-0.05900287628173828,-0.007613658905029297,-0.007600277662277222
1761484842489698800,2.92669873046875,-0.0661478042602539,-0.009654521942138672,0.00024446845054626465
1761484842506532900,2.943532958984375,-0.056179046630859375,-0.0023224353790283203,-0.00466233491897583
1761484842523358500,2.9603583984375,-0.061644554138183594,-0.0019488334655761719,-0.009500682353973389
1761484842540183800,2.977183837890625,-0.058406829833984375,-0.008899450302124023,-0.004376083612442017
1761484842557010000,2.994010009765625,-0.05791187286376953,-0.008204102516174316,-0.005423545837402344
1761484842573854500,3.0108544921875,-0.05784034729003906,-0.004011750221252441,0.003182321786880493
1761484842590654200,3.027654296875,-0.05668067932128906,-0.006387591361999512,0.012580543756484985
1761484842607492000,3.0444921875,-0.058777809143066406,-0.005626797676086426,0.00002574920654296875
1761484842624308700,3.061308837890625,-0.062012672424316406,-0.0048906803131103516,-0.003343939781188965
1761484842641132500,3.078132568359375,-0.05146503448486328,-0.006490588188171387,-0.008755505084991455
1761484842657965800,3.0949658203125,-0.06497955322265625,-0.012564420700073242,-0.005375891923904419
1761484842674771500,3.111771484375,-0.053696632385253906,-0.006579756736755371,-0.001501619815826416
1761484842691598800,3.128598876953125,-0.06417083740234375,-0.0009390115737915039,-0.0018534064292907715
1761484842708424700,3.1454248046875,-0.056334495544433594,-0.003045797348022461,-0.002008110284805298
1761484842725250300,3.162250244140625,-0.056446075439453125,-0.003392815589904785,-0.0032263100147247314
1761484842742076000,3.179075927734375,-0.057590484619140625,-0.006443381309509277,-0.007489114999771118
1761484842758901500,3.195901611328125,-0.059554100036621094,-0.006869316101074219,-0.007004767656326294
1761484842775709200,3.212709228515625,-0.059210777282714844,-0.01097118854522705,-0.006788849830627441
1761484842792551200,3.22955126953125,-0.06387805938720703,-0.0103834867477417,-0.0038594603538513184
1761484842809378800,3.24637890625,-0.05694580078125,-0.007425189018249512,-0.008014708757400513
1761484842826220500,3.263220458984375,-0.0617523193359375,-0.0028427839279174805,-0.009846687316894531
1761484842843026000,3.28002587890625,-0.060683250427246094,-0.010357379913330078,-0.006008327007293701
1761484842859863600,3.296863525390625,-0.05938529968261719,-0.01033473014831543,0.001495271921157837
1761484842876697300,3.313697265625,-0.059180259704589844,-0.010385870933532715,0.0048600733280181885
1761484842893518800,3.330518798828125,-0.06499195098876953,-0.014574050903320312,0.007395148277282715
1761484842910340400,3.34734033203125,-0.057109832763671875,-0.009415626525878906,-0.0027601122856140137
1761484842927173600,3.364173583984375,-0.0617828369140625,-0.0045435428619384766,-0.0010135471820831299
1761484842943975200,3.38097509765625,-0.04218006134033203,-0.009688258171081543,-0.002941042184829712
1761484842960804000,3.39780419921875,-0.061303138732910156,-0.005831360816955566,0.0002963542938232422
1761484842977629700,3.414629638671875,-0.056438446044921875,-0.0017702579498291016,-0.013450413942337036
1761484842994471000,3.431470947265625,-0.06280136108398438,-0.006220579147338867,-0.003404468297958374
1761484843011296800,3.448296875,-0.06669998168945312,-0.013820648193359375,0.004105061292648315
1761484843028120300,3.465120361328125,-0.06208229064941406,-0.004017829895019531,-0.007548004388809204
1761484843044951300,3.481951416015625,-0.06317806243896484,-0.004728913307189941,-0.0012041330337524414
1761484843061773600,3.498773681640625,-0.06267929077148438,-0.0038483142852783203,-0.005395710468292236
1761484843078599700,3.515599609375,-0.05563068389892578,-0.00828087329864502,-0.010246098041534424
1761484843095424500,3.532424560546875,-0.05634498596191406,-0.011327862739562988,-0.007821887731552124
1761484843112250000,3.54925,-0.05465412139892578,-0.006023287773132324,-0.0005486905574798584
1761484843129075700,3.56607568359375,-0.05504322052001953,-0.011128664016723633,-0.004100620746612549
1761484843145901000,3.582901123046875,-0.061450958251953125,-0.010626792907714844,-0.0006939470767974854
1761484843162712000,3.599712158203125,-0.05543041229248047,-0.007674217224121094,-0.0001157522201538086
1761484843179532500,3.616532470703125,-0.0632925033569336,-0.004297494888305664,-0.001169055700302124
1761484843196354000,3.63335400390625,-0.061553001403808594,-0.006789803504943848,-0.0012378990650177002
1761484843213189000,3.650189208984375,-0.05495452880859375,-0.012986063957214355,-0.0012706220149993896
1761484843230015000,3.667014892578125,-0.058516502380371094,-0.00914299488067627,0.002829432487487793
1761484843246839600,3.683839599609375,-0.05614280700683594,-0.0044438838958740234,0.0006644129753112793
1761484843263650600,3.700650634765625,-0.05641746520996094,-0.0078812837600708,-0.004987925291061401
1761484843280491000,3.717490966796875,-0.057598114013671875,-0.0020390748977661133,0.0001087188720703125
1761484843297316900,3.73431689453125,-0.06183338165283203,-0.002329230308532715,-0.003878265619277954
1761484843314145000,3.75114501953125,-0.051418304443359375,-0.007643461227416992,-0.005755335092544556
1761484843330964700,3.76796484375,-0.059113502502441406,-0.006090641021728516,0.0011268556118011475
1761484843347806700,3.784806640625,-0.06028556823730469,-0.015691518783569336,-0.0021052658557891846
1761484843364632300,3.80163232421875,-0.059325218200683594,-0.007226705551147461,-0.005556255578994751
1761484843381457700,3.818457763671875,-0.058037757873535156,-0.005986690521240234,-0.007802039384841919
1761484843398282800,3.83528271484375,-0.054909706115722656,-0.009928703308105469,-0.007551431655883789
1761484843415103200,3.852103271484375,-0.05736827850341797,-0.010437607765197754,-0.003550291061401367
1761484843431939600,3.868939697265625,-0.05074787139892578,-0.01054847240447998,0.005127161741256714
1761484843448759300,3.88575927734375,-0.05850696563720703,-0.0036650896072387695,0.012759119272232056
1761484843465585000,3.9025849609375,-0.05740070343017578,-0.0020066499710083008,0.0016646385192871094
1761484843482410200,3.91941015625,-0.05886650085449219,-0.005300760269165039,-0.01030421257019043
1761484843499236400,3.936236328125,-0.057936668395996094,-0.009949326515197754,-0.006988257169723511
1761484843516062000,3.95306201171875,-0.06072807312011719,-0.006565213203430176,-0.0041020214557647705
1761484843532886500,3.969886474609375,-0.05415153503417969,-0.006139993667602539,-0.0019513070583343506
1761484843549699600,3.986699462890625,-0.06241321563720703,-0.010148882865905762,0.002380281686782837
1761484843566531800,4.00353173828125,-0.050337791442871094,-0.013749957084655762,-0.004930973052978516
1761484843583367200,4.0203671875,-0.060695648193359375,-0.009575128555297852,-0.004919767379760742
1761484843600159500,4.037159423828125,-0.05706596374511719,-0.006665349006652832,-0.004224032163619995
1761484843617014000,4.054013916015625,-0.06349754333496094,-0.005635738372802734,0.003394603729248047
1761484843633840000,4.070840087890625,-0.05749988555908203,-0.006014108657836914,0.0023079216480255127
1761484843650651100,4.087651123046875,-0.06066417694091797,-0.007106900215148926,-0.0008343756198883057
1761484843667472000,4.104471923828125,-0.05643463134765625,-0.010189533233642578,-0.00823134183883667
1761484843684298200,4.12129833984375,-0.055792808532714844,-0.011818408966064453,-0.013412505388259888
1761484843701128200,4.138128173828125,-0.0586090087890625,-0.016839027404785156,-0.001416534185409546
1761484843717953000,4.154953125,-0.05902385711669922,-0.00601351261138916,0.002709418535232544
1761484843734778600,4.171778564453125,-0.057953834533691406,-0.004330158233642578,0.003306567668914795
1761484843751604000,4.18860400390625,-0.058936119079589844,-0.008059144020080566,0.005111634731292725
1761484843768430000,4.20543017578125,-0.05387687683105469,-0.011622190475463867,0.0013647079467773438
1761484843785255000,4.2222548828125,-0.06123828887939453,-0.010978937149047852,-0.0010603368282318115
1761484843802080800,4.239080810546875,-0.06123542785644531,-0.01071786880493164,-0.0054769814014434814
1761484843818923000,4.255923095703125,-0.06009960174560547,-0.010668516159057617,-0.0031851530075073242
1761484843835745800,4.272745849609375,-0.055230140686035156,-0.011666536331176758,-0.005827844142913818
1761484843852595700,4.289595703125,-0.05447959899902344,-0.00962841510772705,-0.0004882216453552246
1761484843869396200,4.306396240234375,-0.05728721618652344,-0.011597990989685059,-0.0032989978790283203
1761484843886221600,4.3232216796875,-0.05885887145996094,-0.0066149234771728516,-0.0031290948390960693
1761484843903047200,4.340047119140625,-0.05617046356201172,-0.00995779037475586,-0.005971342325210571
1761484843919868700,4.35686865234375,-0.05639457702636719,-0.008802413940429688,-0.0035476386547088623
1761484843936702200,4.3737021484375,-0.06455039978027344,-0.007496833801269531,-0.0009137988090515137
1761484843953520000,4.39052001953125,-0.05116081237792969,-0.008549094200134277,-0.00023043155670166016
1761484843970352600,4.4073525390625,-0.05562782287597656,-0.008679747581481934,0.00032326579093933105
1761484843987174100,4.424174072265625,-0.056786537170410156,-0.004712343215942383,0.0000055730342864990234
1761484844004000000,4.441,-0.053559303283691406,-0.00986170768737793,-0.0014063715934753418
1761484844020812000,4.45781201171875,-0.05892467498779297,-0.006613492965698242,-0.004245400428771973
1761484844037669400,4.47466943359375,-0.05795860290527344,-0.007175445556640625,-0.002945840358734131
1761484844054459400,4.49145947265625,-0.05146503448486328,-0.0032352209091186523,-0.004743993282318115
1761484844071302100,4.50830224609375,-0.056809425354003906,-0.004932761192321777,-0.0034113824367523193
1761484844088111000,4.525111083984375,-0.056476593017578125,-0.008127450942993164,0.0048202574253082275
1761484844104952800,4.541952880859375,-0.06048870086669922,-0.0074460506439208984,0.00016757845878601074
1761484844121755000,4.5587548828125,-0.050536155700683594,-0.00736081600189209,-0.0016407370567321777
1761484844138586600,4.575586669921875,-0.05959033966064453,-0.0032595396041870117,0.0009362697601318359
1761484844155415600,4.59241552734375,-0.05625152587890625,-0.006723642349243164,-0.00031757354736328125
1761484844172241400,4.609241455078125,-0.05527687072753906,-0.007113814353942871,-0.0015806257724761963
1761484844189066500,4.62606640625,-0.06033515930175781,-0.01116788387298584,-0.0029359161853790283
1761484844205891800,4.642891845703125,-0.055267333984375,-0.014576196670532227,-0.004936277866363525
1761484844222699300,4.65969921875,-0.053360939025878906,-0.008142828941345215,-0.009209156036376953
1761484844239546400,4.67654638671875,-0.05792236328125,-0.006050705909729004,-0.009274154901504517
1761484844256368400,4.693368408203125,-0.05553722381591797,-0.006911635398864746,-0.0030348002910614014
1761484844273194000,4.710194091796875,-0.05045890808105469,-0.014078259468078613,-0.0032767653465270996
1761484844290019300,4.727019287109375,-0.05847740173339844,-0.011003971099853516,0.0031032562255859375
1761484844306862000,4.743862060546875,-0.0596771240234375,-0.00774538516998291,-0.0010641217231750488
1761484844323684000,4.76068408203125,-0.05922222137451172,-0.00017952919006347656,-0.001622229814529419
1761484844340480300,4.777480224609375,-0.05688762664794922,-0.004816293716430664,-0.009795308113098145
1761484844357334800,4.794334716796875,-0.05474281311035156,-0.007822155952453613,-0.00293007493019104
1761484844374160600,4.81116064453125,-0.06026935577392578,-0.015269041061401367,-0.0035830140113830566
1761484844390985700,4.82798583984375,-0.06337261199951172,-0.0094832181930542,-0.0018688440322875977
1761484844407811000,4.84481103515625,-0.05799674987792969,-0.011533260345458984,-0.003315538167953491
1761484844424620500,4.86162060546875,-0.05669212341308594,-0.006626725196838379,-0.0070609450340271
1761484844441462800,4.878462890625,-0.054732322692871094,-0.010905981063842773,-0.006427139043807983
1761484844458287900,4.895287841796875,-0.051013946533203125,-0.009340882301330566,-0.003470867872238159
1761484844475113000,4.912113037109375,-0.05613231658935547,-0.005565524101257324,0.0009762942790985107
1761484844491940400,4.9289404296875,-0.051695823669433594,-0.006856441497802734,-0.005435317754745483
1761484844508764700,4.9457646484375,-0.05282402038574219,-0.0081099271774292,-0.004013687372207642
1761484844525589500,4.962589599609375,-0.059981346130371094,-0.003087162971496582,-0.004962116479873657
1761484844542415000,4.9794150390625,-0.05813121795654297,-0.005330324172973633,-0.005102068185806274
1761484844559223800,4.996223876953125,-0.0589752197265625,-0.012754440307617188,0.000705033540725708
1761484844576066000,5.013066162109375,-0.05617523193359375,-0.005164623260498047,-0.0012415051460266113
1761484844592882400,5.02988232421875,-0.06047344207763672,-0.007992863655090332,0.002544313669204712
1761484844609717200,5.04671728515625,-0.059342384338378906,-0.008399248123168945,-0.0008667111396789551
1761484844626521900,5.06352197265625,-0.05983924865722656,-0.0112532377243042,-0.0013121962547302246
1761484844643357700,5.080357666015625,-0.06397247314453125,-0.011732816696166992,-0.0024382472038269043
1761484844660179500,5.097179443359375,-0.0639505386352539,-0.012949705123901367,-0.002537250518798828
1761484844677005000,5.114005126953125,-0.06865596771240234,-0.009087324142456055,-0.001035839319229126
1761484844693830700,5.13083056640625,-0.049560546875,-0.010349512100219727,-0.0024290382862091064
1761484844710656500,5.147656494140625,-0.04911994934082031,-0.00930774211883545,0.006821125745773315
1761484844727481300,5.1644814453125,-0.054744720458984375,-0.007394552230834961,-0.0009856820106506348
1761484844744307200,5.18130712890625,-0.0504150390625,-0.006922483444213867,-0.001612544059753418
1761484844761132500,5.198132568359375,-0.053818702697753906,-0.008080840110778809,-0.0003348886966705322
1761484844777958100,5.214958251953125,-0.05612754821777344,-0.008863449096679688,-0.007062047719955444
1761484844794800600,5.231800537109375,-0.0529022216796875,-0.006082892417907715,-0.008049815893173218
1761484844811605800,5.248605712890625,-0.05191326141357422,-0.00975048542022705,-0.006713807582855225
1761484844828448300,5.2654482421875,-0.06100273132324219,-0.006310701370239258,-0.0027705132961273193
1761484844845273600,5.282273681640625,-0.06237030029296875,-0.005756497383117676,-0.0014041364192962646
1761484844862099000,5.299098876953125,-0.06079864501953125,-0.006783962249755859,-0.001050412654876709
1761484844878924500,5.315924560546875,-0.055999755859375,-0.011075973510742188,-0.003989756107330322
1761484844895750400,5.33275048828125,-0.05981636047363281,-0.011775374412536621,-0.005579084157943726
1761484844912576000,5.349575927734375,-0.058116912841796875,-0.011883378028869629,0.004016757011413574
1761484844929395500,5.3663955078125,-0.057862281799316406,-0.00894618034362793,0.003668367862701416
1761484844946231000,5.38323095703125,-0.057829856872558594,-0.004416823387145996,-0.0021494925022125244
1761484844963052000,5.400052001953125,-0.0531158447265625,-0.004815816879272461,-0.004284113645553589
1761484844979870200,5.4168701171875,-0.05597877502441406,-0.010702133178710938,-0.0028184056282043457
1761484844996703500,5.433703369140625,-0.05983161926269531,-0.004549980163574219,0.005556255578994751
1761484845013531100,5.45053125,-0.056995391845703125,-0.010633707046508789,-0.0014203786849975586
1761484845030353400,5.467353515625,-0.058856964111328125,-0.007355690002441406,-0.0024848878383636475
1761484845047179300,5.48417919921875,-0.05798625946044922,-0.011052370071411133,-0.00439569354057312
1761484845063987200,5.5009873046875,-0.060797691345214844,-0.0033582448959350586,-0.005773872137069702
1761484845080813300,5.517813232421875,-0.05651569366455078,-0.005115866661071777,-0.00881168246269226
1761484845097655800,5.53465576171875,-0.058300018310546875,-0.006542563438415527,-0.005235016345977783
1761484845114464300,5.55146435546875,-0.04913902282714844,-0.005642294883728027,0.0021152496337890625
1761484845131292400,5.56829248046875,-0.05539131164550781,-0.005488038063049316,0.00847598910331726
1761484845148106500,5.5851064453125,-0.057478904724121094,-0.005488991737365723,0.001490563154220581
1761484845164940500,5.6019404296875,-0.05893898010253906,-0.006601572036743164,-0.004646986722946167
1761484845181773000,5.61877294921875,-0.05412006378173828,-0.005556821823120117,-0.010547071695327759
1761484845198594000,5.635593994140625,-0.06431102752685547,-0.008203744888305664,-0.004448503255844116
1761484845215420200,5.652420166015625,-0.05481243133544922,-0.014912247657775879,-0.00410035252571106
1761484845232245500,5.66924560546875,-0.060362815856933594,-0.013616681098937988,-0.001154482364654541
1761484845249071400,5.6860712890625,-0.05534934997558594,-0.01457679271697998,-0.0026020705699920654
1761484845265896200,5.702896240234375,-0.05636882781982422,-0.014774322509765625,-0.005140542984008789
1761484845282725000,5.71972509765625,-0.05181694030761719,-0.008919119834899902,-0.005519449710845947
1761484845299557000,5.73655712890625,-0.05583381652832031,0.000047087669372558594,-0.006715297698974609
1761484845316395800,5.753395751953125,-0.06456756591796875,-0.005554318428039551,0.0023393332958221436
1761484845333236500,5.770236572265625,-0.053055763244628906,-0.01045238971710205,0.002550780773162842
1761484845350036700,5.78703662109375,-0.06007862091064453,-0.008314371109008789,-0.0004011094570159912
1761484845366846200,5.80384619140625,-0.059363365173339844,-0.0027240514755249023,-0.001992344856262207
1761484845383679500,5.820679443359375,-0.05697822570800781,-0.005933046340942383,-0.0052096545696258545
1761484845400515000,5.83751513671875,-0.05662822723388672,-0.0074770450592041016,-0.0015878677368164062
1761484845417321700,5.85432177734375,-0.059494972229003906,-0.011366724967956543,0.007205665111541748
1761484845434151200,5.871151123046875,-0.07097721099853516,-0.01309359073638916,0.011504381895065308
1761484845450976800,5.887976806640625,-0.056319236755371094,-0.01167762279510498,0.00004711747169494629
1761484845467802000,5.904802001953125,-0.05425834655761719,-0.00868678092956543,-0.0024009644985198975
1761484845484627500,5.92162744140625,-0.06255817413330078,-0.010207653045654297,-0.002124965190887451
1761484845501453000,5.938453125,-0.06853389739990234,-0.010519981384277344,-0.0009131431579589844
1761484845518295800,5.9552958984375,-0.05256938934326172,-0.008777260780334473,-0.0005924701690673828
1761484845535117800,5.972117919921875,-0.04788017272949219,-0.007395267486572266,-0.005635738372802734
1761484845551939000,5.98893896484375,-0.03470611572265625,-0.007074236869812012,-0.008463382720947266
1761484845568753700,6.005753662109375,-0.05213165283203125,-0.0029304027557373047,-0.007137328386306763
1761484845585582000,6.02258203125,-0.061089515686035156,-0.009180188179016113,-0.0007378756999969482
1761484845602402300,6.03940234375,-0.058363914489746094,-0.010105729103088379,0.001390606164932251
1761484845619231200,6.056231201171875,-0.06835651397705078,-0.009078741073608398,0.0005225539207458496
1761484845636056800,6.073056884765625,-0.05539989471435547,-0.006073951721191406,-0.00532156229019165
1761484845652882700,6.089882568359375,-0.058640480041503906,-0.008498549461364746,0.00312197208404541
1761484845669707300,6.106707275390625,-0.05215167999267578,-0.008235812187194824,0.0010847151279449463
1761484845686533000,6.123533203125,-0.05295276641845703,-0.009948134422302246,0.003976553678512573
1761484845703358500,6.1403583984375,-0.05535125732421875,-0.0032509565353393555,-0.0035455524921417236
1761484845720184300,6.157184326171875,-0.06449031829833984,-0.00735163688659668,-0.0019474327564239502
1761484845737009400,6.174009521484375,-0.05481147766113281,-0.004043936729431152,-0.0034369230270385742
1761484845753835000,6.1908349609375,-0.062109947204589844,-0.013512253761291504,0.0050310492515563965
1761484845770660400,6.207660400390625,-0.051537513732910156,-0.01186680793762207,-0.0035494863986968994
1761484845787503000,6.224503173828125,-0.05170249938964844,-0.006580352783203125,-0.0031186938285827637
1761484845804311300,6.241311279296875,-0.050307273864746094,-0.0058258771896362305,-0.010536819696426392
1761484845821161200,6.2581611328125,-0.05330944061279297,0.0013511180877685547,-0.005891710519790649
1761484845837959000,6.274958984375,-0.062378883361816406,-0.005667686462402344,0.0029664039611816406
1761484845854770400,6.2917705078125,-0.05969810485839844,-0.006705284118652344,-0.0024921298027038574
1761484845871626500,6.30862646484375,-0.05816078186035156,-0.00280153751373291,-0.00320473313331604
1761484845888448000,6.325447998046875,-0.05677604675292969,-0.012206077575683594,-0.0016089975833892822
1761484845905278500,6.342278564453125,-0.05477142333984375,-0.008945703506469727,-0.003302961587905884
1761484845922103600,6.359103515625,-0.05965614318847656,-0.002208113670349121,0.003429234027862549
1761484845938928000,6.37592822265625,-0.05471324920654297,-0.009258508682250977,-0.0066599249839782715
1761484845955753200,6.392753173828125,-0.05737495422363281,-0.015529751777648926,0.0005677342414855957
1761484845972564200,6.409564208984375,-0.056632041931152344,-0.011339306831359863,0.012667745351791382
1761484845989405700,6.42640576171875,-0.057656288146972656,-0.0077964067459106445,0.0028389394283294678
1761484846006213600,6.443213623046875,-0.05893898010253906,-0.004410743713378906,-0.006789445877075195
1761484846023052300,6.46005224609375,-0.06384849548339844,-0.002777099609375,-0.01215296983718872
1761484846039885600,6.476885498046875,-0.061656951904296875,-0.010724902153015137,-0.004222005605697632
1761484846056707600,6.49370751953125,-0.055472373962402344,-0.009033918380737305,-0.0036714375019073486
1761484846073532400,6.510532470703125,-0.059891700744628906,-0.00885319709777832,0.003482311964035034
1761484846090341000,6.527341064453125,-0.05521106719970703,-0.011696219444274902,-0.0022996366024017334
1761484846107169500,6.54416943359375,-0.07382583618164062,-0.012246251106262207,0.0014638304710388184
1761484846123995400,6.560995361328125,-0.04534626007080078,-0.007765531539916992,-0.00798007845878601
1761484846140820700,6.57782080078125,-0.05153656005859375,-0.00946044921875,0.006384789943695068
1761484846157630200,6.594630126953125,-0.05738067626953125,-0.008007168769836426,0.0008668005466461182
1761484846174474800,6.611474853515625,-0.05665016174316406,-0.012342691421508789,0.0063002705574035645
1761484846191301400,6.62830126953125,-0.05333518981933594,-0.010694384574890137,-0.004663348197937012
1761484846208122000,6.6451220703125,-0.053902626037597656,-0.006941676139831543,-0.005508691072463989
1761484846224948000,6.661947998046875,-0.053198814392089844,-0.008623838424682617,-0.006332606077194214
1761484846241773600,6.678773681640625,-0.056786537170410156,-0.006446361541748047,-0.002247422933578491
1761484846258598400,6.695598388671875,-0.0750284194946289,-0.01042318344116211,0.011520534753799438
1761484846275427300,6.71242724609375,-0.06088542938232422,-0.004657745361328125,0.0012356340885162354
1761484846292259600,6.729259521484375,-0.050797462463378906,-0.015154600143432617,-0.0017731785774230957
1761484846309093000,6.746093017578125,-0.06549930572509766,-0.012912750244140625,-0.0019707977771759033
1761484846325895000,6.76289501953125,-0.054268836975097656,-0.008243441581726074,-0.001460343599319458
1761484846342743800,6.779743896484375,-0.061351776123046875,-0.008631348609924316,-0.004190117120742798
1761484846359565000,6.79656494140625,-0.0565948486328125,-0.007383227348327637,-0.004624485969543457
1761484846376368400,6.813368408203125,-0.055382728576660156,-0.009509086608886719,0.006374478340148926
1761484846393216500,6.830216552734375,-0.07031059265136719,-0.013368964195251465,-0.003070622682571411
1761484846410045700,6.847045654296875,-0.05568122863769531,-0.010993480682373047,-0.002132207155227661
1761484846426867200,6.8638671875,-0.052336692810058594,-0.00942075252532959,-0.0032040774822235107
1761484846443692500,6.880692626953125,-0.05995750427246094,-0.01030886173248291,-0.0033146440982818604
1761484846460501800,6.897501708984375,-0.05703258514404297,-0.007607817649841309,-0.0005330741405487061
1761484846477339400,6.91433935546875,-0.056586265563964844,-0.004291653633117676,0.003888726234436035
1761484846494173200,6.931173095703125,-0.054737091064453125,-0.00847482681274414,-0.0023755133152008057
1761484846510994200,6.947994140625,-0.051544189453125,-0.0042726993560791016,-0.004578143358230591
1761484846527820300,6.9648203125,-0.055121421813964844,-0.007732033729553223,-0.0018933415412902832
1761484846544643300,6.981643310546875,-0.05452156066894531,-0.010051131248474121,-0.0004310309886932373
1761484846561470700,6.998470703125,-0.06027984619140625,-0.012686014175415039,-0.0001577436923980713
1761484846578276600,7.015276611328125,-0.055314064025878906,-0.010718345642089844,0.005743205547332764
1761484846595111400,7.032111328125,-0.053420066833496094,-0.004614353179931641,0.0036812126636505127
1761484846611933400,7.048933349609375,-0.05719280242919922,-0.007768869400024414,0.0004717111587524414
1761484846628759000,7.065759033203125,-0.05255699157714844,-0.00426173210144043,0.001153498888015747
1761484846645584600,7.082584716796875,-0.05593395233154297,-0.0036095380783081055,0.0031235218048095703
1761484846662407200,7.0994072265625,-0.05985450744628906,-0.005341529846191406,0.0016937851905822754
1761484846679238400,7.11623828125,-0.06335926055908203,-0.0068291425704956055,-0.00376129150390625
1761484846696040700,7.133040771484375,-0.06049537658691406,-0.006912708282470703,-0.0034241676330566406
1761484846712886500,7.149886474609375,-0.056491851806640625,-0.012723326683044434,0.0012516677379608154
1761484846729712000,7.166712158203125,-0.05767059326171875,-0.008926033973693848,0.00019854307174682617
1761484846746537000,7.183536865234375,-0.06076812744140625,-0.0043288469314575195,-0.008049637079238892
1761484846763367200,7.2003671875,-0.05247306823730469,-0.010525703430175781,-0.0023984313011169434
1761484846780201200,7.217201171875,-0.05999755859375,-0.010267138481140137,-0.0033470988273620605
1761484846797025000,7.23402490234375,-0.05185413360595703,-0.005665421485900879,0.0022777020931243896
1761484846813851000,7.250850830078125,-0.06280994415283203,-0.009670138359069824,0.009521484375
1761484846830676500,7.267676513671875,-0.05455303192138672,-0.00741422176361084,-0.0015065670013427734
1761484846847491600,7.28449169921875,-0.05850410461425781,-0.005893826484680176,-0.011371344327926636
1761484846864324600,7.30132470703125,-0.056977272033691406,-0.00153350830078125,-0.0052449703216552734
1761484846881157400,7.318157470703125,-0.062450408935546875,-0.007245540618896484,-0.004933863878250122
1761484846897966800,7.334966796875,-0.05921459197998047,-0.011037826538085938,-0.005565285682678223
1761484846914803000,7.351802978515625,-0.062140464782714844,-0.004604220390319824,-0.0009248554706573486
1761484846931634200,7.36863427734375,-0.059673309326171875,-0.0064345598220825195,0.002668440341949463
1761484846948452900,7.385452880859375,-0.059952735900878906,-0.010750412940979004,-0.0048828125
1761484846965281300,7.40228125,-0.05708122253417969,-0.008399724960327148,-0.007779419422149658
1761484846982109000,7.41910888671875,-0.055988311767578125,-0.011038064956665039,-0.0019190311431884766
1761484846998933200,7.435933349609375,-0.05761528015136719,-0.013167977333068848,-0.00041371583938598633
1761484847015758000,7.452758056640625,-0.05558586120605469,-0.00880730152130127,0.003948807716369629
1761484847032583700,7.469583740234375,-0.05792522430419922,-0.004054546356201172,-0.008154332637786865
1761484847049409500,7.486409423828125,-0.0648946762084961,-0.006290435791015625,-0.006441831588745117
1761484847066218200,7.50321826171875,-0.056034088134765625,-0.00490415096282959,-0.007898569107055664
1761484847083044400,7.52004443359375,-0.05468273162841797,-0.007692217826843262,0.0006116628646850586
1761484847099873800,7.536873779296875,-0.05854606628417969,-0.012781739234924316,0.0030607879161834717
1761484847116697600,7.553697509765625,-0.06498241424560547,-0.010598063468933105,0.008622586727142334
1761484847133520400,7.570520263671875,-0.05898284912109375,-0.011324882507324219,0.00367853045463562
1761484847150347800,7.58734765625,-0.05514717102050781,-0.013723373413085938,0.001743704080581665
1761484847167174400,7.60417431640625,-0.05976581573486328,-0.008907198905944824,0.000388413667678833
1761484847183986400,7.620986328125,-0.059329986572265625,-0.011072993278503418,0.0030661821365356445
1761484847200819700,7.63781982421875,-0.05584430694580078,-0.008548736572265625,0.0035325586795806885
1761484847217655600,7.654655517578125,-0.053531646728515625,-0.01105344295501709,-0.0023407340049743652
1761484847234471200,7.67147119140625,-0.058363914489746094,-0.00746464729309082,-0.0045302510261535645
1761484847251305700,7.6883056640625,-0.05910682678222656,-0.006849408149719238,-0.004761099815368652
1761484847268144000,7.70514404296875,-0.05871295928955078,-0.0068999528884887695,0.001002192497253418
1761484847284950300,7.7219501953125,-0.05507946014404297,-0.006920933723449707,0.0024268031120300293
1761484847301791000,7.738791015625,-0.0533905029296875,-0.009228229522705078,-0.0007632672786712646
1761484847318616600,7.755616455078125,-0.058330535888671875,-0.0066831111907958984,-0.00706791877746582
1761484847335441000,7.77244091796875,-0.053885459899902344,-0.009799361228942871,0.0007084906101226807
1761484847352267500,7.789267578125,-0.057265281677246094,-0.009659886360168457,0.004020810127258301
1761484847369094700,7.8060947265625,-0.056636810302734375,-0.008521676063537598,0.0004450380802154541
1761484847385915100,7.8229150390625,-0.05948925018310547,-0.011081576347351074,-0.00008273124694824219
1761484847402744300,7.839744384765625,-0.05634593963623047,-0.014383792877197266,-0.0060852766036987305
1761484847419569400,7.8565693359375,-0.060555458068847656,-0.013276100158691406,-0.0001271367073059082
1761484847436394500,7.87339453125,-0.053073883056640625,-0.004985809326171875,0.0038300752639770508
1761484847453203700,7.89020361328125,-0.05421638488769531,-0.006595253944396973,0.0030940771102905273
1761484847470046000,7.9070458984375,-0.06024742126464844,-0.009688019752502441,0.00004902482032775879
1761484847486871600,7.92387158203125,-0.05823230743408203,-0.007267475128173828,-0.00033587217330932617
1761484847503676000,7.940676025390625,-0.061982154846191406,-0.005829215049743652,-0.003308415412902832
1761484847520522200,7.957522216796875,-0.058487892150878906,-0.006754875183105469,-0.001956850290298462
1761484847537348000,7.97434814453125,-0.05909156799316406,-0.0029058456420898438,-0.002285867929458618
1761484847554142700,7.991142822265625,-0.049904823303222656,-0.009422540664672852,-0.0017923414707183838
1761484847570985000,8.00798486328125,-0.05257225036621094,-0.01272284984588623,-0.0005519390106201172
1761484847587819300,8.0248193359375,-0.05119037628173828,-0.01904618740081787,0.005421578884124756
1761484847604639200,8.04163916015625,-0.05975532531738281,-0.0129927396774292,0.00969552993774414
1761484847621455600,8.05845556640625,-0.0621795654296875,-0.005172014236450195,0.0022350847721099854
1761484847638283300,8.075283203125,-0.05964851379394531,-0.003799915313720703,-0.005804568529129028
1761484847655115300,8.092115234375,-0.062178611755371094,-0.005490660667419434,-0.008083045482635498
1761484847671938000,8.10893798828125,-0.06370925903320312,-0.006804347038269043,-0.003697037696838379
1761484847688763000,8.125762939453125,-0.05581474304199219,-0.011055588722229004,-0.0008481144905090332
1761484847705568500,8.142568603515626,-0.05753898620605469,-0.011727213859558105,0.0024339258670806885
1761484847722412500,8.15941259765625,-0.05422210693359375,-0.01185619831085205,0.0011240839958190918
1761484847739241200,8.1762412109375,-0.05727863311767578,-0.011992692947387695,-0.004301160573959351
1761484847756081700,8.19308154296875,-0.05726432800292969,-0.008986234664916992,-0.008066147565841675
1761484847772905500,8.209905517578125,-0.060665130615234375,-0.011493444442749023,-0.002914220094680786
1761484847789728000,8.22672802734375,-0.06052398681640625,-0.003817439079284668,0.0019494593143463135
1761484847806543400,8.24354345703125,-0.05123329162597656,-0.003859281539916992,0.003827989101409912
1761484847823386400,8.260386474609374,-0.0597381591796875,-0.00794517993927002,0.00012484192848205566
1761484847840216800,8.277216796875,-0.06686973571777344,-0.009183526039123535,0.002285510301589966
1761484847857018600,8.2940185546875,-0.059192657470703125,-0.005684494972229004,0.0038400888442993164
1761484847873853000,8.31085302734375,-0.06501007080078125,-0.0128248929977417,-0.00008252263069152832
1761484847890686000,8.32768603515625,-0.06118011474609375,-0.010961532592773438,0.003354489803314209
1761484847907507700,8.3445078125,-0.05247020721435547,-0.007745504379272461,0.009472668170928955
1761484847924333600,8.36133349609375,-0.058135032653808594,-0.003249526023864746,0.0057830810546875
1761484847941142000,8.37814208984375,-0.06190967559814453,-0.007800459861755371,0.0005784332752227783
1761484847957980000,8.39497998046875,-0.05435943603515625,-0.009120464324951172,-0.0037848055362701416
1761484847974798000,8.411798095703125,-0.061985015869140625,-0.01163184642791748,-0.00737529993057251
1761484847991634700,8.428634765625,-0.060225486755371094,-0.007834553718566895,-0.0032859444618225098
1761484848008443600,8.445443603515624,-0.060431480407714844,-0.007367134094238281,0.0013167262077331543
1761484848025281500,8.462281494140624,-0.05347442626953125,-0.007316470146179199,0.004262030124664307
1761484848042098200,8.47909814453125,-0.04723548889160156,-0.008371472358703613,-0.0003643035888671875
1761484848058923300,8.49592333984375,-0.056189537048339844,-0.0074852705001831055,-0.006260305643081665
1761484848075748600,8.51274853515625,-0.05460834503173828,-0.010337114334106445,0.000822901725769043
1761484848092573400,8.529573486328125,-0.051451683044433594,-0.007801413536071777,0.00014349818229675293
1761484848109399300,8.5463994140625,-0.054546356201171875,-0.0022488832473754883,-0.00508531928062439
1761484848126225000,8.563224853515624,-0.058411598205566406,0.0002917051315307617,-0.006004959344863892
1761484848143037700,8.58003759765625,-0.05898475646972656,-0.0034598112106323242,-0.006230980157852173
1761484848159875800,8.596875732421875,-0.05208587646484375,-0.008738517761230469,-0.005124509334564209
1761484848176701200,8.613701171875,-0.0499114990234375,-0.010631322860717773,0.005019456148147583
1761484848193526800,8.63052685546875,-0.060639381408691406,-0.011483192443847656,0.0047224462032318115
1761484848210352400,8.647352294921875,-0.05121898651123047,-0.013256669044494629,0.007771432399749756
1761484848227166500,8.66416650390625,-0.05678272247314453,-0.005381941795349121,0.0042185187339782715
1761484848244020500,8.6810205078125,-0.06056022644042969,-0.009952664375305176,-0.00037160515785217285
1761484848260842200,8.69784228515625,-0.06111431121826172,-0.009607076644897461,-0.0023139119148254395
1761484848277665300,8.714665283203125,-0.058277130126953125,-0.008911728858947754,0.001535862684249878
1761484848294492000,8.731491943359375,-0.05670928955078125,-0.0076836347579956055,-0.006623297929763794
1761484848311322400,8.748322265625,-0.05939483642578125,-0.008646726608276367,-0.007877111434936523
1761484848328140500,8.765140625,-0.06272697448730469,-0.004712581634521484,-0.010335445404052734
1761484848344973600,8.7819736328125,-0.05851459503173828,-0.0036666393280029297,-0.0072977542877197266
1761484848361794600,8.798794677734374,-0.05673694610595703,-0.009870648384094238,-0.004416346549987793
1761484848378616300,8.8156162109375,-0.05062294006347656,-0.018937230110168457,-0.001623690128326416
1761484848395450400,8.832450439453124,-0.05553436279296875,-0.016312599182128906,0.00455021858215332
1761484848412255500,8.84925537109375,-0.05740642547607422,-0.008987069129943848,0.004800260066986084
1761484848429096700,8.8660966796875,-0.05882835388183594,-0.002013564109802246,0.0007568895816802979
1761484848445907200,8.8829072265625,-0.05790138244628906,-0.0057114362716674805,-0.005062788724899292
1761484848462744300,8.899744384765626,-0.06360626220703125,-0.00808572769165039,-0.005940645933151245
1761484848479569700,8.916569580078125,-0.06382369995117188,-0.014750242233276367,-0.0020266175270080566
1761484848496408300,8.933408203125,-0.057526588439941406,-0.012757420539855957,-0.0037735402584075928
1761484848513226500,8.9502265625,-0.05592155456542969,-0.011352062225341797,-0.004641026258468628
1761484848530029800,8.96702978515625,-0.057463645935058594,-0.008189201354980469,-0.0031643807888031006
1761484848546870300,8.983870361328124,-0.055901527404785156,-0.010711193084716797,-0.0006129145622253418
1761484848563684400,9.000684326171875,-0.052260398864746094,-0.0063419342041015625,-0.005385696887969971
1761484848580514600,9.0175146484375,-0.053977012634277344,-0.007532715797424316,-0.0038055777549743652
1761484848597337300,9.03433740234375,-0.06188392639160156,-0.010541319847106934,0.0011677443981170654
1761484848614163200,9.0511630859375,-0.06242942810058594,-0.009231925010681152,0.0019364356994628906
1761484848630985700,9.06798583984375,-0.058437347412109375,-0.008013606071472168,-0.0007911324501037598
1761484848647811000,9.08481103515625,-0.06303024291992188,-0.0038213729858398438,-0.003408581018447876
1761484848664642000,9.10164208984375,-0.05560779571533203,-0.007197976112365723,-0.00784119963645935
1761484848681452500,9.11845263671875,-0.053330421447753906,-0.003778219223022461,-0.0004176795482635498
1761484848698290400,9.13529052734375,-0.05933094024658203,-0.010152220726013184,-0.0011499226093292236
1761484848715111400,9.152111328125,-0.06268310546875,-0.00812995433807373,0.005703777074813843
1761484848731935500,9.168935546875,-0.06139945983886719,-0.0038028955459594727,-0.00020822882652282715
1761484848748782600,9.185782470703124,-0.05828666687011719,-0.010089755058288574,-0.005137741565704346
1761484848765607000,9.20260693359375,-0.054892539978027344,-0.005211353302001953,-0.004028946161270142
1761484848782427400,9.219427490234375,-0.06136512756347656,-0.008493304252624512,-0.005770832300186157
1761484848799261000,9.236260986328125,-0.05649566650390625,-0.00786900520324707,-0.00014352798461914062
1761484848816082200,9.253082275390625,-0.05462932586669922,-0.007689952850341797,-0.00634157657623291
1761484848832907800,9.26990771484375,-0.05028057098388672,-0.009973287582397461,-0.003225356340408325
1761484848849732900,9.28673291015625,-0.05548095703125,-0.007961153984069824,-0.0004558265209197998
1761484848866541800,9.303541748046875,-0.058541297912597656,-0.007657289505004883,0.003506481647491455
1761484848883394600,9.32039453125,-0.0607757568359375,-0.013571381568908691,-0.003597825765609741
1761484848900209700,9.337209716796876,-0.058188438415527344,-0.008610725402832031,0.005161404609680176
1761484848917034500,9.354034423828125,-0.05958747863769531,-0.007828116416931152,-0.0034207701683044434
1761484848933843700,9.37084375,-0.059783935546875,-0.0037736892700195312,-0.0029489994049072266
1761484848950681900,9.387681884765625,-0.05283164978027344,-0.006052136421203613,0.0011716187000274658
1761484848967515000,9.404514892578124,-0.05226898193359375,-0.0075109004974365234,0.00469246506690979
1761484848984316200,9.421316162109376,-0.05867195129394531,-0.00895988941192627,0.007524400949478149
1761484849001161000,9.438160888671876,-0.05784320831298828,-0.008118152618408203,-0.001967877149581909
1761484849017979600,9.454979736328125,-0.055937767028808594,-0.010881543159484863,-0.005633234977722168
1761484849034799000,9.471799072265625,-0.056296348571777344,-0.00838780403137207,-0.006205141544342041
1761484849051625000,9.488625,-0.05569934844970703,-0.003974795341491699,-0.006244271993637085
1761484849068450300,9.5054501953125,-0.05738639831542969,-0.003378748893737793,-0.004490673542022705
1761484849085274400,9.5222744140625,-0.057646751403808594,-0.005526304244995117,-0.0007768869400024414
1761484849102102500,9.5391025390625,-0.059467315673828125,-0.01289677619934082,-0.00019434094429016113
1761484849118943500,9.555943603515624,-0.06606388092041016,-0.01184689998626709,0.002788245677947998
1761484849135745500,9.57274560546875,-0.0571441650390625,-0.008866667747497559,0.002226024866104126
1761484849152581000,9.5895810546875,-0.057579994201660156,-0.009601831436157227,0.00047266483306884766
1761484849169402600,9.606402587890624,-0.052455902099609375,-0.00847327709197998,-0.0021574199199676514
1761484849186229000,9.62322900390625,-0.056868553161621094,-0.011293530464172363,-0.007363379001617432
1761484849203053800,9.6400537109375,-0.05638885498046875,-0.011771798133850098,0.0005675554275512695
1761484849219879700,9.656879638671874,-0.06151008605957031,-0.0030859708786010742,0.008618384599685669
1761484849236705500,9.67370556640625,-0.057082176208496094,-0.006540775299072266,0.008121967315673828
1761484849253527300,9.69052734375,-0.05934333801269531,-0.008110404014587402,0.0009818971157073975
1761484849270369800,9.707369873046876,-0.050934791564941406,-0.0023834705352783203,-0.0010463595390319824
1761484849287195400,9.7241953125,-0.06135082244873047,-0.004494309425354004,-0.006582707166671753
1761484849304003300,9.74100341796875,-0.05237579345703125,-0.008794426918029785,-0.003430694341659546
1761484849320846300,9.757846435546876,-0.0575103759765625,-0.011221766471862793,-0.003110647201538086
1761484849337667300,9.774667236328124,-0.05992317199707031,-0.008603334426879883,-0.00365254282951355
1761484849354480400,9.79148046875,-0.060929298400878906,-0.009379744529724121,0.0008878707885742188
1761484849371305000,9.808304931640626,-0.05703544616699219,-0.012280583381652832,-0.005460143089294434
1761484849388128000,9.8251279296875,-0.057579994201660156,-0.01278996467590332,-0.002219468355178833
1761484849404962800,9.841962890625,-0.06171703338623047,-0.008824586868286133,-0.0018757879734039307
1761484849421784800,9.858784912109375,-0.059424400329589844,-0.009330153465270996,0.0011481642723083496
1761484849438606800,9.87560693359375,-0.06201362609863281,-0.006400704383850098,-0.004168152809143066
1761484849455438800,9.89243896484375,-0.05835247039794922,-0.0065479278564453125,-0.0038068294525146484
1761484849472261000,9.90926123046875,-0.058933258056640625,-0.006555914878845215,-0.003232330083847046
1761484849489086700,9.926086669921874,-0.05496978759765625,-0.011667251586914062,-0.002009481191635132
1761484849505912300,9.942912353515625,-0.05728912353515625,-0.012459039688110352,0.006853938102722168
1761484849522734800,9.95973486328125,-0.060568809509277344,-0.011400341987609863,0.0005486011505126953
1761484849539565300,9.9765654296875,-0.056990623474121094,-0.005476951599121094,0.0006595253944396973
1761484849556388600,9.993388671875,-0.05937671661376953,-0.008640050888061523,-0.0032909512519836426
1761484849573214000,10.0102138671875,-0.060873985290527344,-0.007997393608093262,-0.009103566408157349
1761484849590039300,10.027039306640624,-0.047130584716796875,-0.007905244827270508,-0.004048675298690796
1761484849606886400,10.043886474609375,-0.06194305419921875,-0.010825634002685547,-0.00104445219039917
1761484849623682600,10.0606826171875,-0.058342933654785156,-0.006527304649353027,0.0012783706188201904
1761484849640515300,10.077515380859374,-0.06592273712158203,-0.0006710290908813477,-0.005342721939086914
1761484849657341200,10.094341064453126,-0.06413841247558594,-0.00794529914855957,-0.005279809236526489
1761484849674166500,10.11116650390625,-0.057534217834472656,-0.0090254545211792,-0.0023489296436309814
1761484849690992600,10.12799267578125,-0.0605926513671875,-0.008089423179626465,0.0021779537200927734
1761484849707817200,10.144817138671876,-0.05925750732421875,-0.005113005638122559,-0.0029999911785125732
1761484849724660000,10.161659912109375,-0.05499744415283203,-0.006418704986572266,-0.000873953104019165
1761484849741478400,10.178478515625,-0.057285308837890625,-0.012872934341430664,0.00007444620132446289
1761484849758295300,10.19529541015625,-0.049521446228027344,-0.010843992233276367,-0.0044089555740356445
1761484849775133000,10.2121328125,-0.049480438232421875,-0.011226058006286621,0.0019073784351348877
1761484849791958300,10.228958251953125,-0.052410125732421875,-0.004226565361022949,-0.005169272422790527
1761484849808784000,10.245783935546875,-0.05512046813964844,-0.007269501686096191,0.004757136106491089
1761484849825609700,10.262609619140624,-0.059112548828125,-0.00591123104095459,0.0023224353790283203
1761484849842417700,10.279417724609376,-0.26308536529541016,-0.07822012901306152,0.06268399953842163
1761484849859243800,10.296243896484375,-0.13976192474365234,-0.027147531509399414,-0.0041456520557403564
1761484849876086000,10.3130859375,0.14412212371826172,0.04318702220916748,-0.04665917158126831
1761484849892911000,10.3299111328125,0.07693862915039062,0.019004106521606445,-0.026951104402542114
1761484849909736700,10.34673681640625,-0.018419265747070312,0.04969131946563721,-0.05729672312736511
1761484849926562000,10.36356201171875,-0.03565788269042969,-0.037358760833740234,-0.0178644061088562
