time,seconds_elapsed,z,y,x
1761486947951429600,0.1844296875,-0.055748939514160156,-0.007472231984138489,0.00001636892557144165
1761486947968268000,0.20126806640625,-0.03938484191894531,-0.004223689436912537,-0.006476283073425293
1761486947985092900,0.2180927734375,-0.05151176452636719,-0.0007798224687576294,-0.01788141578435898
1761486948001902800,0.23490283203125,-0.06762027740478516,-0.008733659982681274,-0.008108753710985184
1761486948018723600,0.2517236328125,-0.07736587524414062,-0.007000237703323364,0.002505667507648468
1761486948035571500,0.268571533203125,-0.0721597671508789,0.0016414672136306763,-0.011020086705684662
1761486948052396800,0.285396728515625,-0.06828784942626953,-0.005125284194946289,-0.016443628817796707
1761486948069207800,0.302207763671875,-0.05277729034423828,-0.00454886257648468,-0.004909541457891464
1761486948086045000,0.319044921875,-0.043285369873046875,-0.00689813494682312,-0.0012285038828849792
1761486948102875100,0.335875244140625,-0.052123069763183594,-0.005081504583358765,-0.015703126788139343
1761486948119692300,0.3526923828125,-0.061031341552734375,-0.00811794400215149,-0.008735805749893188
1761486948136522500,0.3695224609375,-0.07344436645507812,-0.0022102147340774536,0.0031489916145801544
1761486948153347000,0.38634716796875,-0.07239532470703125,-0.003167390823364258,-0.005518872290849686
1761486948170173200,0.403173095703125,-0.06281566619873047,-0.004471495747566223,-0.009237688034772873
1761486948186996200,0.419996337890625,-0.05322551727294922,-0.006383731961250305,-0.008136287331581116
1761486948203825700,0.43682568359375,-0.05211925506591797,-0.008504241704940796,0.0025479234755039215
1761486948220631000,0.453631103515625,-0.059302330017089844,-0.0018686503171920776,-0.00829121470451355
1761486948237457700,0.470457763671875,-0.06426620483398438,-0.00831669569015503,-0.014695800840854645
1761486948254288600,0.48728857421875,-0.07214546203613281,-0.002243325114250183,0.0024083778262138367
1761486948271111400,0.504111328125,-0.06570148468017578,-0.007266342639923096,-0.0037465468049049377
1761486948287936000,0.52093603515625,-0.05453014373779297,-0.005457878112792969,-0.016569014638662338
1761486948304762600,0.5377626953125,-0.05018043518066406,-0.0067083388566970825,-0.010197296738624573
1761486948321583000,0.5545830078125,-0.056365013122558594,-0.0040026456117630005,0.003831237554550171
1761486948338419500,0.57141943359375,-0.06266212463378906,-0.005257517099380493,0.0008326955139636993
1761486948355259400,0.58825927734375,-0.06732940673828125,-0.009610265493392944,-0.007722798734903336
1761486948372057300,0.605057373046875,-0.06917381286621094,-0.0014178752899169922,-0.00606483593583107
1761486948388889900,0.621889892578125,-0.056476593017578125,-0.001959174871444702,0.0023350901901721954
1761486948405715000,0.63871484375,-0.0513458251953125,-0.0028999000787734985,-0.009248711168766022
1761486948422539300,0.655539306640625,-0.05512046813964844,-0.004516139626502991,-0.0102153941988945
1761486948439365600,0.67236572265625,-0.06003761291503906,-0.004746168851852417,-0.0022753551602363586
1761486948456191200,0.689191162109375,-0.062079429626464844,-0.003630310297012329,0.001132860779762268
1761486948473020000,0.70602001953125,-0.0643148422241211,-0.009446263313293457,-0.0116802416741848
1761486948489854700,0.722854736328125,-0.0646524429321289,-0.007415547966957092,-0.010800566524267197
1761486948506680800,0.739680908203125,-0.05400276184082031,-0.00589868426322937,-0.0026905201375484467
1761486948523506200,0.756506103515625,-0.05759143829345703,-0.006799936294555664,-0.004701368510723114
1761486948540320300,0.7733203125,-0.06077384948730469,-0.007621005177497864,-0.011669613420963287
1761486948557147100,0.790147216796875,-0.056845664978027344,-0.0031138062477111816,-0.009405884891748428
1761486948573986300,0.806986328125,-0.058666229248046875,-0.0065644532442092896,0.0008220970630645752
1761486948590807000,0.82380712890625,-0.06044483184814453,-0.004233792424201965,-0.009289100766181946
1761486948607633400,0.84063330078125,-0.06406116485595703,-0.0026232153177261353,-0.011226657778024673
1761486948624448800,0.85744873046875,-0.05569648742675781,-0.0082969069480896,0.0006830878555774689
1761486948641296100,0.874296142578125,-0.06048393249511719,-0.0061232298612594604,-0.0062071792781353
1761486948658107000,0.89110693359375,-0.06007194519042969,-0.006882429122924805,-0.011339806020259857
1761486948674931500,0.907931396484375,-0.061432838439941406,-0.0040162354707717896,-0.002169545739889145
1761486948691766300,0.924766357421875,-0.0653543472290039,-0.004275858402252197,-0.0038803815841674805
1761486948708568300,0.941568359375,-0.06287956237792969,-0.006617754697799683,-0.004030775278806686
1761486948725396700,0.958396728515625,-0.051964759826660156,-0.002797350287437439,-0.012152861803770065
1761486948742222600,0.97522265625,-0.053218841552734375,-0.00634920597076416,-0.006314791738986969
1761486948759047200,0.992047119140625,-0.060393333435058594,-0.008715569972991943,-0.0030859559774398804
1761486948775873300,1.008873291015625,-0.05906200408935547,-0.00612737238407135,-0.007724601775407791
1761486948792685300,1.025685302734375,-0.06420040130615234,-0.003935381770133972,-0.00315726175904274
1761486948809521200,1.042521240234375,-0.058788299560546875,-0.00636155903339386,-0.004670049995183945
1761486948826352000,1.05935205078125,-0.06481170654296875,-0.0026765763759613037,-0.0015177391469478607
1761486948843160300,1.076160400390625,-0.06280040740966797,-0.006115064024925232,-0.006253533065319061
1761486948860014300,1.093014404296875,-0.06476879119873047,-0.00559176504611969,-0.005046650767326355
1761486948876822300,1.109822265625,-0.06214141845703125,-0.005533128976821899,0.002081669867038727
1761486948893650400,1.126650390625,-0.06580638885498047,-0.00663892924785614,0.00135720893740654
1761486948910476500,1.1434765625,-0.06002521514892578,-0.0067909955978393555,-0.005650956183671951
1761486948927291600,1.160291748046875,-0.06065177917480469,-0.005062401294708252,-0.007773600518703461
1761486948944127700,1.177127685546875,-0.06330299377441406,-0.006715372204780579,0.0011854320764541626
1761486948960952000,1.1939521484375,-0.06256580352783203,-0.009849831461906433,-0.0025275573134422302
1761486948977778700,1.21077880859375,-0.05518627166748047,-0.00852145254611969,-0.007135692983865738
1761486948994614800,1.22761474609375,-0.054839134216308594,-0.007268577814102173,-0.005031988024711609
1761486949011445000,1.244445068359375,-0.06355953216552734,-0.004125460982322693,-0.0016890540719032288
1761486949028253400,1.26125341796875,-0.0631113052368164,-0.005472049117088318,-0.009932253509759903
1761486949045093600,1.27809375,-0.06089305877685547,-0.006739825010299683,-0.006540529429912567
1761486949061918200,1.294918212890625,-0.0535736083984375,-0.004599481821060181,-0.0019221864640712738
1761486949078728400,1.311728515625,-0.060446739196777344,-0.0064918845891952515,-0.004716571420431137
1761486949095568600,1.328568603515625,-0.0603485107421875,-0.006769627332687378,-0.005166973918676376
1761486949112396000,1.34539599609375,-0.061473846435546875,-0.005608811974525452,-0.00341198593378067
1761486949129202000,1.362201904296875,-0.06749153137207031,-0.0036400258541107178,-0.003168858587741852
1761486949146046500,1.37904638671875,-0.0573577880859375,-0.006149604916572571,-0.003197159618139267
1761486949162871300,1.395871337890625,-0.057608604431152344,0.00030253827571868896,-0.0032578371465206146
1761486949179679500,1.412679443359375,-0.05892753601074219,-0.0067550987005233765,-0.008369740098714828
1761486949196504600,1.429504638671875,-0.06304740905761719,-0.00662742555141449,-0.005110848695039749
1761486949213333800,1.446333740234375,-0.0607452392578125,-0.006650909781455994,-0.006368309259414673
1761486949230158000,1.463157958984375,-0.06368541717529297,-0.002622455358505249,-0.012273237109184265
1761486949246971100,1.47997119140625,-0.05791473388671875,-0.005065232515335083,-0.004797283560037613
1761486949263806200,1.49680615234375,-0.055901527404785156,-0.00960780680179596,-0.002686910331249237
1761486949280638500,1.513638427734375,-0.05852222442626953,-0.010254353284835815,-0.010449595749378204
1761486949297476900,1.530476806640625,-0.06118965148925781,-0.0076134949922561646,-0.007074907422065735
1761486949314299600,1.547299560546875,-0.057529449462890625,-0.006130635738372803,-0.005054254084825516
1761486949331124500,1.56412451171875,-0.06282424926757812,-0.0041402727365493774,-0.0049606189131736755
1761486949347950800,1.580950927734375,-0.06413078308105469,-0.0016945898532867432,-0.00729929655790329
1761486949364758000,1.597758056640625,-0.05683135986328125,-0.011444434523582458,-0.006572205573320389
1761486949381574400,1.614574462890625,-0.06157493591308594,-0.005282536149024963,-0.0035446733236312866
1761486949398412300,1.631412353515625,-0.06164360046386719,-0.008387088775634766,-0.00587211549282074
1761486949415238700,1.64823876953125,-0.06343936920166016,-0.00888986885547638,-0.0015005767345428467
1761486949432050000,1.6650498046875,-0.06078624725341797,-0.007854178547859192,-0.0012673735618591309
1761486949448889000,1.68188916015625,-0.06010246276855469,-0.0035635679960250854,-0.006914194673299789
1761486949465731000,1.69873095703125,-0.06206512451171875,-0.00429651141166687,-0.006477802991867065
1761486949482551300,1.71555126953125,-0.059436798095703125,-0.0062411874532699585,-0.006411522626876831
1761486949499381500,1.732381591796875,-0.060176849365234375,-0.006504088640213013,-0.005085688084363937
1761486949516204500,1.74920458984375,-0.05557823181152344,-0.006527632474899292,-0.006408222019672394
1761486949533029400,1.766029296875,-0.05859851837158203,-0.004729211330413818,-0.005646940320730209
1761486949549852400,1.782852294921875,-0.05343055725097656,-0.004442155361175537,-0.0072448886930942535
1761486949566679800,1.7996796875,-0.056344032287597656,-0.00914156436920166,-0.002226453274488449
1761486949583489300,1.8164892578125,-0.06669425964355469,-0.009178295731544495,-0.0006748177111148834
1761486949600327700,1.83332763671875,-0.06419849395751953,-0.010951697826385498,-0.003248695284128189
1761486949617160000,1.850159912109375,-0.05541229248046875,-0.005457386374473572,-0.005410127341747284
1761486949633981200,1.866981201171875,-0.05451011657714844,-0.003458842635154724,-0.003971897065639496
1761486949650809900,1.883809814453125,-0.05979347229003906,-0.004379093647003174,-0.006689086556434631
1761486949667629800,1.9006298828125,-0.05616474151611328,-0.0068116337060928345,-0.004231452941894531
1761486949684438000,1.91743798828125,-0.06260108947753906,-0.007854804396629333,-0.005432337522506714
1761486949701269500,1.93426953125,-0.059513092041015625,-0.012745678424835205,-0.006057377904653549
1761486949718098400,1.951098388671875,-0.06574535369873047,-0.003006964921951294,-0.009799603372812271
1761486949734909400,1.967909423828125,-0.061489105224609375,-0.0033906400203704834,-0.006324399262666702
1761486949751744000,1.984743896484375,-0.05948448181152344,-0.006290420889854431,-0.0039239004254341125
1761486949768573200,2.0015732421875,-0.054327964782714844,-0.007856711745262146,-0.0027681440114974976
1761486949785400600,2.018400634765625,-0.06118297576904297,-0.006240397691726685,-0.006299622356891632
1761486949802235600,2.035235595703125,-0.052674293518066406,-0.005772948265075684,-0.00896768644452095
1761486949819072500,2.052072509765625,-0.060283660888671875,-0.010685756802558899,-0.006011310964822769
1761486949835882800,2.0688828125,-0.06194305419921875,-0.0015145093202590942,-0.010763801634311676
1761486949852699000,2.085698974609375,-0.054068565368652344,-0.003120705485343933,-0.007357954978942871
1761486949869523500,2.1025234375,-0.05643272399902344,-0.006241634488105774,-0.0016446150839328766
1761486949886349600,2.119349609375,-0.056786537170410156,-0.005747810006141663,0.0009612143039703369
1761486949903174000,2.136173828125,-0.055703163146972656,-0.009072348475456238,-0.002781953662633896
1761486949920000000,2.153,-0.06544780731201172,-0.005578264594078064,0.00015070661902427673
1761486949936824800,2.169824951171875,-0.06107521057128906,-0.002032846212387085,0.0014059431850910187
1761486949953668400,2.18666845703125,-0.061550140380859375,-0.008019477128982544,-0.0003089308738708496
1761486949970489300,2.2034892578125,-0.054780006408691406,-0.003041982650756836,-0.0028719380497932434
1761486949987311400,2.220311279296875,-0.057044029235839844,-0.00463511049747467,-0.007303953170776367
1761486950004143900,2.237143798828125,-0.061588287353515625,-0.0020103007555007935,-0.0015818513929843903
1761486950020949800,2.25394970703125,-0.06377792358398438,-0.006378456950187683,-0.006561566144227982
1761486950037786400,2.270786376953125,-0.06195640563964844,-0.0011993646621704102,-0.001359298825263977
1761486950054621200,2.28762109375,-0.058754920959472656,-0.007462754845619202,-0.0028550736606121063
1761486950071440100,2.304440185546875,-0.06198596954345703,-0.0043551623821258545,-0.00015234574675559998
1761486950088266800,2.321266845703125,-0.05762004852294922,-0.006820768117904663,-0.004345569759607315
1761486950105092000,2.338092041015625,-0.058745384216308594,-0.0066060870885849,-0.0002273060381412506
1761486950121918700,2.354918701171875,-0.055342674255371094,-0.004304751753807068,-0.0014921650290489197
1761486950138743000,2.371742919921875,-0.058402061462402344,-0.0021347254514694214,-0.0005255229771137238
1761486950155569400,2.3885693359375,-0.05707836151123047,-0.009407490491867065,0.0025970488786697388
1761486950172394000,2.40539404296875,-0.0561065673828125,-0.008688345551490784,-0.003913715481758118
1761486950189203000,2.422202880859375,-0.05530834197998047,-0.009834274649620056,-0.0060268789529800415
1761486950206031000,2.439031005859375,-0.06146049499511719,-0.010051697492599487,-0.004500165581703186
1761486950222844400,2.455844482421875,-0.060461997985839844,-0.009598582983016968,-0.005232896655797958
1761486950239678500,2.472678466796875,-0.05482959747314453,-0.001545742154121399,-0.0044473521411418915
1761486950256510700,2.4895107421875,-0.05946063995361328,-0.009423553943634033,-0.0025650523602962494
1761486950273332700,2.506332763671875,-0.06422138214111328,-0.00592513382434845,-0.0018949657678604126
1761486950290175700,2.52317578125,-0.059744834899902344,-0.007142782211303711,-0.004759758710861206
1761486950306980400,2.53998046875,-0.05435752868652344,-0.010216519236564636,0.00034287571907043457
1761486950323820300,2.5568203125,-0.06345176696777344,-0.008862271904945374,0.0014996789395809174
1761486950340634000,2.573634033203125,-0.06661510467529297,-0.011546120047569275,-0.004113979637622833
1761486950357460500,2.59046044921875,-0.06238365173339844,-0.010181695222854614,0.0008820779621601105
1761486950374281500,2.607281494140625,-0.06074714660644531,-0.004840224981307983,0.0004550665616989136
1761486950391114200,2.6241142578125,-0.057433128356933594,-0.011016979813575745,-0.001382000744342804
1761486950407935700,2.640935791015625,-0.057724952697753906,-0.008936464786529541,-0.002890419214963913
1761486950424749600,2.65774951171875,-0.05584239959716797,-0.008595839142799377,-0.0012373700737953186
1761486950441631000,2.674630859375,-0.06432819366455078,-0.008561313152313232,0.000985812395811081
1761486950458420200,2.691420166015625,-0.05428028106689453,-0.007114052772521973,-0.0076533593237400055
1761486950475246800,2.708246826171875,-0.059380531311035156,-0.008399739861488342,-0.002789333462715149
1761486950492053500,2.725053466796875,-0.061290740966796875,-0.005632087588310242,-0.003225661814212799
1761486950508901600,2.741901611328125,-0.06514930725097656,-0.005283385515213013,-0.0060953423380851746
1761486950525714400,2.75871435546875,-0.06002616882324219,-0.007120922207832336,-0.00474928691983223
1761486950542521000,2.77552099609375,-0.060245513916015625,-0.006795912981033325,-0.0034506022930145264
1761486950559377700,2.792377685546875,-0.05521965026855469,-0.004577815532684326,-0.0006307139992713928
1761486950576208400,2.80920849609375,-0.058094024658203125,-0.004289895296096802,-0.006047852337360382
1761486950593029000,2.826029052734375,-0.057028770446777344,-0.008157327771186829,-0.004174940288066864
1761486950609854500,2.8428544921875,-0.05609607696533203,-0.007638111710548401,-0.007487110793590546
1761486950626680300,2.859680419921875,-0.06143760681152344,-0.0075193047523498535,-0.00581856444478035
1761486950643488300,2.87648828125,-0.06466293334960938,-0.01038922369480133,-0.004712078720331192
1761486950660327000,2.893326904296875,-0.05881500244140625,-0.006730526685714722,-0.0063282400369644165
1761486950677132000,2.910132080078125,-0.06412601470947266,-0.008418247103691101,-0.0026550255715847015
1761486950693968100,2.926968017578125,-0.05729484558105469,-0.005769014358520508,-0.003204628825187683
1761486950710792400,2.94379248046875,-0.058068275451660156,-0.007114678621292114,-0.012144576758146286
1761486950727618600,2.96061865234375,-0.06222724914550781,-0.006686955690383911,-0.004799969494342804
1761486950744443600,2.977443603515625,-0.06364727020263672,-0.00663323700428009,-0.004700738936662674
1761486950761269800,2.994269775390625,-0.06193256378173828,-0.004413530230522156,-0.0036046020686626434
1761486950778111200,3.011111328125,-0.06573677062988281,-0.005118608474731445,-0.002286631613969803
1761486950794914800,3.027914794921875,-0.058185577392578125,-0.005403459072113037,-0.0003456100821495056
1761486950811758800,3.0447587890625,-0.05704212188720703,-0.009054899215698242,-0.005058344453573227
1761486950828568000,3.061568115234375,-0.0627145767211914,-0.0032179057598114014,0.00043848901987075806
1761486950845395700,3.078395751953125,-0.05886268615722656,-0.00416901707649231,-0.002882581204175949
1761486950862223400,3.095223388671875,-0.058930397033691406,-0.005353271961212158,0.001883089542388916
1761486950879045000,3.112045166015625,-0.06186389923095703,-0.005559131503105164,-0.002592947334051132
1761486950895872800,3.128872802734375,-0.06088733673095703,-0.008523046970367432,-0.007197387516498566
1761486950912692500,3.1456923828125,-0.057590484619140625,-0.009029671549797058,-0.005488220602273941
1761486950929545200,3.162545166015625,-0.052886962890625,-0.009056389331817627,-0.0029119402170181274
1761486950946347500,3.179347412109375,-0.05410575866699219,-0.007889345288276672,-0.0036572404205799103
1761486950963174700,3.196174560546875,-0.058353424072265625,-0.004708200693130493,-0.0033951550722122192
1761486950980008000,3.213008056640625,-0.06305694580078125,-0.007125586271286011,-0.007261950522661209
1761486950996843800,3.22984375,-0.06184101104736328,-0.0016161203384399414,0.001366734504699707
1761486951013663200,3.246663330078125,-0.060520172119140625,-0.007733762264251709,-0.003159545361995697
1761486951030489600,3.263489501953125,-0.06032085418701172,-0.008624628186225891,0.0020073018968105316
1761486951047290600,3.28029052734375,-0.06029224395751953,-0.004668489098548889,-0.00018042698502540588
1761486951064140300,3.297140380859375,-0.058867454528808594,-0.0022048503160476685,-0.007475700229406357
1761486951080948500,3.313948486328125,-0.06007099151611328,-0.007753655314445496,-0.0038591958582401276
1761486951097771500,3.330771484375,-0.06139373779296875,-0.0043860673904418945,-0.005037892609834671
1761486951114598400,3.347598388671875,-0.060456275939941406,-0.002127617597579956,-0.0023922137916088104
1761486951131425000,3.364425048828125,-0.059177398681640625,-0.007592007517814636,0.0019954778254032135
1761486951148253700,3.381253662109375,-0.060123443603515625,-0.009520456194877625,-0.005459100008010864
1761486951165079300,3.398079345703125,-0.058478355407714844,-0.007554233074188232,-0.005711223930120468
1761486951181891800,3.414891845703125,-0.05887889862060547,-0.008402347564697266,-0.0008025318384170532
1761486951198726100,3.43172607421875,-0.05894279479980469,-0.006603255867958069,-0.0030256547033786774
1761486951215557600,3.4485576171875,-0.062018394470214844,-0.003991872072219849,-0.0031542405486106873
1761486951232380700,3.465380615234375,-0.06055450439453125,-0.007731541991233826,-0.001984167844057083
1761486951249205000,3.482205078125,-0.05513286590576172,-0.008297622203826904,-0.0023139864206314087
1761486951266048500,3.499048583984375,-0.05545234680175781,-0.008340597152709961,-0.0064611732959747314
1761486951282869500,3.515869384765625,-0.05663776397705078,-0.007226571440696716,-0.0018335990607738495
1761486951299692500,3.532692626953125,-0.05974102020263672,-0.009937852621078491,-0.003981824964284897
1761486951316501200,3.549501220703125,-0.05614757537841797,-0.005807474255561829,0.0005731210112571716
1761486951333333000,3.5663330078125,-0.061450958251953125,-0.004084572196006775,-0.0034383386373519897
1761486951350149600,3.583149658203125,-0.06339073181152344,-0.002044990658760071,-0.0022284984588623047
1761486951366995500,3.599995361328125,-0.05720710754394531,-0.002927839756011963,-0.011650845408439636
1761486951383808000,3.61680810546875,-0.053977012634277344,-0.01057368516921997,-0.005129329860210419
1761486951400635400,3.633635498046875,-0.058200836181640625,-0.012820050120353699,-0.008880563080310822
1761486951417474800,3.650474853515625,-0.06290054321289062,-0.00327281653881073,-0.003218177706003189
1761486951434298600,3.667298583984375,-0.060828208923339844,-0.0077852606773376465,-0.004707261919975281
1761486951451119900,3.684119873046875,-0.06344223022460938,-0.007168218493461609,-0.006599452346563339
1761486951467954000,3.700953857421875,-0.0625600814819336,-0.008133575320243835,-0.00686303898692131
1761486951484774400,3.7177744140625,-0.06177806854248047,-0.0053243488073349,0.00003744661808013916
1761486951501600800,3.734600830078125,-0.06052112579345703,-0.006694599986076355,0.0018664933741092682
1761486951518424600,3.751424560546875,-0.05891227722167969,-0.0021484792232513428,-0.008520383387804031
1761486951535246800,3.768246826171875,-0.06122398376464844,-0.007366806268692017,-0.006332319229841232
1761486951552075500,3.785075439453125,-0.06122875213623047,-0.009791120886802673,-0.005539610981941223
1761486951568905700,3.80190576171875,-0.062226295471191406,-0.007326662540435791,-0.002862047404050827
1761486951585726200,3.818726318359375,-0.05945396423339844,-0.006912320852279663,-0.005717702209949493
1761486951602548700,3.835548828125,-0.05838489532470703,-0.0028022676706314087,-0.003123171627521515
1761486951619381000,3.852381103515625,-0.061799049377441406,-0.004358381032943726,-0.0025343410670757294
1761486951636188400,3.8691884765625,-0.06166553497314453,-0.009317442774772644,-0.003838319331407547
1761486951653013500,3.886013427734375,-0.06379890441894531,-0.009366407990455627,-0.00854615867137909
1761486951669843500,3.902843505859375,-0.06162261962890625,-0.011021986603736877,-0.008634641766548157
1761486951686665200,3.919665283203125,-0.06748676300048828,-0.005620986223220825,-0.004425846040248871
1761486951703488000,3.936488037109375,-0.05960559844970703,-0.0046989768743515015,-0.0012723207473754883
1761486951720318700,3.953318603515625,-0.05613994598388672,-0.00047226250171661377,-0.003980744630098343
1761486951737141800,3.970141845703125,-0.05825519561767578,-0.004625841975212097,-0.009097788482904434
1761486951753970000,3.986969970703125,-0.05707359313964844,-0.006228044629096985,-0.008045028895139694
1761486951770806800,4.003806884765625,-0.06160163879394531,-0.004846513271331787,-0.0034391991794109344
1761486951787627000,4.020626953125,-0.06342506408691406,-0.007488325238227844,-0.005512364208698273
1761486951804444200,4.037444091796875,-0.06191539764404297,-0.0008691549301147461,-0.003977831453084946
1761486951821268200,4.054268310546875,-0.05469799041748047,-0.0069612860679626465,-0.003742210566997528
1761486951838094300,4.07109423828125,-0.06351757049560547,-0.007867708802223206,-0.005580291152000427
1761486951854913800,4.087913818359375,-0.0590057373046875,-0.004984050989151001,-0.003994971513748169
1761486951871750000,4.10475,-0.0648202896118164,-0.007436648011207581,-0.0008818730711936951
1761486951888569600,4.121569580078125,-0.059853553771972656,-0.007814869284629822,-0.0021792687475681305
1761486951905413000,4.1384130859375,-0.05654144287109375,0.0002399832010269165,-0.005285076797008514
1761486951922230000,4.15522998046875,-0.053116798400878906,-0.005578383803367615,-0.0061568208038806915
1761486951939060000,4.17206005859375,-0.058569908142089844,-0.007537931203842163,-0.007037520408630371
1761486951955883000,4.188883056640625,-0.061181068420410156,-0.006057471036911011,-0.004285015165805817
1761486951972717300,4.20571728515625,-0.06236553192138672,-0.005448475480079651,-0.0038476623594760895
1761486951989520400,4.222520263671875,-0.0625467300415039,-0.004158079624176025,-0.005554385483264923
1761486952006363400,4.23936328125,-0.06064414978027344,-0.0074323564767837524,-0.0033344849944114685
1761486952023185000,4.256184814453125,-0.05643653869628906,-0.006783977150917053,-0.004232499748468399
1761486952040012500,4.273012451171875,-0.06085681915283203,-0.003767147660255432,-0.0019274502992630005
1761486952056821800,4.28982177734375,-0.05490684509277344,-0.0032660365104675293,-0.00581267848610878
1761486952073663500,4.30666357421875,-0.054289817810058594,-0.006072744727134705,-0.002267751842737198
1761486952090488000,4.323488037109375,-0.059395790100097656,-0.006506770849227905,-0.006866529583930969
1761486952107314000,4.34031396484375,-0.05610466003417969,-0.006623387336730957,-0.0030826330184936523
1761486952124139000,4.357138916015625,-0.05268669128417969,-0.004648327827453613,-0.0023642145097255707
1761486952140964600,4.373964599609375,-0.05623054504394531,-0.0062180012464523315,-0.0022956393659114838
1761486952157772500,4.3907724609375,-0.061962127685546875,-0.0077353715896606445,-0.0023172907531261444
1761486952174603500,4.407603515625,-0.057999610900878906,0.0009688287973403931,-0.003489546477794647
1761486952191426300,4.42442626953125,-0.0651559829711914,-0.01061469316482544,-0.0048338137567043304
1761486952208238300,4.44123828125,-0.05811786651611328,-0.007161766290664673,-0.002845410257577896
1761486952225065200,4.458065185546875,-0.057842254638671875,-0.007826432585716248,-0.006718020886182785
1761486952241899300,4.474899169921875,-0.05879688262939453,-0.00786784291267395,-0.0042751505970954895
1761486952258744300,4.491744384765625,-0.05309486389160156,-0.008915349841117859,-0.0026488900184631348
1761486952275571700,4.50857177734375,-0.05450630187988281,-0.0068151503801345825,-0.002407502382993698
1761486952292367400,4.525367431640625,-0.05573558807373047,-0.0035786032676696777,-0.0041954293847084045
1761486952309205000,4.542205078125,-0.0596160888671875,-0.0053656697273254395,-0.0026618167757987976
1761486952326016500,4.5590166015625,-0.06071186065673828,0.0006888359785079956,-0.006423935294151306
1761486952342855700,4.575855712890625,-0.06343746185302734,-0.006416752934455872,-0.008221201598644257
1761486952359680500,4.592680419921875,-0.05899620056152344,-0.013396292924880981,-0.007639933377504349
1761486952376506600,4.609506591796875,-0.06138896942138672,-0.004590839147567749,-0.008313491940498352
1761486952393332200,4.626332275390625,-0.06453418731689453,-0.0031557679176330566,-0.00028730183839797974
1761486952410170600,4.643170654296875,-0.062087059020996094,-0.0017732828855514526,-0.00020221248269081116
1761486952426996000,4.659995849609375,-0.058304786682128906,-0.002664223313331604,0.0008625835180282593
1761486952443821800,4.67682177734375,-0.06293106079101562,-0.0056814998388290405,0.0013150274753570557
1761486952460646100,4.693646240234375,-0.059569358825683594,-0.008418276906013489,-0.003195628523826599
1761486952477472500,4.710472412109375,-0.06312370300292969,-0.00769437849521637,-0.002460140734910965
1761486952494297300,4.72729736328125,-0.06073570251464844,-0.0035797059535980225,-0.0010417141020298004
1761486952511127800,4.7441279296875,-0.0615081787109375,-0.0089949369430542,-0.00200498104095459
1761486952527943400,4.760943359375,-0.06199169158935547,-0.005076467990875244,-0.006288040429353714
1761486952544741000,4.7777412109375,-0.062348365783691406,-0.0074064284563064575,-0.005717828869819641
1761486952561603000,4.79460302734375,-0.06353759765625,-0.003753557801246643,-0.005575608462095261
1761486952578424800,4.8114248046875,-0.0659952163696289,-0.0030480772256851196,0.00024039298295974731
1761486952595261700,4.82826171875,-0.0652313232421875,-0.005838513374328613,-0.0018355213105678558
1761486952612075300,4.8450751953125,-0.060771942138671875,-0.0032995641231536865,-0.006137236952781677
1761486952628883700,4.8618837890625,-0.060523033142089844,-0.002928301692008972,-0.003959622234106064
1761486952645701400,4.878701416015625,-0.06213092803955078,-0.005747601389884949,-0.0025704801082611084
1761486952662540300,4.895540283203125,-0.06058788299560547,-0.0020772814750671387,-0.005254320800304413
1761486952679363000,4.912363037109375,-0.0632791519165039,-0.0026218444108963013,-0.0028249435126781464
1761486952696176400,4.92917626953125,-0.058976173400878906,-0.005686700344085693,-0.0017099156975746155
1761486952713014300,4.94601416015625,-0.06011390686035156,-0.004259452223777771,-0.0025887340307235718
1761486952729835300,4.962835205078125,-0.05736255645751953,-0.004012346267700195,0.0009011775255203247
1761486952746685400,4.979685546875,-0.05796051025390625,-0.006905809044837952,-0.008444387465715408
1761486952763503400,4.99650341796875,-0.06402015686035156,-0.00630795955657959,-0.00359262153506279
1761486952780312300,5.013312255859375,-0.056166648864746094,-0.011343628168106079,-0.007345378398895264
1761486952797142500,5.030142578125,-0.05562877655029297,-0.006864890456199646,-0.0010302551090717316
1761486952813963800,5.0469638671875,-0.063812255859375,-0.005060076713562012,-0.006619337946176529
1761486952830785300,5.063785400390625,-0.06007671356201172,-0.005875080823898315,-0.009773310273885727
1761486952847617500,5.080617431640625,-0.06141853332519531,-0.007192894816398621,-0.00008561462163925171
1761486952864441600,5.097441650390625,-0.06048583984375,-0.0073331743478775024,-0.0027758367359638214
1761486952881284900,5.114284912109375,-0.06326866149902344,-0.010280489921569824,-0.0021947957575321198
1761486952898089500,5.13108935546875,-0.06076335906982422,-0.0038471370935440063,-0.00680677592754364
1761486952914932500,5.147932373046875,-0.06152534484863281,-0.006818369030952454,-0.0034192614257335663
1761486952931757000,5.164757080078125,-0.0605010986328125,-0.0044133663177490234,-0.003981877118349075
1761486952948583000,5.1815830078125,-0.05642986297607422,-0.005678251385688782,-0.004426911473274231
1761486952965407700,5.19840771484375,-0.06379222869873047,-0.004210710525512695,-0.002980440855026245
1761486952982229000,5.21522900390625,-0.06569862365722656,-0.002791762351989746,-0.006856001913547516
1761486952999061800,5.232061767578125,-0.06113433837890625,-0.006594553589820862,-0.0020280294120311737
1761486953015884500,5.248884521484375,-0.060443878173828125,-0.003071218729019165,-0.006043724715709686
1761486953032709000,5.265709228515625,-0.060341835021972656,-0.007641986012458801,-0.00662386417388916
1761486953049520400,5.282520263671875,-0.05640697479248047,-0.002019345760345459,-0.004911161959171295
1761486953066358300,5.299358154296875,-0.062652587890625,-0.0024128109216690063,-0.0032392889261245728
1761486953083186200,5.316186279296875,-0.06067371368408203,-0.009436801075935364,-0.0033247433602809906
1761486953099996200,5.33299609375,-0.055663108825683594,-0.0017362236976623535,-0.002048354595899582
1761486953116837000,5.349837158203125,-0.053768157958984375,-0.0063675642013549805,-0.003072880208492279
1761486953133644500,5.36664453125,-0.06225109100341797,-0.004259422421455383,-0.005580782890319824
1761486953150474000,5.383473876953125,-0.06353473663330078,-0.005717337131500244,-0.0029210448265075684
1761486953167285800,5.40028564453125,-0.06665229797363281,-0.011133834719657898,-0.0013805292546749115
1761486953184125000,5.417125,-0.06013965606689453,-0.008980289101600647,-0.002307005226612091
1761486953200932900,5.433932861328125,-0.058506011962890625,-0.007528245449066162,-0.002401784062385559
1761486953217778400,5.4507783203125,-0.057122230529785156,-0.0073117464780807495,-0.005450952798128128
1761486953234616300,5.4676162109375,-0.05918693542480469,-0.004961535334587097,0.004027180373668671
1761486953251440000,5.484440185546875,-0.07233047485351562,-0.010997220873832703,-0.000018399208784103394
1761486953268247300,5.501247314453125,-0.057602882385253906,-0.0007789134979248047,-0.010000962764024734
1761486953285076700,5.51807666015625,-0.05556011199951172,-0.004855811595916748,-0.009487632662057877
1761486953301901800,5.53490185546875,-0.0613861083984375,-0.006828442215919495,-0.007876813411712646
1761486953318728000,5.55172802734375,-0.05690765380859375,-0.0030992329120635986,0.0004766993224620819
1761486953335549200,5.568549072265625,-0.056107521057128906,-0.0036806315183639526,-0.004297558218240738
1761486953352370000,5.585369873046875,-0.0643930435180664,-0.00486224889755249,-0.006836138665676117
1761486953369220400,5.602220458984375,-0.06564617156982422,-0.006889447569847107,-0.004930589348077774
1761486953386037800,5.619037841796875,-0.06013011932373047,-0.0001681894063949585,-0.003920532763004303
1761486953402872800,5.635872802734375,-0.054443359375,-0.007881447672843933,-0.0070327818393707275
1761486953419693800,5.65269384765625,-0.05764579772949219,-0.010141715407371521,-0.0035688355565071106
1761486953436502000,5.669501953125,-0.055207252502441406,-0.006384685635566711,-0.0011266954243183136
1761486953453347300,5.686347412109375,-0.061051368713378906,-0.005231916904449463,-0.005256518721580505
1761486953470166800,5.703166748046875,-0.06821060180664062,-0.008572950959205627,-0.006841439753770828
1761486953486995200,5.7199951171875,-0.062165260314941406,-0.010170817375183105,-0.00017191097140312195
1761486953503816200,5.736816162109375,-0.05997276306152344,-0.0004766136407852173,-0.005937498062849045
1761486953520650200,5.753650146484375,-0.058483123779296875,-0.004870936274528503,-0.0013165324926376343
1761486953537470500,5.770470458984375,-0.06268501281738281,-0.005541712045669556,-0.007907886058092117
1761486953554296300,5.78729638671875,-0.060028076171875,-0.0040158480405807495,-0.0031300224363803864
1761486953571110000,5.80410986328125,-0.06319999694824219,-0.006689637899398804,-0.006476342678070068
1761486953587947500,5.820947509765625,-0.06560993194580078,-0.0041283369064331055,-0.00827522948384285
1761486953604795600,5.837795654296875,-0.05998420715332031,-0.00662587583065033,-0.003637172281742096
1761486953621594400,5.854594482421875,-0.062058448791503906,-0.004045590758323669,0.00036171823740005493
1761486953638399000,5.87139892578125,-0.05981159210205078,-0.006640255451202393,-0.008139606565237045
1761486953655235300,5.8882353515625,-0.060242652893066406,-0.007028564810752869,-0.0042771100997924805
1761486953672060000,5.905059814453125,-0.06045055389404297,-0.005955010652542114,-0.004722028970718384
1761486953688885800,5.9218857421875,-0.06034088134765625,0.00003935396671295166,-0.0025385133922100067
1761486953705697800,5.93869775390625,-0.05776214599609375,-0.004957452416419983,-0.009418606758117676
1761486953722540300,5.955540283203125,-0.05814647674560547,-0.006796136498451233,-0.0046052224934101105
1761486953739374800,5.972374755859375,-0.058854103088378906,-0.004115462303161621,-0.004096325486898422
1761486953756183800,5.989183837890625,-0.0571746826171875,-0.0025905966758728027,-0.0029845982789993286
1761486953773012500,6.006012451171875,-0.059845924377441406,-0.001135125756263733,-0.004503253847360611
1761486953789838600,6.022838623046875,-0.06723403930664062,-0.0073180049657821655,0.0014848075807094574
1761486953806662700,6.03966259765625,-0.06250381469726562,-0.004193216562271118,0.0037800483405590057
1761486953823489000,6.056489013671875,-0.06030750274658203,-0.0023008882999420166,-0.002395808696746826
1761486953840309500,6.0733095703125,-0.053336143493652344,-0.006194159388542175,-0.005500052124261856
1761486953857139500,6.090139404296875,-0.055205345153808594,0.0001780986785888672,-0.0026535801589488983
1761486953873966000,6.106966064453125,-0.057761192321777344,-0.0076800137758255005,0.0003921203315258026
1761486953890787300,6.123787353515625,-0.06334781646728516,-0.0018381327390670776,-0.003403853625059128
1761486953907615200,6.140615234375,-0.0654916763305664,-0.00843551754951477,0.0005950257182121277
1761486953924433200,6.15743310546875,-0.06175804138183594,-0.007011547684669495,-0.008007459342479706
1761486953941262800,6.174262939453125,-0.059406280517578125,-0.0027184635400772095,-0.004505608230829239
1761486953958112300,6.1911123046875,-0.05498981475830078,-0.010094612836837769,0.00004612281918525696
1761486953974930400,6.207930419921875,-0.0635833740234375,-0.005982905626296997,0.0009040497243404388
1761486953991757000,6.224757080078125,-0.05610847473144531,-0.005475088953971863,-0.0018650107085704803
1761486954008580900,6.241580810546875,-0.06082630157470703,-0.0012851208448410034,-0.004763755947351456
1761486954025407200,6.2584072265625,-0.06154155731201172,-0.0028422772884368896,-0.0034537240862846375
1761486954042232000,6.275232177734375,-0.062300682067871094,-0.008838757872581482,-0.005466412752866745
1761486954059058400,6.292058349609375,-0.05657005310058594,-0.006690531969070435,-0.0046696774661540985
1761486954075882800,6.3088828125,-0.05456256866455078,-0.0024393051862716675,0.0017830729484558105
1761486954092708900,6.325708984375,-0.056534767150878906,-0.007578834891319275,0.00026264041662216187
1761486954109534000,6.342533935546875,-0.06239795684814453,-0.0006935000419616699,-0.004235628992319107
1761486954126342400,6.35934228515625,-0.05772209167480469,-0.00546187162399292,0.0005202554166316986
1761486954143170300,6.37617041015625,-0.06350898742675781,-0.006295844912528992,-0.002752341330051422
1761486954159996400,6.392996337890625,-0.06273937225341797,0.0006528645753860474,-0.004327759146690369
1761486954176821200,6.4098212890625,-0.062478065490722656,-0.00260201096534729,-0.002160247415304184
1761486954193634600,6.426634521484375,-0.06179046630859375,-0.003088042140007019,-0.00009606778621673584
1761486954210471700,6.4434716796875,-0.058762550354003906,-0.0019855499267578125,-0.002897445112466812
1761486954227318800,6.46031884765625,-0.06122779846191406,-0.009945571422576904,-0.00230223685503006
1761486954244119300,6.477119384765625,-0.059467315673828125,-0.003038257360458374,-0.004048176109790802
1761486954260949000,6.493948974609375,-0.06425762176513672,-0.004923582077026367,0.0010324865579605103
1761486954277773300,6.510773193359375,-0.06029319763183594,-0.006107315421104431,-0.013671506196260452
1761486954294583000,6.5275830078125,-0.055489540100097656,-0.0011577457189559937,-0.006575379520654678
1761486954311427600,6.544427490234375,-0.05573844909667969,-0.002293318510055542,-0.003905694931745529
1761486954328237300,6.5612373046875,-0.05571174621582031,-0.0005278140306472778,-0.005446799099445343
1761486954345087700,6.578087646484375,-0.05735206604003906,-0.008389100432395935,-0.0028797127306461334
1761486954361941000,6.59494091796875,-0.0576019287109375,-0.008878692984580994,-0.0043127164244651794
1761486954378740000,6.611739990234375,-0.06170368194580078,-0.007773801684379578,-0.0038351453840732574
1761486954395561700,6.628561767578125,-0.06687450408935547,-0.00010713934898376465,0.0044097937643527985
1761486954412393500,6.6453935546875,-0.05433464050292969,-0.005295306444168091,0.0011760741472244263
1761486954429215700,6.6622158203125,-0.06234550476074219,-0.011373117566108704,-0.006609518080949783
1761486954446037500,6.67903759765625,-0.06469535827636719,-0.005896896123886108,-0.002857748419046402
1761486954462843400,6.695843505859375,-0.06683921813964844,-0.004334166646003723,-0.0005868636071681976
1761486954479687400,6.7126875,-0.062107086181640625,-0.007636547088623047,0.00048459693789482117
1761486954496521700,6.729521728515625,-0.06238555908203125,-0.010464832186698914,0.0017548426985740662
1761486954513330700,6.74633056640625,-0.0592193603515625,0.0030118972063064575,-0.004548642784357071
1761486954530164200,6.763164306640625,-0.059166908264160156,-0.0036696195602416992,-0.003152415156364441
1761486954546997200,6.779997314453125,-0.06015491485595703,-0.006477445363998413,-0.0017521977424621582
1761486954563803400,6.796803466796875,-0.06030082702636719,-0.003439098596572876,0.004381455481052399
1761486954580642300,6.813642333984375,-0.05804920196533203,0.000045046210289001465,-0.0016536153852939606
1761486954597471500,6.830471435546875,-0.06469440460205078,-0.005295366048812866,-0.0012873932719230652
1761486954614275800,6.84727587890625,-0.06440162658691406,-0.007195085287094116,0.005706224590539932
1761486954631108600,6.864108642578125,-0.059807777404785156,-0.002306714653968811,0.0008537024259567261
1761486954647932000,6.880931884765625,-0.06025123596191406,0.00025124847888946533,0.0018990375101566315
1761486954664758000,6.897758056640625,-0.05853080749511719,-0.005225017666816711,-0.000833652913570404
1761486954681582000,6.91458203125,-0.060851097106933594,-0.002900645136833191,-0.0031890906393527985
1761486954698408400,6.931408447265625,-0.06662273406982422,0.0012825876474380493,-0.006936643272638321
1761486954715250700,6.948250732421875,-0.06242179870605469,-0.006701439619064331,-0.009025797247886658
1761486954732056000,6.96505615234375,-0.06535911560058594,-0.010206609964370728,-0.009495776146650314
1761486954748883700,6.9818837890625,-0.06109428405761719,0.0003387033939361572,-0.0033773034811019897
1761486954765712100,6.998712158203125,-0.06629657745361328,-0.003931209444999695,-0.00019806623458862305
1761486954782517800,7.015517822265625,-0.0571746826171875,-0.005672082304954529,-0.001189984381198883
1761486954799360800,7.03236083984375,-0.061356544494628906,-0.0013500303030014038,-0.0050557516515254974
1761486954816185300,7.049185302734375,-0.0582122802734375,-0.002480611205101013,0.0007138252258300781
1761486954832998700,7.06599853515625,-0.06037616729736328,-0.0015298575162887573,-0.007450837641954422
1761486954849838000,7.082838134765625,-0.059200286865234375,-0.003671705722808838,-0.0030195042490959167
1761486954866672000,7.099672119140625,-0.06015968322753906,-0.004006519913673401,0.0027647390961647034
1761486954883507000,7.1165068359375,-0.06067085266113281,-0.004665285348892212,-0.007583193480968475
1761486954900334300,7.133334228515625,-0.05453300476074219,-0.005917027592658997,-0.0063927061855793
1761486954917151700,7.15015185546875,-0.05945110321044922,-0.006214052438735962,-0.0020761117339134216
1761486954933974000,7.16697412109375,-0.06056022644042969,-0.00219784677028656,-0.007102612406015396
1761486954950788900,7.183788818359375,-0.058574676513671875,-0.005758792161941528,-0.0021213144063949585
1761486954967628000,7.2006279296875,-0.06298446655273438,-0.007424294948577881,-0.004347182810306549
1761486954984453000,7.217453125,-0.05524444580078125,0.0007905066013336182,-0.003545869141817093
1761486955001264000,7.23426416015625,-0.0554962158203125,-0.009975016117095947,0.0007165707647800446
1761486955018103300,7.251103271484375,-0.056672096252441406,-0.0068572163581848145,-0.0015848204493522644
1761486955034911500,7.267911376953125,-0.06903553009033203,-0.0034319311380386353,0.00026252493262290955
1761486955051752000,7.284751953125,-0.05809211730957031,0.005273222923278809,-0.0015472061932086945
1761486955068584400,7.30158447265625,-0.05593109130859375,-0.0043779462575912476,-0.003972873091697693
1761486955085401000,7.318401123046875,-0.06258869171142578,-0.0011092722415924072,-0.0034973248839378357
1761486955102218000,7.335218017578125,-0.05953407287597656,-0.0013373345136642456,-0.0003943219780921936
1761486955119041800,7.352041748046875,-0.06134510040283203,-0.0014800429344177246,-0.0008906647562980652
1761486955135868700,7.36886865234375,-0.06048107147216797,-0.0015013962984085083,-0.0011354237794876099
1761486955152692500,7.3856923828125,-0.060352325439453125,-0.00952543318271637,-0.002334490418434143
1761486955169518600,7.4025185546875,-0.05968475341796875,-0.0025465190410614014,-0.0012122131884098053
1761486955186331100,7.4193310546875,-0.059459686279296875,-0.0015716403722763062,-0.008182819932699203
1761486955203187700,7.436187744140625,-0.059060096740722656,-0.008402898907661438,-0.006224878132343292
1761486955219989800,7.45298974609375,-0.058999061584472656,-0.006519287824630737,-0.004852350801229477
1761486955236809500,7.4698095703125,-0.05898857116699219,-0.0033736079931259155,-0.0015730932354927063
1761486955253642000,7.48664208984375,-0.06483650207519531,-0.0016675591468811035,-0.001103471964597702
1761486955270474500,7.503474609375,-0.06507301330566406,-0.008360907435417175,-0.005096103996038437
1761486955287295500,7.52029541015625,-0.05926227569580078,-0.004143893718719482,-0.004393596202135086
1761486955304119800,7.537119873046875,-0.060817718505859375,-0.0010442137718200684,-0.0012058168649673462
1761486955320957400,7.55395751953125,-0.057480812072753906,-0.01113632321357727,-0.004071548581123352
1761486955337778200,7.570778076171875,-0.05327892303466797,-0.003954574465751648,-0.0045072585344314575
1761486955354605800,7.587605712890625,-0.06397533416748047,-0.007473930716514587,0.0013408921658992767
1761486955371440400,7.6044404296875,-0.060111045837402344,-0.0021390914916992188,-0.006525032222270966
1761486955388235000,7.621235107421875,-0.05595207214355469,-0.008011668920516968,-0.006495974957942963
1761486955405084400,7.63808447265625,-0.057880401611328125,-0.000504910945892334,-0.0017211921513080597
1761486955421916400,7.65491650390625,-0.05882072448730469,-0.0052749961614608765,0.0007421635091304779
1761486955438734300,7.671734375,-0.05640411376953125,-0.005995810031890869,-0.006527543067932129
1761486955455563500,7.6885634765625,-0.0655813217163086,-0.005026713013648987,-0.002474270761013031
1761486955472389400,7.705389404296875,-0.061122894287109375,-0.005966410040855408,0.00006023794412612915
1761486955489213400,7.72221337890625,-0.05525016784667969,-0.0031546950340270996,-0.00367177277803421
1761486955506040300,7.739040283203125,-0.06476020812988281,-0.008535876870155334,-0.0012608878314495087
1761486955522864600,7.75586474609375,-0.06619739532470703,-0.008761003613471985,-0.0037823542952537537
1761486955539690800,7.772690673828125,-0.0670623779296875,-0.007704928517341614,-0.0007926151156425476
1761486955556498400,7.78949853515625,-0.06134510040283203,-0.006406769156455994,-0.002533458173274994
1761486955573341200,7.806341064453125,-0.05769824981689453,-0.0039466917514801025,-0.00489652156829834
1761486955590162700,7.82316259765625,-0.06398868560791016,-0.002938404679298401,-0.0007619224488735199
1761486955606978600,7.839978515625,-0.05616950988769531,-0.0012478679418563843,-0.0033594556152820587
1761486955623803000,7.856802978515625,-0.05713653564453125,-0.006253913044929504,-0.005588069558143616
1761486955640615700,7.87361572265625,-0.05464649200439453,-0.007870271801948547,0.0016196146607398987
1761486955657438200,7.890438232421875,-0.06125450134277344,-0.006307676434516907,-0.00021621957421302795
1761486955674286300,7.907286376953125,-0.061606407165527344,-0.004900425672531128,0.002456970512866974
1761486955691104300,7.924104248046875,-0.05938720703125,-0.005688562989234924,-0.0019330047070980072
1761486955707914000,7.9409140625,-0.06717777252197266,-0.005686715245246887,-0.0026823021471500397
1761486955724750300,7.957750244140625,-0.06429386138916016,-0.004582047462463379,-0.000970747321844101
1761486955741583000,7.9745830078125,-0.05914783477783203,-0.00555969774723053,0.00045391544699668884
1761486955758409000,7.991408935546875,-0.06145191192626953,-0.004488110542297363,-0.0029537416994571686
1761486955775232000,8.00823193359375,-0.05353546142578125,-0.0013597607612609863,-0.004855051636695862
1761486955792043500,8.02504345703125,-0.056380271911621094,-0.003970056772232056,0.00019564107060432434
1761486955808898600,8.041898681640625,-0.060871124267578125,-0.007342234253883362,0.0008736476302146912
1761486955825722400,8.058722412109375,-0.05748558044433594,-0.002163991332054138,-0.0008957348763942719
1761486955842547200,8.075547119140625,-0.05697345733642578,-0.005476281046867371,-0.00042730942368507385
1761486955859372000,8.0923720703125,-0.05868244171142578,-0.008894741535186768,-0.0022591836750507355
1761486955876182000,8.10918212890625,-0.058655738830566406,-0.0003445148468017578,-0.006376244127750397
1761486955893022200,8.126022216796875,-0.05779552459716797,-0.004228964447975159,0.0016331188380718231
1761486955909848600,8.1428486328125,-0.052954673767089844,-0.010047659277915955,0.0010215938091278076
1761486955926673200,8.159673095703125,-0.05807018280029297,-0.0038973242044448853,-0.0010059699416160583
1761486955943497000,8.1764970703125,-0.061120033264160156,-0.0018018782138824463,-0.0022086985409259796
1761486955960327000,8.193326904296875,-0.06058692932128906,-0.002642720937728882,-0.0029929131269454956
1761486955977133600,8.210133544921876,-0.06101036071777344,-0.002782166004180908,-0.003271769732236862
1761486955993974800,8.226974853515625,-0.05928993225097656,-0.0016808807849884033,-0.004857644438743591
1761486956010801200,8.24380126953125,-0.05788898468017578,-0.002714782953262329,-0.002638738602399826
1761486956027609300,8.260609375,-0.058165550231933594,-0.004608467221260071,-0.0034175626933574677
1761486956044447700,8.27744775390625,-0.058208465576171875,-0.0030282288789749146,-0.0005758292973041534
1761486956061280500,8.294280517578125,-0.055939674377441406,0.00010026991367340088,0.003941763192415237
1761486956078085600,8.311085693359376,-0.060797691345214844,-0.004045054316520691,-0.0035078302025794983
1761486956094909700,8.32790966796875,-0.06624317169189453,-0.008695423603057861,-0.0033660084009170532
1761486956111739400,8.344739501953125,-0.059432029724121094,-0.00643552839756012,-0.000371783971786499
1761486956128564000,8.36156396484375,-0.057267189025878906,-0.0008173137903213501,-0.004016585648059845
1761486956145377300,8.378377197265625,-0.05515098571777344,-0.0040501803159713745,-0.003396749496459961
1761486956162214700,8.395214599609375,-0.05661964416503906,-0.0044453442096710205,0.0007612928748130798
1761486956179040800,8.412040771484374,-0.05684185028076172,-0.0026938319206237793,-0.003747120499610901
1761486956195865300,8.428865234375,-0.0628662109375,0.0027401745319366455,-0.004012808203697205
1761486956212691700,8.445691650390625,-0.053725242614746094,-0.007481992244720459,-0.003343142569065094
1761486956229516000,8.46251611328125,-0.06517601013183594,-0.006108954548835754,0.000041253864765167236
1761486956246336800,8.479336669921874,-0.06333541870117188,-0.003635510802268982,-0.0037702322006225586
1761486956263164200,8.4961640625,-0.0659799575805664,-0.0026227831840515137,0.004141911864280701
1761486956279992800,8.512992919921874,-0.06004524230957031,-0.005347058176994324,-0.0010028406977653503
1761486956296838000,8.529837890625,-0.059149742126464844,-0.005619943141937256,0.002352893352508545
1761486956313657300,8.5466572265625,-0.061290740966796875,-0.001485183835029602,-0.0005324482917785645
1761486956330482200,8.563482177734375,-0.06197929382324219,-0.0009461790323257446,-0.005593061447143555
1761486956347308500,8.58030859375,-0.057656288146972656,-0.0008192360401153564,0.0012849792838096619
1761486956364132600,8.597132568359376,-0.05700206756591797,-0.004873514175415039,0.0005065463483333588
1761486956380949800,8.61394970703125,-0.05982685089111328,-0.007274061441421509,0.005115129053592682
1761486956397781500,8.630781494140624,-0.06317901611328125,-0.005805179476737976,0.0040313974022865295
1761486956414612000,8.647612060546875,-0.05491352081298828,-0.0044603049755096436,0.006802991032600403
1761486956431434000,8.66443408203125,-0.055449485778808594,-0.0013957470655441284,0.00236549973487854
1761486956448260600,8.681260498046875,-0.0625162124633789,-0.004990413784980774,-0.006439417600631714
1761486956465104600,8.698104736328125,-0.056598663330078125,-0.004453986883163452,-0.001904211938381195
1761486956481908000,8.714907958984375,-0.05570507049560547,-0.004271566867828369,-0.003931470215320587
1761486956498738700,8.73173876953125,-0.06178474426269531,-0.002382218837738037,-0.007070861756801605
1761486956515545000,8.748545166015624,-0.060550689697265625,-0.0009877532720565796,-0.0005226805806159973
1761486956532388400,8.765388427734376,-0.06228828430175781,-0.00212647020816803,0.001538604497909546
1761486956549210600,8.782210693359374,-0.06354713439941406,-0.008114144206047058,-0.002032950520515442
1761486956566036700,8.79903662109375,-0.0660104751586914,-0.007235243916511536,0.00036907196044921875
1761486956582833000,8.8158330078125,-0.057127952575683594,-0.005817309021949768,-0.0010891333222389221
1761486956599674000,8.832674072265625,-0.05399608612060547,-0.006714552640914917,-0.0006379112601280212
1761486956616487400,8.8494873046875,-0.058882713317871094,-0.0057249516248703,-0.0022305473685264587
1761486956633324500,8.866324462890624,-0.05832195281982422,-0.002712354063987732,0.005098253488540649
1761486956650151000,8.88315087890625,-0.05531120300292969,-0.002309635281562805,0.001560695469379425
1761486956666962700,8.899962646484376,-0.055504798889160156,-0.002899572253227234,-0.0017988383769989014
1761486956683799300,8.91679931640625,-0.05553436279296875,-0.004132881760597229,0.0005587786436080933
1761486956700628500,8.93362841796875,-0.05846405029296875,-0.008328542113304138,0.0021138042211532593
1761486956717452300,8.950452392578125,-0.060044288635253906,-0.0030830949544906616,0.0012556537985801697
1761486956734277000,8.967277099609374,-0.06141948699951172,-0.00527547299861908,0.0011263564229011536
1761486956751096300,8.984096435546874,-0.061629295349121094,-0.007286012172698975,0.0001640617847442627
1761486956767919000,9.000919189453125,-0.05938243865966797,-0.004191458225250244,-0.003026440739631653
1761486956784774000,9.01777392578125,-0.05725574493408203,-0.006676137447357178,-0.002360813319683075
1761486956801592300,9.03459228515625,-0.06392097473144531,-0.002892792224884033,-0.0034313052892684937
1761486956818418400,9.05141845703125,-0.062003135681152344,-0.009417042136192322,-0.0035138875246047974
1761486956835226000,9.06822607421875,-0.06350040435791016,-0.0004466921091079712,0.0008899569511413574
1761486956852068900,9.08506884765625,-0.06273460388183594,-0.0037136822938919067,-0.0011293664574623108
1761486956868893700,9.101893798828126,-0.056626319885253906,-0.005414456129074097,-0.002055339515209198
1761486956885720000,9.118719970703125,-0.057488441467285156,-0.008585646748542786,0.0018622130155563354
1761486956902536000,9.135535888671875,-0.05875587463378906,-0.007977485656738281,0.002411201596260071
1761486956919379000,9.15237890625,-0.05894660949707031,-0.007979080080986023,-0.0015974268317222595
1761486956936195000,9.169195068359375,-0.06303691864013672,-0.007963761687278748,-0.0033747702836990356
1761486956953017300,9.186017333984376,-0.06223583221435547,-0.00024372339248657227,-0.003211468458175659
1761486956969849900,9.202849853515625,-0.05768775939941406,-0.007860302925109863,-0.0034077391028404236
1761486956986671900,9.219671875,-0.054442405700683594,-0.006042063236236572,-0.005310490727424622
1761486957003496700,9.23649658203125,-0.059432029724121094,-0.005828455090522766,0.0017661899328231812
1761486957020307000,9.253306884765625,-0.061469078063964844,-0.005742385983467102,-0.0010290071368217468
1761486957037150000,9.27014990234375,-0.057575225830078125,-0.0027729421854019165,-0.002346903085708618
1761486957053977900,9.286977783203126,-0.05584716796875,-0.009361475706100464,-0.003634035587310791
1761486957070781000,9.303781005859374,-0.06078338623046875,-0.009260863065719604,-0.0009286850690841675
1761486957087610400,9.3206103515625,-0.062180519104003906,-0.005132049322128296,0.00008447468280792236
1761486957104438500,9.3374384765625,-0.05654335021972656,-0.0045211464166641235,0.0008286237716674805
1761486957121258000,9.354258056640624,-0.06088829040527344,-0.004434689879417419,-0.0018181949853897095
1761486957138089000,9.3710888671875,-0.058274269104003906,-0.0014190822839736938,-0.0016487911343574524
1761486957154912000,9.387912109375,-0.062286376953125,-0.0062467604875564575,0.007671099156141281
1761486957171736000,9.404736083984375,-0.05883312225341797,0.0011188387870788574,0.005098849534988403
1761486957188549400,9.42154931640625,-0.06302165985107422,-0.0036219507455825806,0.003339320421218872
1761486957205387300,9.43838720703125,-0.06365776062011719,-0.007162466645240784,0.0011512339115142822
1761486957222213000,9.455213134765625,-0.06375312805175781,-0.005981177091598511,-0.0032010525465011597
1761486957239046700,9.472046630859374,-0.0575714111328125,0.0012121498584747314,-0.004959188401699066
1761486957255864000,9.488864013671876,-0.06282806396484375,-0.001948729157447815,-0.002920687198638916
1761486957272705800,9.505705810546875,-0.05564403533935547,-0.0011028498411178589,-0.004903428256511688
1761486957289528600,9.522528564453125,-0.05555152893066406,-0.006374910473823547,-0.0029425323009490967
1761486957306352600,9.5393525390625,-0.06365966796875,-0.0031135529279708862,0.00025323033332824707
1761486957323185000,9.556184814453125,-0.0626077651977539,-0.008665964007377625,-0.005021370947360992
1761486957339988200,9.57298828125,-0.053874969482421875,-0.000555872917175293,-0.0036146417260169983
1761486957356830200,9.589830322265625,-0.05385017395019531,-0.0045320093631744385,-0.0023745596408843994
1761486957373654000,9.606654052734376,-0.05640602111816406,-0.007384538650512695,0.00010051578283309937
1761486957390463700,9.623463623046876,-0.057442665100097656,-0.0054964423179626465,-0.0014068931341171265
1761486957407305500,9.640305419921875,-0.05504608154296875,-0.007241472601890564,-0.006423421204090118
1761486957424131000,9.657131103515624,-0.06843852996826172,-0.0009208023548126221,-0.0010369941592216492
