time,seconds_elapsed,z,y,x
1761487003911240700,0.25624072265625,-0.05706787109375,-0.008110851049423218,-0.0005651320097967982
1761487003928064000,0.27306396484375,-0.061532020568847656,0.0008402764797210693,0.004218332469463348
1761487003944900600,0.289900634765625,-0.06155872344970703,-0.0024565309286117554,0.0013564919354394078
1761487003961730000,0.30672998046875,-0.06335067749023438,-0.0011232495307922363,0.0008264328935183585
1761487003978552600,0.323552490234375,-0.06134605407714844,-0.003201425075531006,-0.003348149126395583
1761487003995380200,0.340380126953125,-0.06039619445800781,-0.005899593234062195,0.0031156432814896107
1761487004012191000,0.35719091796875,-0.05619049072265625,0.0013219118118286133,-0.00003062424366362393
1761487004029017600,0.374017578125,-0.06254005432128906,-0.0015950053930282593,0.0023269187659025192
1761487004045841700,0.390841552734375,-0.06642532348632812,-0.000904962420463562,0.0037862518802285194
1761487004062668000,0.40766796875,-0.061163902282714844,0.003212064504623413,-0.005993780680000782
1761487004079476700,0.424476806640625,-0.06101417541503906,-0.0032410770654678345,-0.0028882483020424843
1761487004096331000,0.4413310546875,-0.06326675415039062,-0.0012785941362380981,-0.0011389916762709618
1761487004113164800,0.458164794921875,-0.06360816955566406,-0.0021180957555770874,-0.006770550739020109
1761487004129982200,0.474982177734375,-0.06658363342285156,-0.001753300428390503,-0.0030009679030627012
1761487004146806000,0.491805908203125,-0.06118583679199219,-0.003968909382820129,-0.00013433839194476604
1761487004163632400,0.50863232421875,-0.05516815185546875,-0.0032157450914382935,-0.003061245661228895
1761487004180436000,0.52543603515625,-0.05945587158203125,-0.0013551115989685059,-0.00019752903608605266
1761487004197283000,0.542282958984375,-0.057181358337402344,0.0007220357656478882,-0.0038604489527642727
1761487004214110200,0.559110107421875,-0.05748558044433594,-0.006647080183029175,-0.004455069079995155
1761487004230933000,0.57593310546875,-0.05866718292236328,-0.0001674443483352661,-0.0027478185947984457
1761487004247753200,0.592753173828125,-0.059983253479003906,0.0019593387842178345,0.0016729871276766062
1761487004264587300,0.609587158203125,-0.05904674530029297,-0.0017767548561096191,-0.002278795698657632
1761487004281407200,0.6264072265625,-0.06589126586914062,-0.0000136643648147583,-0.002389100845903158
1761487004298216700,0.643216796875,-0.06578731536865234,-0.0009922832250595093,0.00054078025277704
1761487004315043600,0.660043701171875,-0.06284809112548828,0.000661209225654602,-0.0007527557900175452
1761487004331870200,0.6768701171875,-0.06061840057373047,0.00036275386810302734,0.0019673544447869062
1761487004348682200,0.69368212890625,-0.06320476531982422,-0.0019724220037460327,-0.0035189385525882244
1761487004365520000,0.710519775390625,-0.06181144714355469,0.0029231011867523193,-0.0014689788222312927
1761487004382344200,0.72734423828125,-0.06452465057373047,-0.006202444434165955,0.0017726635560393333
1761487004399167200,0.744167236328125,-0.060873985290527344,-0.005803748965263367,0.0044356826692819595
1761487004415997400,0.76099755859375,-0.06096935272216797,0.0023286938667297363,-0.00153257604688406
1761487004432820500,0.777820556640625,-0.06033611297607422,0.0013420730829238892,-0.004214724991470575
1761487004449645600,0.7946455078125,-0.060242652893066406,-0.0016381293535232544,-0.0005102414870634675
1761487004466485000,0.811485107421875,-0.06315326690673828,-0.002053678035736084,-0.0029316884465515614
1761487004483308500,0.82830859375,-0.06245613098144531,-0.005047827959060669,-0.0014074884820729494
1761487004500135000,0.845135009765625,-0.05942344665527344,-0.0015900284051895142,-0.004166348371654749
1761487004516958700,0.861958740234375,-0.06481456756591797,0.0019298642873764038,-0.0034390154760330915
1761487004533785300,0.878785400390625,-0.06546401977539062,-0.0017578750848770142,-0.00010219780961051583
1761487004550609400,0.895609375,-0.06458377838134766,0.0021553337574005127,0.003773742588236928
1761487004567431200,0.91243115234375,-0.05860614776611328,0.00594763457775116,-0.0011185768526047468
1761487004584263200,0.92926318359375,-0.061766624450683594,-0.008611246943473816,0.000668696709908545
1761487004601086000,0.9460859375,-0.059683799743652344,0.0014073103666305542,-0.01074810978025198
1761487004617909200,0.9629091796875,-0.06598854064941406,-0.008756458759307861,-0.0037555573508143425
1761487004634732000,0.97973193359375,-0.06009674072265625,0.0011396706104278564,-0.006852159276604652
1761487004651556000,0.99655615234375,-0.06019878387451172,0.00563541054725647,-0.004043987952172756
1761487004668390100,1.01339013671875,-0.06313705444335938,-0.0008659809827804565,0.003988876007497311
1761487004685209900,1.0302099609375,-0.06065940856933594,0.0058419108390808105,0.0023363609798252583
1761487004702036200,1.0470361328125,-0.06792068481445312,-0.004096359014511108,0.00039173197001218796
1761487004718860500,1.063860595703125,-0.0631704330444336,0.0006700605154037476,0.0007309741340577602
1761487004735686700,1.080686767578125,-0.05887794494628906,0.003833770751953125,-0.002740543568506837
1761487004752510500,1.097510498046875,-0.06472587585449219,-0.010305970907211304,0.007281124126166105
1761487004769329700,1.11432958984375,-0.0626840591430664,-0.002636536955833435,-0.011068484745919704
1761487004786144000,1.13114404296875,-0.0571746826171875,-0.0020497292280197144,-0.004770352505147457
1761487004802973400,1.147973388671875,-0.06673622131347656,-0.005130842328071594,-0.00014568038750439882
1761487004819793000,1.16479296875,-0.06298542022705078,0.0038383305072784424,-0.0029615075327455997
1761487004836624400,1.181624267578125,-0.06469345092773438,-0.004662871360778809,0.006462147459387779
1761487004853450200,1.1984501953125,-0.057964324951171875,-0.001945778727531433,-0.003200798761099577
1761487004870261000,1.215260986328125,-0.062148094177246094,-0.004349693655967712,0.003080225782468915
1761487004887094300,1.23209423828125,-0.06456565856933594,-0.0036413222551345825,-0.001886857906356454
1761487004903927300,1.24892724609375,-0.06493091583251953,-0.008774235844612122,-0.0025789409410208464
1761487004920748000,1.265748046875,-0.06385040283203125,-0.003156423568725586,-0.0033396752551198006
1761487004937591600,1.282591552734375,-0.05962371826171875,0.0012081116437911987,-0.0028571197763085365
1761487004954397200,1.299397216796875,-0.06190967559814453,-0.0021350830793380737,0.0024214189033955336
1761487004971238000,1.31623779296875,-0.06339263916015625,0.0007631033658981323,0.0008944520959630609
1761487004988062200,1.333062255859375,-0.0595550537109375,0.0017997026443481445,0.0028924276120960712
1761487005004872400,1.34987255859375,-0.05669593811035156,-0.009830504655838013,0.002835429273545742
1761487005021707500,1.36670751953125,-0.05967903137207031,-0.0027520060539245605,0.0003165865782648325
1761487005038543600,1.383543701171875,-0.05720329284667969,-0.0028762072324752808,-0.002010776661336422
1761487005055386400,1.400386474609375,-0.06268119812011719,-0.0004615485668182373,-0.001742411288432777
1761487005072183000,1.41718310546875,-0.06123828887939453,-0.00337982177734375,-0.003671554382890463
1761487005089019100,1.43401904296875,-0.05923271179199219,-0.003355562686920166,-0.002128705382347107
1761487005105838800,1.4508388671875,-0.06006908416748047,-0.004438132047653198,-0.0037163295783102512
1761487005122663700,1.46766357421875,-0.060845375061035156,-0.004558339715003967,-0.005187383387237787
1761487005139489500,1.484489501953125,-0.0690908432006836,0.0026519447565078735,-0.004745036363601685
1761487005156313000,1.50131298828125,-0.06042671203613281,0.0013786405324935913,-0.004180347081273794
1761487005173127000,1.518126953125,-0.0661020278930664,0.0023297518491744995,0.0006840156856924295
1761487005189968100,1.534968017578125,-0.06111431121826172,0.0025230199098587036,-0.001549932756461203
1761487005206790100,1.5517900390625,-0.05922126770019531,-0.007362917065620422,-0.0031601812224835157
1761487005223613400,1.568613525390625,-0.06186103820800781,-0.0006354302167892456,-0.005149017088115215
1761487005240436500,1.5854365234375,-0.06047534942626953,0.00220295786857605,-0.001375050749629736
1761487005257265000,1.602264892578125,-0.060912132263183594,0.0007873773574829102,0.0009306743741035461
1761487005274077000,1.619076904296875,-0.05805683135986328,0.0006303340196609497,-0.004612858407199383
1761487005290900500,1.635900390625,-0.058762550354003906,-0.004548355937004089,0.00045305932871997356
1761487005307724500,1.652724609375,-0.06293296813964844,-0.004150986671447754,-0.00007808511145412922
1761487005324553200,1.66955322265625,-0.06064033508300781,-0.0040473490953445435,-0.0031104409135878086
1761487005341377300,1.686377197265625,-0.0650033950805664,-0.0023029744625091553,-0.0036113373935222626
1761487005358200800,1.703200927734375,-0.05867958068847656,-0.0007933080196380615,-0.0025446477811783552
1761487005375020000,1.72002001953125,-0.0577239990234375,-0.0005301088094711304,0.00162711669690907
1761487005391846000,1.736845947265625,-0.0627756118774414,-0.0005989968776702881,-0.0017976409289985895
1761487005408683300,1.753683349609375,-0.06353473663330078,0.0003408491611480713,-0.002416864736005664
1761487005425504800,1.7705048828125,-0.06251335144042969,0.003435790538787842,-0.0005615092813968658
1761487005442341400,1.78734130859375,-0.06349468231201172,0.0026643872261047363,0.0019681002013385296
1761487005459165700,1.804165771484375,-0.06656742095947266,-0.0014984160661697388,0.005373579449951649
1761487005475991800,1.82099169921875,-0.061837196350097656,0.0020829737186431885,-0.001215420663356781
1761487005492815400,1.8378154296875,-0.06632041931152344,0.0008650124073028564,0.001861867494881153
1761487005509642000,1.85464208984375,-0.06699943542480469,-0.006260022521018982,-0.001733403536491096
1761487005526466000,1.871466064453125,-0.06303977966308594,-0.004959210753440857,-0.0023781664203852415
1761487005543292400,1.88829248046875,-0.06065082550048828,-0.004366487264633179,0.001499841222539544
1761487005560099300,1.905099365234375,-0.06029319763183594,0.0016858279705047607,-0.0020112129859626293
1761487005576942300,1.9219423828125,-0.058452606201171875,-0.0032103806734085083,0.0015753451734781265
1761487005593766100,1.93876611328125,-0.06109809875488281,-0.002820923924446106,-0.0019499862100929022
1761487005610593000,1.955593017578125,-0.0621490478515625,-0.0002763420343399048,-0.004217667039483786
1761487005627416600,1.97241650390625,-0.055321693420410156,-0.0011974871158599854,-0.0010955185862258077
1761487005644226000,1.98922607421875,-0.05948829650878906,0.0022349804639816284,-0.0053676581010222435
1761487005661067500,2.006067626953125,-0.05897998809814453,-0.0042802393436431885,-0.005356598645448685
1761487005677892600,2.022892578125,-0.060690879821777344,-0.000009924173355102539,-0.007087524980306625
1761487005694701000,2.039701171875,-0.06907463073730469,-0.001595810055732727,-0.0010224322322756052
1761487005711542000,2.0565419921875,-0.058646202087402344,0.0004305541515350342,-0.0009564870269969106
1761487005728371000,2.073370849609375,-0.06113243103027344,-0.004359126091003418,-0.004671287257224321
1761487005745169700,2.090169677734375,-0.06264686584472656,-0.0020745396614074707,-0.009990309365093708
1761487005762002000,2.107001953125,-0.05653953552246094,-0.0023928284645080566,-0.003767640795558691
1761487005778826500,2.123826416015625,-0.061466217041015625,0.0023183077573776245,-0.0035338017623871565
1761487005795657500,2.140657470703125,-0.06334590911865234,-0.0029248297214508057,-0.00002031237818300724
1761487005812480500,2.15748046875,-0.0636281967163086,-0.0008799880743026733,-0.004231943748891354
1761487005829304000,2.174303955078125,-0.06253337860107422,-0.0016966313123703003,-0.0019616386853158474
1761487005846117400,2.191117431640625,-0.058307647705078125,0.0022864192724227905,-0.005750667303800583
1761487005862954500,2.20795458984375,-0.06286811828613281,-0.0011331140995025635,-0.003565340768545866
1761487005879777800,2.22477783203125,-0.06356048583984375,-0.0004237443208694458,-0.004270788282155991
1761487005896607700,2.241607666015625,-0.06073760986328125,-0.006331533193588257,-0.0002536037936806679
1761487005913430800,2.2584306640625,-0.06388187408447266,-0.002545386552810669,-0.0013203934067860246
1761487005930272300,2.275272216796875,-0.06143379211425781,0.001442238688468933,-0.003699352266266942
1761487005947080000,2.292079833984375,-0.056351661682128906,-0.00028336048126220703,-0.0028069724794477224
1761487005963903700,2.30890380859375,-0.058508872985839844,-0.0004399418830871582,0.0031796246767044067
1761487005980745500,2.325745361328125,-0.062896728515625,-0.003405049443244934,-0.0016409617383033037
1761487005997569000,2.342569091796875,-0.060639381408691406,0.0020899027585983276,-0.004201061557978392
1761487006014379000,2.35937890625,-0.06143379211425781,-0.005866780877113342,-0.004973314702510834
1761487006031217000,2.376216796875,-0.06740283966064453,-0.0024138689041137695,-0.005882403813302517
1761487006048047600,2.393047607421875,-0.06537818908691406,0.002071186900138855,-0.0030673814471811056
1761487006064870000,2.409869873046875,-0.06279850006103516,-0.004171684384346008,0.00025143404491245747
1761487006081696000,2.426696044921875,-0.05542469024658203,-0.0009654611349105835,-0.004344376735389233
1761487006098519600,2.44351953125,-0.05723094940185547,-0.0035224109888076782,0.0005921937990933657
1761487006115338200,2.460338134765625,-0.060914039611816406,0.000055730342864990234,0.00033059087581932545
1761487006132173800,2.477173828125,-0.06098175048828125,-0.004643529653549194,-0.002896642778068781
1761487006148986600,2.493986572265625,-0.0574188232421875,-0.00015154480934143066,-0.00570268277078867
1761487006165817600,2.510817626953125,-0.05866718292236328,-0.004621759057044983,-0.009185709990561008
1761487006182646800,2.527646728515625,-0.058205604553222656,-0.0012480318546295166,-0.0025829896330833435
1761487006199466800,2.544466796875,-0.06463050842285156,0.002029702067375183,0.003128798445686698
1761487006216290300,2.561290283203125,-0.05504417419433594,-0.0003790855407714844,0.0018092114478349686
1761487006233100500,2.5781005859375,-0.058304786682128906,0.0003892481327056885,-0.0020564759615808725
1761487006249932500,2.5949326171875,-0.05814552307128906,0.0021858960390090942,0.0014383955858647823
1761487006266758700,2.611758544921875,-0.05990886688232422,-0.002240285277366638,-0.006446961313486099
1761487006283583700,2.628583740234375,-0.059040069580078125,0.0007087290287017822,-0.006314084865152836
1761487006300407300,2.6454072265625,-0.06296920776367188,-0.006486997008323669,-0.00037772906944155693
1761487006317225200,2.66222509765625,-0.062430381774902344,0.0013417601585388184,-0.0034534186124801636
1761487006334054400,2.679054443359375,-0.06056404113769531,-0.0014605224132537842,0.001289572799578309
1761487006350887400,2.695887451171875,-0.06028175354003906,-0.0036880671977996826,-0.0013598876539617777
1761487006367707600,2.712707763671875,-0.057311058044433594,-0.0012053847312927246,-0.0012182822683826089
1761487006384534000,2.729533935546875,-0.0627126693725586,-0.005963444709777832,-0.000040078768506646156
1761487006401358000,2.746358154296875,-0.0554046630859375,-0.004430338740348816,-0.0028133902233093977
1761487006418201900,2.763201904296875,-0.06307315826416016,-0.0052842795848846436,0.00121864746324718
1761487006435022000,2.78002197265625,-0.061308860778808594,-0.004285410046577454,-0.0008318498730659485
1761487006451848200,2.79684814453125,-0.05454540252685547,-0.004085540771484375,0.002605356043204665
1761487006468657000,2.813656982421875,-0.060019493103027344,-0.000006273388862609863,-0.0029303133487701416
1761487006485502700,2.830502685546875,-0.06377315521240234,-0.0034019649028778076,-0.00264593493193388
1761487006502305800,2.847305908203125,-0.06304073333740234,-0.0011040270328521729,-0.0026216811966151
1761487006519144700,2.864144775390625,-0.059515953063964844,-0.0037172138690948486,-0.0014519391115754843
1761487006535977000,2.88097705078125,-0.05898284912109375,-0.001184716820716858,0.0016167676076292992
1761487006552799700,2.8977998046875,-0.06003856658935547,0.002065986394882202,-0.001850806875154376
1761487006569623000,2.914623046875,-0.06198310852050781,-0.0004169195890426636,-0.0014247545041143894
1761487006586449200,2.93144921875,-0.05756664276123047,0.0032721757888793945,0.00012871925719082355
1761487006603273200,2.948273193359375,-0.058684349060058594,-0.004990801215171814,-0.0026243003085255623
1761487006620084000,2.965083984375,-0.055927276611328125,-0.0033664554357528687,-0.004382306709885597
1761487006636923400,2.98192333984375,-0.06135749816894531,-0.003650978207588196,-0.00602948572486639
1761487006653751000,2.9987509765625,-0.05811882019042969,0.001508265733718872,-0.006213818676769733
1761487006670572800,3.01557275390625,-0.061038970947265625,0.0022342950105667114,-0.002680587349459529
1761487006687378700,3.032378662109375,-0.060341835021972656,-0.0006244033575057983,-0.004003921058028936
1761487006704220400,3.049220458984375,-0.06494712829589844,-0.0011020898818969727,-0.0029785975348204374
1761487006721028000,3.066028076171875,-0.05800628662109375,-0.002355247735977173,-0.0031761606223881245
1761487006737866000,3.082865966796875,-0.05874347686767578,-0.004373133182525635,-0.00313384598121047
1761487006754686700,3.099686767578125,-0.055930137634277344,-0.0006120651960372925,-0.005518948659300804
1761487006771497500,3.11649755859375,-0.061351776123046875,0.000552639365196228,-0.0011208167998120189
1761487006788337200,3.133337158203125,-0.05924510955810547,0.0006323009729385376,0.0006917349528521299
1761487006805160700,3.15016064453125,-0.06364059448242188,0.0018934160470962524,-0.0019369106739759445
1761487006821987300,3.1669873046875,-0.06658077239990234,-0.0019430965185165405,-0.0022128152195364237
1761487006838811000,3.183810791015625,-0.057112693786621094,-0.0032813549041748047,-0.004937281832098961
1761487006855624000,3.2006240234375,-0.06087970733642578,0.0023240000009536743,-0.005700225941836834
1761487006872461000,3.2174609375,-0.06323719024658203,-0.0008332282304763794,-0.006914662197232246
1761487006889287700,3.23428759765625,-0.060667991638183594,0.0015508532524108887,-0.0030672254506498575
1761487006906128400,3.25112841796875,-0.059144020080566406,-0.0009563416242599487,-0.0035900985822081566
1761487006922951400,3.267951416015625,-0.06183624267578125,-0.0024814605712890625,-0.005524179898202419
1761487006939768800,3.284768798828125,-0.06045722961425781,-0.007419377565383911,-0.004138031043112278
1761487006956608500,3.3016083984375,-0.06203651428222656,0.0006516873836517334,-0.008160493336617947
1761487006973421300,3.31842138671875,-0.06633663177490234,-0.009176179766654968,-0.0019276310922577977
1761487006990256000,3.335256103515625,-0.06292915344238281,-0.003089532256126404,-0.006236848421394825
1761487007007056000,3.352055908203125,-0.06241321563720703,-0.0026227235794067383,-0.004625169560313225
1761487007023886000,3.368885986328125,-0.06461048126220703,-0.0032092034816741943,-0.0013793969992548227
1761487007040708400,3.385708251953125,-0.06494331359863281,-0.002599179744720459,-0.0021142198238521814
1761487007057539000,3.4025390625,-0.059795379638671875,-0.00024266541004180908,0.002567705698311329
1761487007074362600,3.419362548828125,-0.05609130859375,0.0001109689474105835,-0.0015708901919424534
1761487007091185700,3.436185546875,-0.05959129333496094,0.0007596909999847412,-0.0010170058812946081
1761487007108012500,3.453012451171875,-0.060771942138671875,-0.0037938207387924194,-0.00605774624273181
1761487007124831500,3.46983154296875,-0.06095123291015625,-0.0026542693376541138,-0.006507240701466799
1761487007141650000,3.48664990234375,-0.060332298278808594,-0.0041746050119400024,-0.0039674099534749985
1761487007158502400,3.50350244140625,-0.055042266845703125,-0.002482801675796509,-0.004401801619678736
1761487007175330600,3.52033056640625,-0.060578346252441406,-0.0011145174503326416,0.0004136462230235338
1761487007192138200,3.53713818359375,-0.06433677673339844,-0.001659005880355835,-0.004682230297476053
1761487007208977400,3.553977294921875,-0.05856800079345703,0.000006943941116333008,-0.004293115809559822
1761487007225790200,3.570790283203125,-0.06581974029541016,-0.0008230656385421753,-0.002377469791099429
1761487007242600400,3.587600341796875,-0.06106758117675781,-0.0010085105895996094,-0.0032592732459306717
1761487007259436800,3.604436767578125,-0.062134742736816406,-0.0062750279903411865,0.003422992769628763
1761487007276266800,3.621266845703125,-0.062294960021972656,-0.0007815510034561157,0.0016274770023301244
1761487007293090300,3.63809033203125,-0.05647087097167969,-0.0010798275470733643,-0.0003532229457050562
1761487007309913900,3.654913818359375,-0.06614875793457031,-0.004039987921714783,-0.00004825834184885025
1761487007326718200,3.67171826171875,-0.05997753143310547,0.004233121871948242,-0.005824547726660967
1761487007343565300,3.6885654296875,-0.05725669860839844,-0.004407569766044617,0.0010199813405051827
1761487007360389400,3.705389404296875,-0.05912017822265625,-0.0005119740962982178,0.0024395016953349113
1761487007377214200,3.722214111328125,-0.06297683715820312,-0.0032768547534942627,0.0007795663550496101
1761487007394044200,3.739044189453125,-0.06469917297363281,0.0020361095666885376,-0.00003201048821210861
1761487007410901800,3.75590185546875,-0.06382560729980469,0.005418404936790466,-0.0008265910437330604
1761487007427705000,3.772705078125,-0.06076812744140625,-0.0040434300899505615,0.001846380066126585
1761487007444507400,3.78950732421875,-0.05916786193847656,0.0008717179298400879,0.00011270307004451752
1761487007461358800,3.80635888671875,-0.06769847869873047,-0.000005900859832763672,-0.003214129712432623
1761487007478178800,3.8231787109375,-0.0654153823852539,-0.0025678426027297974,0.002182247582823038
1761487007495005400,3.84000537109375,-0.0657196044921875,0.0006207525730133057,-0.004644699394702911
1761487007511815200,3.856815185546875,-0.06868839263916016,-0.007706940174102783,0.00441447738558054
1761487007528638500,3.873638427734375,-0.05630683898925781,0.0033254474401474,-0.0024278906639665365
1761487007545475300,3.890475341796875,-0.06141853332519531,-0.00248698890209198,-0.003094928339123726
1761487007562307800,3.907307861328125,-0.06219196319580078,-0.002921581268310547,0.00041366019286215305
1761487007579126800,3.924126708984375,-0.06815528869628906,0.0016820132732391357,-0.0026629967615008354
1761487007595964400,3.94096435546875,-0.06320953369140625,0.00238780677318573,-0.005325427278876305
1761487007612753400,3.95775341796875,-0.05839824676513672,-0.00523027777671814,-0.006081388331949711
1761487007629606400,3.9746064453125,-0.05766773223876953,-0.0006164461374282837,0.002901447704061866
1761487007646423600,3.991423583984375,-0.05983161926269531,0.00005033612251281738,-0.0015141559997573495
1761487007663261200,4.00826123046875,-0.06308364868164062,-0.0009233206510543823,-0.0021744566038250923
1761487007680076300,4.025076171875,-0.06244087219238281,-0.0010228753089904785,-0.00230798264965415
1761487007696906200,4.04190625,-0.05471038818359375,0.0001964271068572998,-0.006826627999544144
1761487007713717200,4.05871728515625,-0.05938911437988281,0.0039380937814712524,-0.004186064470559359
1761487007730532400,4.075532470703125,-0.061885833740234375,0.001035049557685852,-0.0044172462075948715
1761487007747363600,4.092363525390625,-0.06859970092773438,0.001232236623764038,-0.0027016967069357634
1761487007764196400,4.1091962890625,-0.058078765869140625,0.0034867823123931885,0.0021858199033886194
1761487007781016800,4.126016845703125,-0.058762550354003906,0.0004274100065231323,0.0022607953287661076
1761487007797843500,4.142843505859375,-0.06585311889648438,-0.004686295986175537,-0.0045146094635128975
1761487007814667300,4.159667236328125,-0.05880260467529297,0.0015192925930023193,-0.0036938595585525036
1761487007831493600,4.17649365234375,-0.060011863708496094,0.0013738125562667847,-0.0024231020361185074
1761487007848317000,4.19331689453125,-0.05792236328125,0.0025834739208221436,-0.0021161360200494528
1761487007865143600,4.2101435546875,-0.058746337890625,0.0010685473680496216,-0.006025268696248531
1761487007881967600,4.226967529296875,-0.06471633911132812,0.001425132155418396,0.0004155698698014021
1761487007898794500,4.24379443359375,-0.05863475799560547,-0.003266051411628723,-0.0019407971994951367
1761487007915631000,4.260631103515625,-0.05950164794921875,-0.0027734190225601196,0.0016414802521467209
1761487007932458000,4.2774580078125,-0.06191062927246094,-0.004871070384979248,-0.001913915271870792
1761487007949281500,4.294281494140625,-0.05934715270996094,-0.005345284938812256,-0.0014431453309953213
1761487007966108200,4.311108154296875,-0.060749053955078125,-0.0030117779970169067,-0.005023277830332518
1761487007982929400,4.327929443359375,-0.06502151489257812,0.001987144351005554,-0.004317180253565311
1761487007999760100,4.344760009765625,-0.059818267822265625,-0.007245853543281555,-0.0038012962322682142
1761487008016574000,4.361573974609375,-0.0671529769897461,-0.007528543472290039,0.003569930326193571
1761487008033416700,4.378416748046875,-0.06127738952636719,-0.005767136812210083,-0.0026916214264929295
1761487008050232600,4.395232666015625,-0.06444740295410156,-0.0032692700624465942,-0.0009266857523471117
1761487008067054300,4.412054443359375,-0.05680561065673828,-0.0010921359062194824,-0.002256323816254735
1761487008083881200,4.428881103515625,-0.05971240997314453,-0.004763662815093994,0.002766014775261283
1761487008100714500,4.445714599609375,-0.06015300750732422,-0.0041302889585494995,0.003514556447044015
1761487008117532700,4.46253271484375,-0.062007904052734375,0.003641173243522644,-0.0029188431799411774
1761487008134358500,4.479358642578125,-0.060502052307128906,-0.002817094326019287,-0.0002981411525979638
1761487008151182600,4.4961826171875,-0.06206035614013672,0.00383874773979187,-0.005726685281842947
1761487008167994400,4.512994384765625,-0.06051063537597656,-0.005052506923675537,0.0005994307575747371
1761487008184829000,4.529828857421875,-0.06319904327392578,0.000589713454246521,-0.004295556340366602
1761487008201642500,4.546642578125,-0.06360626220703125,-0.0043950676918029785,0.0014213385293260217
1761487008218452500,4.563452392578125,-0.06074333190917969,-0.006973937153816223,-0.002400270663201809
1761487008235298800,4.580298828125,-0.06437110900878906,-0.0015040338039398193,-0.0030120715964585543
1761487008252116000,4.597115966796875,-0.05972099304199219,-0.0036422014236450195,0.0009781625121831894
1761487008268946200,4.6139462890625,-0.06015300750732422,0.0007044076919555664,0.005749468691647053
1761487008285770000,4.63077001953125,-0.062007904052734375,0.0036938637495040894,0.0035919281654059887
1761487008302596400,4.647596435546875,-0.06228828430175781,0.00008133053779602051,-0.0008378053898923099
1761487008319420000,4.664419921875,-0.059406280517578125,-0.00046071410179138184,-0.005539096891880035
1761487008336246300,4.681246337890625,-0.0630350112915039,0.004266515374183655,-0.0010874930303543806
1761487008353070300,4.6980703125,-0.05838203430175781,0.00020970404148101807,-0.00048333994345739484
1761487008369896700,4.714896728515625,-0.05768013000488281,-0.0032618343830108643,-0.0035679638385772705
1761487008386737700,4.731737548828125,-0.061636924743652344,-0.0030877143144607544,-0.0007484075031243265
1761487008403556600,4.748556640625,-0.05232715606689453,-0.0025234967470169067,0.00427358178421855
1761487008420388400,4.765388427734375,-0.05790233612060547,-0.00005677342414855957,-0.0005920472904108465
1761487008437206800,4.782206787109375,-0.05761241912841797,-0.001356080174446106,0.0023775098379701376
1761487008454034000,4.799033935546875,-0.05642890930175781,0.0006591975688934326,-0.00003315042704343796
1761487008470864600,4.81586474609375,-0.06258773803710938,-0.0023828446865081787,-0.002226104959845543
1761487008487691000,4.83269091796875,-0.06757926940917969,-0.002412930130958557,0.001491800881922245
1761487008504504800,4.8495048828125,-0.06134605407714844,0.005121171474456787,0.0006939305458217859
1761487008521334800,4.866334716796875,-0.06446456909179688,-0.0025379955768585205,0.0017276651924476027
1761487008538161000,4.883160888671875,-0.06087684631347656,-0.0007106661796569824,0.0006815413944423199
1761487008554985200,4.899985107421875,-0.06504440307617188,-0.004493445158004761,0.002679330762475729
1761487008571812000,4.91681201171875,-0.0638885498046875,-0.0021358877420425415,-0.0008206318598240614
1761487008588635100,4.93363525390625,-0.06663894653320312,-0.0046431273221969604,-0.0032341473270207644
1761487008605461200,4.950461181640625,-0.057147979736328125,-0.0008637011051177979,0.00212320638820529
1761487008622288600,4.96728857421875,-0.06562137603759766,-0.003223419189453125,-0.002174201887100935
1761487008639109000,4.984109130859375,-0.05813026428222656,0.0004332214593887329,-0.0031805699691176414
1761487008655935700,5.000935791015625,-0.05878162384033203,0.0015943944454193115,-0.002007070230320096
1761487008672761900,5.017761962890625,-0.058882713317871094,-0.004010036587715149,0.002969539724290371
1761487008689569300,5.0345693359375,-0.06701946258544922,0.0002849996089935303,0.0029588057659566402
1761487008706398700,5.051398681640625,-0.06597518920898438,-0.003161191940307617,0.003882582765072584
1761487008723222300,5.06822216796875,-0.06289100646972656,0.0003385394811630249,0.004785575903952122
1761487008740049000,5.085048828125,-0.06242561340332031,-0.002041652798652649,-0.0023519203532487154
1761487008756872700,5.101872802734375,-0.06121349334716797,-0.0007620155811309814,-0.002114716684445739
1761487008773699000,5.118698974609375,-0.05924510955810547,-0.0016835182905197144,0.0015843951841816306
1761487008790522600,5.135522705078125,-0.06008625030517578,0.0005429387092590332,-0.0006694515468552709
1761487008807349000,5.152348876953125,-0.06427574157714844,-0.00022983551025390625,-0.004732103552669287
1761487008824169700,5.169169677734375,-0.060848236083984375,0.0025518685579299927,-0.004186286125332117
1761487008841002800,5.186002685546875,-0.06731319427490234,-0.004063442349433899,-0.0034892442636191845
1761487008857823000,5.202822998046875,-0.06017017364501953,-0.0020876675844192505,-0.005338060203939676
1761487008874666200,5.219666259765625,-0.059085845947265625,-0.0066563040018081665,-0.004083360079675913
1761487008891466500,5.236466552734375,-0.06363391876220703,0.0015365928411483765,0.0003575736191123724
1761487008908317400,5.2533173828125,-0.056687355041503906,-0.005360826849937439,0.0030028517358005047
1761487008925145000,5.27014501953125,-0.05856132507324219,-0.004081815481185913,-0.0028338974807411432
1761487008941963300,5.28696337890625,-0.06111907958984375,-0.00038114190101623535,-0.004027793183922768
1761487008958770400,5.3037705078125,-0.06215190887451172,-0.0034900009632110596,-0.0036374572664499283
1761487008975614000,5.320614013671875,-0.0634450912475586,0.004811123013496399,-0.0034474125131964684
1761487008992437500,5.3374375,-0.06364059448242188,-0.0009236782789230347,0.001529024913907051
1761487009009263600,5.354263671875,-0.0695180892944336,-0.0025016814470291138,-0.0027434607036411762
1761487009026086700,5.371086669921875,-0.06163501739501953,-0.0032233744859695435,-0.006649522110819817
1761487009042897700,5.387897705078125,-0.05930614471435547,-0.002149730920791626,-0.0014071386540308595
1761487009059733800,5.404733642578125,-0.05716896057128906,0.0014954060316085815,0.0034022172912955284
1761487009076568600,5.421568603515625,-0.061553955078125,-0.0003053247928619385,0.0006260245572775602
1761487009093388500,5.438388427734375,-0.05929374694824219,-0.004650026559829712,0.0037782546132802963
1761487009110214700,5.455214599609375,-0.06480026245117188,0.0005778074264526367,-0.0018630125559866428
1761487009127019500,5.47201953125,-0.061573028564453125,-0.002652570605278015,-0.005390203092247248
1761487009143867000,5.488866943359375,-0.05865287780761719,-0.002513676881790161,0.0030012582428753376
1761487009160689000,5.50568896484375,-0.05885791778564453,0.002133116126060486,-0.00015593226999044418
1761487009177497900,5.522497802734375,-0.06294918060302734,-0.005982756614685059,-0.0009018245618790388
1761487009194325000,5.539324951171875,-0.06876564025878906,-0.005473002791404724,-0.002131352201104164
1761487009211151600,5.556151611328125,-0.06444644927978516,-0.0036165565252304077,-0.005515050143003464
1761487009227975400,5.572975341796875,-0.06671619415283203,0.00001920759677886963,-0.0008260797476395965
1761487009244793000,5.58979296875,-0.06527137756347656,-0.0006177723407745361,-0.0007470033597201109
1761487009261625600,5.60662548828125,-0.06684112548828125,-0.008773073554039001,0.0020535362418740988
1761487009278451200,5.623451171875,-0.061232566833496094,-0.0017977654933929443,-0.005847641732543707
1761487009295276000,5.640276123046875,-0.057460784912109375,-0.0018497556447982788,-0.0031604564283043146
1761487009312102100,5.65710205078125,-0.05867481231689453,-0.00548824667930603,0.002549731405451894
1761487009328925700,5.67392578125,-0.05999755859375,0.004561573266983032,-0.004269192926585674
1761487009345752300,5.69075244140625,-0.06133556365966797,0.0014051944017410278,-0.003870492335408926
1761487009362579700,5.707579833984375,-0.05812263488769531,0.002588048577308655,-0.0036710957065224648
1761487009379400000,5.72439990234375,-0.061697959899902344,-0.00019794702529907227,0.0012160928454250097
1761487009396240000,5.741239990234375,-0.05752849578857422,-0.004589304327964783,-0.001057014218531549
1761487009413068000,5.758068115234375,-0.058684349060058594,-0.004129126667976379,-0.004293190315365791
1761487009429888500,5.774888427734375,-0.05886077880859375,-0.005157530307769775,-0.00016380136366933584
1761487009446712300,5.79171240234375,-0.06700801849365234,0.0015365928411483765,-0.002168336883187294
1761487009463540200,5.808540283203125,-0.05833148956298828,-0.003230258822441101,-0.0004945315886288881
1761487009480360700,5.825360595703125,-0.059943199157714844,-0.0028238892555236816,0.0004320219159126282
1761487009497196000,5.842196044921875,-0.059051513671875,-0.006718575954437256,-0.0008460798999294639
1761487009514003500,5.85900341796875,-0.058915138244628906,-0.0067271888256073,-0.0027879623230546713
1761487009530837200,5.875837158203125,-0.0577545166015625,-0.000490829348564148,0.0004073851741850376
1761487009547660300,5.892660400390625,-0.06050300598144531,-0.002945631742477417,0.0000010898802429437637
1761487009564497700,5.90949755859375,-0.060271263122558594,-0.003916352987289429,-0.006684548687189817
1761487009581300700,5.92630078125,-0.06608200073242188,0.0017167478799819946,-0.0032905088737607002
1761487009598140700,5.943140625,-0.06403827667236328,-0.0014943182468414307,-0.0011117280228063464
1761487009614967300,5.95996728515625,-0.06730175018310547,0.0002883225679397583,-0.003691847901791334
1761487009631767600,5.976767578125,-0.05902385711669922,0.0005513280630111694,-0.0032439264468848705
1761487009648618000,5.993617919921875,-0.06410503387451172,-0.002885490655899048,-0.0017171488143503666
1761487009665424100,6.010424072265625,-0.06194782257080078,-0.0012267380952835083,-0.00287448987364769
1761487009682235000,6.02723486328125,-0.06048393249511719,-0.0009653419256210327,-0.005895402282476425
1761487009699078000,6.044077880859375,-0.06611061096191406,-0.0015789568424224854,-0.0042933630757033825
1761487009715904500,6.060904541015625,-0.06403732299804688,0.0018915385007858276,-0.004768791608512402
1761487009732728000,6.07772802734375,-0.06258678436279297,-0.0034313946962356567,-0.004310129676014185
1761487009749554200,6.09455419921875,-0.05879020690917969,0.003234267234802246,-0.004200778901576996
1761487009766378200,6.111378173828125,-0.0606536865234375,-0.0003489553928375244,-0.0018460527062416077
1761487009783202000,6.1282021484375,-0.057361602783203125,0.0002244710922241211,-0.0041717165149748325
1761487009800030700,6.14503076171875,-0.0644989013671875,-0.006675407290458679,-0.006372058764100075
1761487009816854500,6.1618544921875,-0.06671810150146484,-0.004095748066902161,-0.004594994243234396
1761487009833678800,6.178678955078125,-0.06185436248779297,-0.0014430135488510132,-0.0042519839480519295
1761487009850505000,6.1955048828125,-0.05933189392089844,0.00008907914161682129,-0.0031797178089618683
1761487009867345700,6.212345703125,-0.05781364440917969,-0.0036963224411010742,-0.0061283959075808525
1761487009884171800,6.229171875,-0.06278133392333984,-0.002542242407798767,-0.0032634844537824392
1761487009900992300,6.2459921875,-0.067596435546875,-0.0022623687982559204,-0.0026753637939691544
1761487009917804800,6.2628046875,-0.0631256103515625,-0.0022884011268615723,-0.007082152646034956
1761487009934643000,6.279642822265625,-0.06017303466796875,-0.0011647194623947144,-0.0077840895392000675
1761487009951468800,6.29646875,-0.06200122833251953,-0.0021330267190933228,-0.004841528367251158
1761487009968293000,6.313293212890625,-0.062277793884277344,0.0006365180015563965,-0.0021243831142783165
1761487009985099800,6.330099853515625,-0.06345653533935547,0.0033121258020401,-0.002835131250321865
1761487010001946600,6.346946533203125,-0.06071281433105469,-0.0020374655723571777,-0.0040626926347613335
1761487010018769400,6.363769287109375,-0.06029701232910156,-0.002919316291809082,-0.005965808406472206
1761487010035593200,6.38059326171875,-0.0631570816040039,-0.002410382032394409,-0.0033218897879123688
1761487010052404500,6.397404541015625,-0.05660724639892578,-0.0010980218648910522,-0.0017221644520759583
1761487010069243400,6.414243408203125,-0.058539390563964844,-0.0020612627267837524,0.0002572811208665371
1761487010086065400,6.4310654296875,-0.05883216857910156,0.0018453150987625122,-0.0013120168587192893
1761487010102898200,6.447898193359375,-0.06066131591796875,-0.0034114569425582886,-0.007998885586857796
1761487010119716000,6.464716064453125,-0.060288429260253906,-0.005410909652709961,-0.007824592292308807
1761487010136547800,6.4815478515625,-0.06608104705810547,-0.004521206021308899,-0.004491904750466347
1761487010153353000,6.49835302734375,-0.06175994873046875,-0.0014239102602005005,-0.0038704341277480125
1761487010170180600,6.5151806640625,-0.05525684356689453,0.0019448697566986084,-0.003106324467808008
1761487010187007000,6.532007080078125,-0.05947113037109375,-0.00457783043384552,0.000992409186437726
1761487010203830500,6.54883056640625,-0.06010913848876953,-0.004419177770614624,-0.004009074531495571
1761487010220642000,6.56564208984375,-0.057280540466308594,0.0002573728561401367,-0.001281142933294177
1761487010237484300,6.582484375,-0.05799102783203125,0.003983944654464722,-0.0022409954108297825
1761487010254294800,6.599294677734375,-0.0569610595703125,-0.006020009517669678,0.003774699755012989
1761487010271131000,6.616130859375,-0.06265068054199219,-0.004758104681968689,-0.003113130107522011
1761487010287957000,6.63295703125,-0.0594482421875,-0.0017359554767608643,-0.0012480845907703042
1761487010304775200,6.649775146484375,-0.060095787048339844,-0.004346117377281189,-0.00395306758582592
1761487010321607700,6.666607666015625,-0.05791950225830078,-0.005917489528656006,-0.0012928503565490246
1761487010338431000,6.683430908203125,-0.05872821807861328,-0.0031703561544418335,-0.0015299414517357945
1761487010355274800,6.700274658203125,-0.06697368621826172,-0.0004984140396118164,-0.0034022745676338673
1761487010372095200,6.71709521484375,-0.060097694396972656,0.0016355961561203003,-0.0029617780819535255
1761487010388921600,6.733921630859375,-0.06311702728271484,-0.0016522705554962158,0.0001853201538324356
1761487010405745200,6.7507451171875,-0.05837249755859375,-0.00046081840991973877,-0.0024273227900266647
1761487010422571500,6.767571533203125,-0.06171703338623047,-0.0061128586530685425,-0.005704660899937153
1761487010439393300,6.784393310546875,-0.06157493591308594,-0.004478529095649719,-0.0032992868218570948
1761487010456224500,6.801224609375,-0.0633382797241211,-0.0008370876312255859,-0.002585681853815913
1761487010473043000,6.81804296875,-0.06360626220703125,-0.0014184117317199707,-0.0052699255757033825
1761487010489871600,6.83487158203125,-0.06250762939453125,-0.0033868998289108276,-0.003903149627149105
1761487010506679600,6.851679443359375,-0.05535888671875,-0.00177861750125885,-0.0031306094024330378
1761487010523522000,6.86852197265625,-0.06418514251708984,-0.0026825517416000366,0.003180908504873514
1761487010540341800,6.885341796875,-0.060812950134277344,-0.0016282200813293457,-0.006096050143241882
1761487010557176300,6.90217626953125,-0.06614971160888672,-0.002621203660964966,-0.0031436090357601643
1761487010573979600,6.918979736328125,-0.06224632263183594,-0.0016349703073501587,-0.0029805016238242388
1761487010590798600,6.935798583984375,-0.06344318389892578,-0.0014816522598266602,-0.005973996594548225
1761487010607642000,6.95264208984375,-0.06362342834472656,-0.0025905370712280273,-0.0054086544550955296
1761487010624474600,6.969474609375,-0.0625143051147461,-0.0016178339719772339,-0.0064541008323431015
1761487010641278500,6.986278564453125,-0.05942344665527344,-0.003737807273864746,-0.005485703237354755
1761487010658112500,7.003112548828125,-0.058956146240234375,-0.007567226886749268,-0.0035166945308446884
1761487010674933000,7.01993310546875,-0.061809539794921875,-0.005221471190452576,-0.003291031811386347
1761487010691755800,7.036755859375,-0.060455322265625,-0.0018889158964157104,-0.01014408003538847
1761487010708583200,7.053583251953125,-0.057976722717285156,-0.0043076276779174805,-0.005378710106015205
1761487010725412900,7.070412841796875,-0.0634469985961914,-0.0035864561796188354,-0.004635943099856377
1761487010742233600,7.087233642578125,-0.06362438201904297,-0.00470443069934845,-0.006326357834041119
1761487010759059700,7.104059814453125,-0.05780601501464844,-0.0006940960884094238,-0.004615419544279575
1761487010775882200,7.12088232421875,-0.06390857696533203,0.001580759882926941,-0.004609457217156887
1761487010792698600,7.13769873046875,-0.06255912780761719,-0.002663448452949524,-0.006169515196233988
1761487010809533400,7.154533447265625,-0.059429168701171875,-0.0015875548124313354,-0.00756608322262764
1761487010826357200,7.171357177734375,-0.057168006896972656,-0.002598389983177185,-0.006598298437893391
1761487010843203800,7.188203857421875,-0.05861377716064453,-0.004521563649177551,-0.004786158446222544
1761487010860024300,7.2050244140625,-0.06289482116699219,-0.0007060617208480835,-0.007183453068137169
1761487010876847400,7.221847412109375,-0.055418968200683594,-0.004187688231468201,-0.002520281122997403
1761487010893679600,7.2386796875,-0.058349609375,-0.0007084757089614868,0.0013302287552505732
1761487010910475500,7.2554755859375,-0.05586814880371094,-0.006502598524093628,-0.004052609205245972
1761487010927329800,7.272329833984375,-0.057280540466308594,-0.0009904652833938599,-0.0030525773763656616
1761487010944142600,7.289142578125,-0.05863189697265625,0.0004848092794418335,-0.0025085730012506247
1761487010960978200,7.305978271484375,-0.05591011047363281,-0.005179166793823242,-0.005683411378413439
1761487010977782300,7.3227822265625,-0.05956268310546875,-0.0030487924814224243,-0.00024314108304679394
1761487010994625000,7.339625,-0.06011486053466797,-0.0015934854745864868,-0.00008688680827617645
1761487011011459300,7.356459228515625,-0.06377124786376953,-0.00028552114963531494,-0.0020072630140930414
1761487011028274400,7.3732744140625,-0.06253528594970703,0.0016032755374908447,-0.005281935445964336
1761487011045082000,7.39008203125,-0.06527233123779297,0.004819720983505249,-0.005728002637624741
1761487011061925000,7.406925048828125,-0.06211090087890625,-0.003513351082801819,-0.0031176141928881407
1761487011078748400,7.42374853515625,-0.062282562255859375,-0.004781663417816162,0.0011260656174272299
1761487011095574500,7.440574462890625,-0.05645942687988281,-0.0020608454942703247,-0.006405744701623917
1761487011112382500,7.457382568359375,-0.06370067596435547,-0.005721569061279297,-0.0005723698996007442
1761487011129208300,7.474208251953125,-0.070648193359375,-0.0021188855171203613,-0.005131923593580723
1761487011146032000,7.4910322265625,-0.05707740783691406,-0.004552051424980164,-0.002099917735904455
1761487011162864600,7.50786474609375,-0.0637960433959961,-0.001991584897041321,-0.003937424626201391
1761487011179689000,7.52468896484375,-0.06075000762939453,-0.0005211681127548218,-0.0059602949768304825
1761487011196496000,7.541495849609375,-0.06142902374267578,-0.005433261394500732,0.003707537427544594
1761487011213327000,7.5583271484375,-0.06331634521484375,-0.0021437257528305054,-0.0029802382923662663
1761487011230175500,7.575175537109375,-0.06360244750976562,-0.0016514360904693604,0.0011322109494358301
1761487011246983000,7.59198291015625,-0.06250667572021484,-0.0034301429986953735,-0.00636715441942215
1761487011263815400,7.6088154296875,-0.06055259704589844,0.0020866841077804565,-0.006372949108481407
1761487011280616000,7.625615966796875,-0.06025505065917969,-0.005292221903800964,-0.002329271985217929
1761487011297462000,7.6424619140625,-0.06427192687988281,-0.00233246386051178,-0.006771432235836983
1761487011314286300,7.659286376953125,-0.05854320526123047,0.002154722809791565,-0.0028306725434958935
1761487011331115800,7.67611572265625,-0.06287765502929688,-0.005129829049110413,-0.002754142740741372
1761487011347936000,7.69293603515625,-0.06060981750488281,-0.003329828381538391,-0.0026552355848252773
1761487011364776000,7.70977587890625,-0.06497669219970703,-0.0037050843238830566,-0.007320402655750513
1761487011381600500,7.7266005859375,-0.06271553039550781,-0.0007915496826171875,-0.0015541041502729058
1761487011398424000,7.743424072265625,-0.05538749694824219,0.0026061981916427612,-0.002431950531899929
1761487011415253000,7.7602529296875,-0.052490234375,-0.0010444670915603638,-0.003622063435614109
1761487011432076800,7.777076904296875,-0.0567626953125,0.0024752765893936157,0.0006379898404702544
1761487011448884500,7.793884521484375,-0.06147480010986328,-0.0038174688816070557,-0.003113547805696726
1761487011465726700,7.810726806640625,-0.05812644958496094,-0.0006855428218841553,-0.003651645267382264
1761487011482550500,7.827550537109375,-0.05469226837158203,-0.00038057565689086914,-0.0025707518216222525
1761487011499379000,7.84437890625,-0.05823326110839844,-0.003251492977142334,-0.004162521101534367
1761487011516199000,7.861198974609375,-0.05584716796875,-0.0030015259981155396,0.0013629664899781346
1761487011533027000,7.878027099609375,-0.05841064453125,-0.002923905849456787,-0.0011732365237548947
1761487011549847000,7.894846923828125,-0.05879688262939453,0.005131334066390991,0.001773779047653079
1761487011566681600,7.911681640625,-0.06112957000732422,0.002289414405822754,-0.001899970811791718
1761487011583501000,7.9285009765625,-0.06440925598144531,-0.0009723752737045288,0.00045720627531409264
1761487011600310800,7.945310791015625,-0.06262969970703125,-0.0003533363342285156,0.005212710238993168
1761487011617120500,7.96212060546875,-0.06235790252685547,-0.0003574788570404053,0.006094296462833881
1761487011633977000,7.97897705078125,-0.059395790100097656,-0.0014260858297348022,-0.004156019072979689
1761487011650791000,7.995791015625,-0.05602073669433594,-0.0045593976974487305,-0.002856058068573475
1761487011667611100,8.012611083984375,-0.06249427795410156,0.0018543004989624023,-0.0006916307611390948
1761487011684437500,8.0294375,-0.059411048889160156,0.0016813725233078003,-0.0053832861594855785
1761487011701267500,8.046267333984375,-0.06252002716064453,-0.004129931330680847,-0.007215342950075865
1761487011718105300,8.063105224609375,-0.062338829040527344,-0.002158254384994507,0.0012564859353005886
1761487011734908000,8.079907958984375,-0.06052589416503906,-0.0000632554292678833,0.0008282555500045419
1761487011751741400,8.096741455078124,-0.05619049072265625,-0.004440799355506897,-0.00031102553475648165
1761487011768564500,8.113564453125,-0.05959510803222656,-0.009191304445266724,-0.003388645127415657
1761487011785388500,8.130388427734376,-0.060759544372558594,-0.0029079169034957886,-0.0004731671651825309
1761487011802216400,8.147216552734376,-0.06321048736572266,-0.0037312209606170654,-0.005151768680661917
1761487011819037000,8.164036865234374,-0.05951976776123047,-0.003258123993873596,-0.0031388704665005207
1761487011835882000,8.180882080078124,-0.05896282196044922,-0.0008448809385299683,-0.005662171635776758
1761487011852702500,8.197702392578124,-0.064727783203125,-0.004490286111831665,-0.0061204154044389725
1761487011869526300,8.2145263671875,-0.06559944152832031,-0.003300994634628296,0.0040588295087218285
1761487011886355500,8.23135546875,-0.06280326843261719,-0.006171077489852905,-0.002804790623486042
1761487011903184100,8.24818408203125,-0.05832195281982422,0.0016418099403381348,0.001678122323937714
1761487011919999700,8.264999755859375,-0.06283855438232422,0.0003881305456161499,-0.0017742215422913432
1761487011936803800,8.281803955078125,-0.05945873260498047,-0.002797931432723999,-0.002570775104686618
1761487011953652700,8.29865283203125,-0.058948516845703125,-0.005034998059272766,0.0001924688694998622
1761487011970479600,8.315479736328125,-0.05594825744628906,-0.005307495594024658,-0.0034666380379348993
1761487011987303200,8.33230322265625,-0.0665435791015625,-0.003464147448539734,-0.005361415445804596
1761487012004124400,8.34912451171875,-0.0658721923828125,-0.0009245574474334717,-0.003048920538276434
1761487012020953000,8.365953125,-0.052936553955078125,-0.0016735643148422241,-0.006921279709786177
1761487012037780200,8.3827802734375,-0.062026023864746094,-0.00588659942150116,-0.002177752321586013
1761487012054603300,8.399603271484375,-0.06746196746826172,0.00046631693840026855,-0.0023256081622093916
1761487012071415800,8.416415771484376,-0.05837535858154297,-0.002621173858642578,-0.003808735404163599
1761487012088253700,8.433253662109376,-0.05992698669433594,-0.0030267536640167236,-0.0007524935062974691
1761487012105062400,8.4500625,-0.05723857879638672,-0.0007198452949523926,-0.0023744129575788975
1761487012121887000,8.466886962890625,-0.056832313537597656,-0.002698943018913269,-0.006740069482475519
1761487012138719700,8.4837197265625,-0.058556556701660156,-0.0007157772779464722,-0.0014889976009726524
1761487012155536400,8.500536376953125,-0.05881690979003906,-0.0015684068202972412,-0.0037000395823270082
1761487012172370000,8.517369873046874,-0.0658416748046875,-0.0017039775848388672,0.004063837230205536
1761487012189190400,8.5341904296875,-0.06804370880126953,-0.0057280659675598145,0.001354741514660418
1761487012206034000,8.551033935546876,-0.06317806243896484,-0.005209252238273621,0.0008917617378756404
1761487012222836700,8.567836669921874,-0.06650543212890625,-0.005012571811676025,0.0024370390456169844
1761487012239666700,8.584666748046875,-0.061806678771972656,-0.003351271152496338,-0.008473261259496212
1761487012256490800,8.60149072265625,-0.060446739196777344,-0.001981079578399658,-0.005170799791812897
1761487012273316900,8.61831689453125,-0.06023979187011719,-0.0018138736486434937,-0.002954744268208742
1761487012290140700,8.635140625,-0.05842018127441406,-0.0006611794233322144,-0.0014436750207096338
1761487012306963700,8.651963623046875,-0.058793067932128906,0.0012308955192565918,-0.0007870811969041824
1761487012323811300,8.668811279296875,-0.061776161193847656,0.002747833728790283,0.000484084477648139
1761487012340626700,8.685626708984374,-0.062229156494140625,0.00007236003875732422,-0.006325079128146172
1761487012357454600,8.70245458984375,-0.057587623596191406,-0.004338204860687256,0.0006887537892907858
1761487012374285000,8.71928515625,-0.05282402038574219,-0.004965111613273621,-0.0023192025255411863
1761487012391087900,8.736087890625,-0.06201457977294922,-0.0032670795917510986,-0.0009094220586121082
1761487012407931600,8.752931640625,-0.06632614135742188,-0.0019146203994750977,0.0025993348099291325
1761487012424751400,8.76975146484375,-0.05999565124511719,0.0024093687534332275,-0.004839239176362753
1761487012441585000,8.7865849609375,-0.06537151336669922,-0.0010975748300552368,0.00014397210907191038
1761487012458388500,8.803388427734374,-0.06098461151123047,-0.0005382895469665527,-0.0010726440232247114
1761487012475232000,8.82023193359375,-0.05625724792480469,-0.003941893577575684,-0.004146520048379898
1761487012492055600,8.8370556640625,-0.0625295639038086,-0.003242179751396179,-0.0005306532839313149
1761487012508881400,8.85388134765625,-0.06055736541748047,-0.0018969178199768066,-0.0033188252709805965
1761487012525709000,8.870708984375,-0.06496906280517578,0.001211509108543396,-0.00043816398829221725
1761487012542507500,8.887507568359375,-0.060924530029296875,0.0016285628080368042,-0.0010458275210112333
1761487012559359700,8.90435986328125,-0.06209754943847656,-0.004208371043205261,0.002893672324717045
1761487012576182300,8.921182373046875,-0.06048870086669922,-0.003954902291297913,-0.003558146068826318
1761487012592988700,8.93798876953125,-0.06495380401611328,-0.002243325114250183,-0.0027085808105766773
1761487012609815300,8.954815185546876,-0.056860923767089844,-0.001811206340789795,-0.0025057094171643257
1761487012626645500,8.9716455078125,-0.058559417724609375,0.002268776297569275,0.00030797626823186874
1761487012643468800,8.98846875,-0.05881690979003906,-0.0011876970529556274,0.000825969036668539
1761487012660292400,9.005292236328126,-0.059993743896484375,-0.001672700047492981,-0.002053653122857213
1761487012677119000,9.022118896484375,-0.06423377990722656,-0.002850934863090515,-0.0013226515147835016
1761487012693959700,9.038959716796874,-0.057890892028808594,-0.004766300320625305,-0.00010456738527864218
1761487012710765800,9.055765869140625,-0.05871772766113281,-0.0003590434789657593,-0.0061633349396288395
1761487012727592700,9.0725927734375,-0.06111621856689453,-0.00038982927799224854,-0.009830842725932598
1761487012744418300,9.089418212890624,-0.06213092803955078,-0.007299453020095825,-0.002871786244213581
1761487012761242400,9.106242431640625,-0.06455802917480469,-0.005425974726676941,-0.0025445243809372187
1761487012778070000,9.123070068359375,-0.05680370330810547,-0.002176135778427124,-0.0024556650314480066
1761487012794884600,9.139884521484374,-0.06082725524902344,-0.0006210654973983765,-0.0011402032105252147
1761487012811723500,9.1567236328125,-0.060298919677734375,-0.0015659034252166748,0.0006175473099574447
1761487012828556800,9.173556884765626,-0.06021881103515625,0.0012084543704986572,0.0019510018173605204
1761487012845383400,9.190383544921875,-0.06199073791503906,-0.00022457540035247803,-0.001969778910279274
1761487012862207000,9.20720703125,-0.0604705810546875,0.002418413758277893,-0.002573410514742136
1761487012879033600,9.22403369140625,-0.059103965759277344,0.0017265528440475464,-0.0005858880467712879
1761487012895857000,9.24085693359375,-0.060683250427246094,-0.0024328529834747314,-0.004949096590280533
1761487012912679400,9.257679443359375,-0.06726360321044922,-0.0017715394496917725,-0.002468300051987171
1761487012929511200,9.27451123046875,-0.06305885314941406,-0.004652559757232666,0.00018278334755450487
1761487012946318800,9.29131884765625,-0.060637474060058594,0.0008196979761123657,-0.00437149778008461
1761487012963161300,9.308161376953125,-0.05621051788330078,-0.00010232627391815186,-0.00696198595687747
1761487012979999000,9.3249990234375,-0.058463096618652344,-0.0025802254676818848,-0.004400485195219517
1761487012996821800,9.34182177734375,-0.06985282897949219,-0.0017548799514770508,-0.006589294411242008
1761487013013641700,9.358641845703126,-0.0645904541015625,-0.0016407668590545654,-0.001955932704731822
1761487013030450400,9.375450439453125,-0.05972862243652344,0.0011288374662399292,-0.005301093216985464
1761487013047274800,9.392274658203124,-0.06191539764404297,-0.00433349609375,-0.0029080514796078205
1761487013064107800,9.409107666015625,-0.0633840560913086,-0.0051583051681518555,0.00040314754005521536
1761487013080917000,9.4259169921875,-0.06360530853271484,-0.0006385445594787598,-0.00095986551605165
1761487013097744100,9.442744140625,-0.06250190734863281,-0.0057228803634643555,-0.0038961416576057673
1761487013114570500,9.459570556640625,-0.056847572326660156,-0.016261667013168335,-0.027363674715161324
1761487013131385600,9.476385498046875,-0.06197643280029297,-0.009709641337394714,-0.026257626712322235
1761487013148221000,9.493220947265625,-0.05752849578857422,-0.008924484252929688,-0.016621263697743416
1761487013165044200,9.510044189453126,-0.06448554992675781,-0.00264585018157959,-0.002501371782273054
1761487013181871000,9.52687109375,-0.06260871887207031,0.006174936890602112,0.009986030869185925
1761487013198705200,9.543705078125,-0.061954498291015625,0.01028384268283844,0.028066076338291168
