time,seconds_elapsed,z,y,x
1761484839713929700,0.1509296875,0,0.001527163083665073,0.0013744467869400978
1761484839730409500,0.167409423828125,0,-0.001527163083665073,-0.0007635815418325365
1761484839747137500,0.184137451171875,0,0.00045814894838258624,0.00015271631127689034
1761484839763968000,0.200968017578125,0,-0.00045814894838258624,0.0012217304902151227
1761484839780805400,0.217805419921875,0.00015271631127689034,0.00015271631127689034,-0.00015271631127689034
1761484839797631200,0.23463134765625,0,-0.00015271631127689034,0.00015271631127689034
1761484839814439200,0.251439208984375,0,0.0003054326225537807,-0.0007635815418325365
1761484839831282000,0.268281982421875,0,-0.00045814894838258624,0
1761484839848107000,0.28510693359375,-0.0003054326225537807,0,0
1761484839864933000,0.30193310546875,0,0.0009162978967651725,0.00015271631127689034
1761484839881758200,0.31875830078125,0,-0.0009162978967651725,0
1761484839898584000,0.335583984375,-0.0006108652451075613,0.00015271631127689034,0
1761484839915409400,0.352409423828125,-0.0003054326225537807,0.0009162978967651725,-0.0003054326225537807
1761484839932235300,0.3692353515625,0,0.00015271631127689034,0.00045814894838258624
1761484839949043500,0.38604345703125,-0.00015271631127689034,0.00015271631127689034,0.0009162978967651725
1761484839965879600,0.402879638671875,0,0.0003054326225537807,-0.00015271631127689034
1761484839982704400,0.419704345703125,0,0.0003054326225537807,0.00015271631127689034
1761484839999558700,0.43655859375,0,0.0019853119738399982,0.0009162978967651725
1761484840016361700,0.45336181640625,0,0.00015271631127689034,0.0007635815418325365
1761484840033184500,0.4701845703125,0,0.0006108652451075613,-0.0010690141934901476
1761484840050016000,0.48701611328125,-0.0007635815418325365,-0.0009162978967651725,-0.0009162978967651725
1761484840066838800,0.5038388671875,-0.00015271631127689034,0.0010690141934901476,0
1761484840083642600,0.520642578125,0,0,0.00015271631127689034
1761484840100462800,0.537462890625,0,-0.00015271631127689034,-0.0003054326225537807
1761484840117310700,0.554310791015625,-0.00015271631127689034,-0.00045814894838258624,0.0010690141934901476
1761484840134144500,0.57114453125,0,0.0013744467869400978,0
1761484840150966000,0.587966064453125,0,-0.00045814894838258624,0.00015271631127689034
1761484840167791400,0.604791259765625,0.0003054326225537807,-0.0009162978967651725,0.00045814894838258624
1761484840184573400,0.621573486328125,0,0.00015271631127689034,0.0003054326225537807
1761484840201451000,0.638450927734375,0,0,-0.0010690141934901476
1761484840218267400,0.655267333984375,0,-0.00045814894838258624,-0.0006108652451075613
1761484840235074800,0.67207470703125,0.0007635815418325365,0.00015271631127689034,-0.0009162978967651725
1761484840251903000,0.688903076171875,-0.0003054326225537807,0.00015271631127689034,0.00015271631127689034
1761484840268732700,0.705732666015625,-0.0003054326225537807,-0.0009162978967651725,0.0010690141934901476
1761484840285556000,0.722555908203125,-0.00015271631127689034,-0.00015271631127689034,0.00015271631127689034
1761484840302381600,0.739381591796875,0.0003054326225537807,-0.0009162978967651725,0.0007635815418325365
1761484840319207000,0.75620703125,0,0.00015271631127689034,0.00015271631127689034
1761484840336032800,0.77303271484375,0,0,-0.0003054326225537807
1761484840352857900,0.78985791015625,0,0.0003054326225537807,-0.0009162978967651725
1761484840369700400,0.806700439453125,0,-0.00015271631127689034,0.0009162978967651725
1761484840386522600,0.823522705078125,0,-0.00015271631127689034,-0.0006108652451075613
1761484840403344000,0.84034375,0,-0.0007635815418325365,-0.0006108652451075613
1761484840420178000,0.857177978515625,0.0007635815418325365,0.0003054326225537807,0
1761484840437019000,0.874018798828125,0,0.0010690141934901476,-0.0003054326225537807
1761484840453826000,0.890825927734375,0,0.00015271631127689034,0.00015271631127689034
1761484840470649000,0.907649169921875,-0.00015271631127689034,0.0003054326225537807,-0.00015271631127689034
1761484840487461600,0.924461669921875,0,0.00015271631127689034,0.00045814894838258624
1761484840504306200,0.94130615234375,0.0006108652451075613,0.0010690141934901476,0.00015271631127689034
1761484840521123800,0.958123779296875,-0.0007635815418325365,-0.00045814894838258624,0.0003054326225537807
1761484840537952500,0.974952392578125,0,0.00015271631127689034,-0.0007635815418325365
1761484840554775000,0.991775146484375,0,-0.0013744467869400978,-0.0003054326225537807
1761484840571605200,1.008605224609375,0,0,0.00015271631127689034
1761484840588407600,1.025407470703125,0,0.0006108652451075613,-0.0003054326225537807
1761484840605254400,1.04225439453125,-0.0003054326225537807,0.00015271631127689034,0.00015271631127689034
1761484840622083300,1.059083251953125,0,0.0006108652451075613,0.00015271631127689034
1761484840638892000,1.07589208984375,-0.0003054326225537807,0.0009162978967651725,0
1761484840655730700,1.092730712890625,-0.0003054326225537807,0.0003054326225537807,-0.0007635815418325365
1761484840672556000,1.10955615234375,0,-0.0006108652451075613,-0.0007635815418325365
1761484840689378300,1.12637841796875,-0.0007635815418325365,-0.00045814894838258624,0.0007635815418325365
1761484840706205400,1.143205322265625,-0.00015271631127689034,0.0003054326225537807,0.00015271631127689034
1761484840723019500,1.16001953125,0,0.0010690141934901476,-0.0006108652451075613
1761484840739844400,1.17684423828125,0,0.0006108652451075613,0.00015271631127689034
1761484840756668000,1.19366796875,0,-0.0003054326225537807,0.0003054326225537807
1761484840773496600,1.21049658203125,0.00015271631127689034,0.00015271631127689034,0.0003054326225537807
1761484840790298600,1.227298583984375,0,-0.0003054326225537807,0.0010690141934901476
1761484840807146200,1.244146240234375,-0.00045814894838258624,0.00045814894838258624,0.0012217304902151227
1761484840823971300,1.260971435546875,0,-0.0009162978967651725,-0.00045814894838258624
1761484840840797000,1.277796875,0.0003054326225537807,0.0009162978967651725,-0.0007635815418325365
1761484840857642000,1.29464208984375,0,0.0009162978967651725,-0.00015271631127689034
1761484840874442500,1.3114423828125,0,0.0003054326225537807,0.00015271631127689034
1761484840891286800,1.328286865234375,0,0.00015271631127689034,-0.00015271631127689034
1761484840908110800,1.34511083984375,0,0.00045814894838258624,0
1761484840924938000,1.36193798828125,0,-0.0009162978967651725,0
1761484840941762800,1.3787626953125,0,0,-0.00015271631127689034
1761484840958590000,1.39558984375,0,-0.0007635815418325365,0
1761484840975414300,1.412414306640625,0,-0.0007635815418325365,0.00015271631127689034
1761484840992237000,1.429237060546875,-0.0006108652451075613,0,-0.00015271631127689034
1761484841009061000,1.44606103515625,0,-0.0009162978967651725,0.00015271631127689034
1761484841025898800,1.462898681640625,-0.0007635815418325365,0.00931569468230009,0.0003054326225537807
1761484841042712600,1.479712646484375,-0.00045814894838258624,0,0
1761484841059545000,1.496545166015625,-0.0003054326225537807,-0.0025961773935705423,0.00045814894838258624
1761484841076367600,1.51336767578125,0,-0.0027488935738801956,-0.0006108652451075613
1761484841093192400,1.5301923828125,0.0007635815418325365,-0.004428773187100887,-0.001527163083665073
1761484841110006300,1.54700634765625,0.0003054326225537807,0.0027488935738801956,0.0003054326225537807
1761484841126845400,1.563845458984375,0.00015271631127689034,-0.0022907445672899485,-0.0013744467869400978
1761484841143651300,1.5806513671875,0,0.002138028386980295,0.0003054326225537807
1761484841160489700,1.59748974609375,0.0003054326225537807,-0.001679879380390048,0.0003054326225537807
1761484841177322200,1.614322265625,0,0.001527163083665073,-0.0003054326225537807
1761484841194149000,1.631149169921875,-0.00015271631127689034,-0.00045814894838258624,0
1761484841210954500,1.64795458984375,-0.0007635815418325365,0,-0.0007635815418325365
1761484841227783000,1.664782958984375,0.0003054326225537807,0.0003054326225537807,-0.0003054326225537807
1761484841244608500,1.6816083984375,0,0,0
1761484841261434000,1.69843408203125,0,0.0009162978967651725,0.00015271631127689034
1761484841278259700,1.715259765625,0,-0.00015271631127689034,0
1761484841295084500,1.73208447265625,0,0.0003054326225537807,0.0003054326225537807
1761484841311910400,1.748910400390625,-0.00015271631127689034,0,-0.0009162978967651725
1761484841328733000,1.76573291015625,0,-0.00015271631127689034,0.0010690141934901476
1761484841345552000,1.7825517578125,0,-0.0006108652451075613,-0.00015271631127689034
1761484841362398200,1.799398193359375,-0.0003054326225537807,0,-0.0003054326225537807
1761484841379226000,1.81622607421875,-0.00015271631127689034,0,0.0003054326225537807
1761484841396038100,1.8330380859375,-0.0007635815418325365,0.00045814894838258624,-0.0007635815418325365
1761484841412860400,1.8498603515625,0.00015271631127689034,-0.00045814894838258624,0.00015271631127689034
1761484841429702100,1.8667021484375,-0.0007635815418325365,-0.00015271631127689034,0
1761484841446525700,1.883525634765625,-0.0003054326225537807,-0.00015271631127689034,-0.0003054326225537807
1761484841463355400,1.90035546875,0,-0.00015271631127689034,0
1761484841480179200,1.91717919921875,-0.0003054326225537807,0.00015271631127689034,-0.00015271631127689034
1761484841497004000,1.934004150390625,-0.0007635815418325365,-0.0009162978967651725,-0.0013744467869400978
1761484841513830100,1.950830078125,0,-0.0006108652451075613,0.0003054326225537807
1761484841530664200,1.967664306640625,0.00015271631127689034,-0.00015271631127689034,0.00015271631127689034
1761484841547480800,1.984480712890625,0,0.00015271631127689034,0.00015271631127689034
1761484841564306400,2.001306396484375,0,0.00015271631127689034,0.00015271631127689034
1761484841581111600,2.018111572265625,0,0.0010690141934901476,-0.00015271631127689034
1761484841597935900,2.034935791015625,0.0007635815418325365,0.00015271631127689034,-0.0009162978967651725
1761484841614778600,2.051778564453125,0,-0.00045814894838258624,0.00015271631127689034
1761484841631612200,2.068612060546875,0,0.00015271631127689034,-0.0009162978967651725
1761484841648427300,2.08542724609375,0,-0.0012217304902151227,0
1761484841665259500,2.102259521484375,0.0010690141934901476,-0.001679879380390048,0.00015271631127689034
1761484841682075000,2.119074951171875,0,0.00015271631127689034,0.00015271631127689034
1761484841698892000,2.13589208984375,0,-0.0003054326225537807,0.0003054326225537807
1761484841715723000,2.152722900390625,0,-0.0007635815418325365,-0.00015271631127689034
1761484841732547300,2.16954736328125,0,0.0003054326225537807,-0.00045814894838258624
1761484841749373000,2.186373046875,-0.00015271631127689034,0,-0.0009162978967651725
1761484841766195000,2.20319482421875,0,0.00015271631127689034,-0.00015271631127689034
1761484841783020500,2.2200205078125,0,0.00015271631127689034,0.0009162978967651725
1761484841799832000,2.23683203125,-0.0007635815418325365,0,-0.00015271631127689034
1761484841816671700,2.253671630859375,0,-0.00015271631127689034,0.00015271631127689034
1761484841833503000,2.2705029296875,0,-0.0012217304902151227,-0.00045814894838258624
1761484841850339300,2.28733935546875,0.00015271631127689034,-0.0007635815418325365,0.00015271631127689034
1761484841867153700,2.304153564453125,0,-0.0006108652451075613,0
1761484841883990500,2.320990478515625,0,-0.00015271631127689034,-0.0006108652451075613
1761484841900797400,2.33779736328125,0.0007635815418325365,0.0009162978967651725,-0.0006108652451075613
1761484841917636600,2.35463671875,0,0.00015271631127689034,0.0007635815418325365
1761484841934466600,2.371466552734375,0,0.0006108652451075613,0
1761484841951292400,2.38829248046875,0.00015271631127689034,-0.0006108652451075613,0.00015271631127689034
1761484841968122000,2.4051220703125,0,0.00015271631127689034,-0.0007635815418325365
1761484841984938500,2.4219384765625,-0.0003054326225537807,-0.0009162978967651725,0.00015271631127689034
1761484842001768700,2.438768798828125,0,0.00015271631127689034,-0.0007635815418325365
1761484842018590500,2.455590576171875,0,-0.0010690141934901476,0
1761484842035410200,2.47241015625,0,0.00015271631127689034,0.00015271631127689034
1761484842052245200,2.489245361328125,0,0.00015271631127689034,0.00015271631127689034
1761484842069074200,2.50607421875,-0.0007635815418325365,0.0003054326225537807,0.00015271631127689034
1761484842085892900,2.522892822265625,0.00015271631127689034,-0.0009162978967651725,-0.0007635815418325365
1761484842102721500,2.539721435546875,0,0.0003054326225537807,0.00045814894838258624
1761484842119547400,2.55654736328125,-0.00015271631127689034,0.0003054326225537807,0.0003054326225537807
1761484842136372200,2.573372314453125,0,-0.00045814894838258624,-0.0009162978967651725
1761484842153194200,2.5901943359375,0,0.00015271631127689034,-0.00015271631127689034
1761484842170028000,2.607028076171875,0,0.00045814894838258624,-0.0007635815418325365
1761484842186831600,2.62383154296875,0,0.0003054326225537807,0
1761484842203660500,2.64066064453125,0,-0.00045814894838258624,0.00045814894838258624
1761484842220486400,2.657486328125,0,0.00015271631127689034,0.00015271631127689034
1761484842237311500,2.6743115234375,-0.0003054326225537807,-0.00015271631127689034,-0.0003054326225537807
1761484842254139000,2.691138916015625,-0.00015271631127689034,0.0006108652451075613,-0.0006108652451075613
1761484842270962700,2.707962646484375,-0.0003054326225537807,0.00045814894838258624,-0.0003054326225537807
1761484842287777000,2.724777099609375,0,-0.0009162978967651725,0.00015271631127689034
1761484842304613600,2.741613525390625,-0.00045814894838258624,-0.00015271631127689034,0.00045814894838258624
1761484842321434400,2.758434326171875,-0.0003054326225537807,0.00015271631127689034,-0.00015271631127689034
1761484842338282000,2.775281982421875,0,0.0007635815418325365,0.00015271631127689034
1761484842355100000,2.792099853515625,0,0.0003054326225537807,0
1761484842371933000,2.808932861328125,-0.00015271631127689034,0.0006108652451075613,-0.00015271631127689034
1761484842388755000,2.8257548828125,0,0.0010690141934901476,0.00015271631127689034
1761484842405576200,2.842576171875,0,0.0003054326225537807,0.00045814894838258624
1761484842422410000,2.859409912109375,0.0007635815418325365,0.00015271631127689034,-0.00015271631127689034
1761484842439231000,2.87623095703125,-0.0006108652451075613,0.00015271631127689034,0
1761484842456056800,2.893056884765625,0.00015271631127689034,0.0009162978967651725,-0.0009162978967651725
1761484842472882000,2.9098818359375,0.00015271631127689034,0,0
1761484842489698800,2.92669873046875,0,-0.00045814894838258624,-0.0013744467869400978
1761484842506532900,2.943532958984375,0,-0.0012217304902151227,0.00045814894838258624
1761484842523358500,2.9603583984375,0,-0.00015271631127689034,0.00015271631127689034
1761484842540183800,2.977183837890625,-0.0006108652451075613,-0.0007635815418325365,0.0009162978967651725
1761484842557010000,2.994010009765625,-0.001679879380390048,0.00015271631127689034,0.0006108652451075613
1761484842573854500,3.0108544921875,0,-0.0007635815418325365,-0.00015271631127689034
1761484842590654200,3.027654296875,-0.00045814894838258624,0.00015271631127689034,0.0010690141934901476
1761484842607492000,3.0444921875,0,-0.00045814894838258624,0
1761484842624308700,3.061308837890625,-0.0006108652451075613,-0.00015271631127689034,-0.00045814894838258624
1761484842641132500,3.078132568359375,-0.0003054326225537807,-0.00045814894838258624,-0.00045814894838258624
1761484842657965800,3.0949658203125,0,0.0007635815418325365,0
1761484842674771500,3.111771484375,0,0,0.0003054326225537807
1761484842691598800,3.128598876953125,0,-0.0009162978967651725,-0.0006108652451075613
1761484842708424700,3.1454248046875,-0.00015271631127689034,-0.0003054326225537807,-0.00045814894838258624
1761484842725250300,3.162250244140625,-0.0003054326225537807,0.0010690141934901476,0.00015271631127689034
1761484842742076000,3.179075927734375,0,-0.00045814894838258624,0.0009162978967651725
1761484842758901500,3.195901611328125,0.00015271631127689034,0.00015271631127689034,0.00015271631127689034
1761484842775709200,3.212709228515625,0.0003054326225537807,0.0006108652451075613,0
1761484842792551200,3.22955126953125,0,-0.00015271631127689034,-0.00015271631127689034
1761484842809378800,3.24637890625,-0.0007635815418325365,0.0006108652451075613,0.00015271631127689034
1761484842826220500,3.263220458984375,0,-0.00015271631127689034,-0.0006108652451075613
1761484842843026000,3.28002587890625,0,0.0003054326225537807,0.00045814894838258624
1761484842859863600,3.296863525390625,-0.00015271631127689034,-0.00015271631127689034,-0.00045814894838258624
1761484842876697300,3.313697265625,-0.00015271631127689034,-0.0009162978967651725,0.0009162978967651725
1761484842893518800,3.330518798828125,0.0003054326225537807,0.002138028386980295,0.0009162978967651725
1761484842910340400,3.34734033203125,0,0.003054326167330146,0.0007635815418325365
1761484842927173600,3.364173583984375,0,0.00366519158706069,0
1761484842943975200,3.38097509765625,-0.00015271631127689034,-0.00015271631127689034,0.0009162978967651725
1761484842960804000,3.39780419921875,0,0.0019853119738399982,0.0003054326225537807
1761484842977629700,3.414629638671875,0,-0.003512475173920393,-0.0007635815418325365
1761484842994471000,3.431470947265625,-0.0003054326225537807,-0.003817907767370343,-0.0009162978967651725
1761484843011296800,3.448296875,0.0003054326225537807,0.0010690141934901476,0
1761484843028120300,3.465120361328125,0,-0.00045814894838258624,0.00015271631127689034
1761484843044951300,3.481951416015625,0,0.0006108652451075613,-0.00015271631127689034
1761484843061773600,3.498773681640625,0,-0.0010690141934901476,0.0006108652451075613
1761484843078599700,3.515599609375,0,-0.0003054326225537807,-0.0009162978967651725
1761484843095424500,3.532424560546875,-0.0009162978967651725,0.0007635815418325365,-0.00015271631127689034
1761484843112250000,3.54925,-0.0007635815418325365,0.00015271631127689034,0.0006108652451075613
1761484843129075700,3.56607568359375,0,0.00015271631127689034,0.0003054326225537807
1761484843145901000,3.582901123046875,0,-0.00015271631127689034,-0.0009162978967651725
1761484843162712000,3.599712158203125,0,0.0003054326225537807,0.00015271631127689034
1761484843179532500,3.616532470703125,-0.00015271631127689034,0.00015271631127689034,-0.00015271631127689034
1761484843196354000,3.63335400390625,0,0.0006108652451075613,0.00045814894838258624
1761484843213189000,3.650189208984375,0,0.0009162978967651725,0.00015271631127689034
1761484843230015000,3.667014892578125,-0.0006108652451075613,0.0003054326225537807,-0.0009162978967651725
1761484843246839600,3.683839599609375,0,0.0009162978967651725,-0.0003054326225537807
1761484843263650600,3.700650634765625,0,-0.00015271631127689034,0.0009162978967651725
1761484843280491000,3.717490966796875,0,-0.0007635815418325365,0.00015271631127689034
1761484843297316900,3.73431689453125,0,0.00015271631127689034,0.00015271631127689034
1761484843314145000,3.75114501953125,0,-0.00045814894838258624,0.00015271631127689034
1761484843330964700,3.76796484375,0,0.0003054326225537807,-0.00015271631127689034
1761484843347806700,3.784806640625,0.00015271631127689034,-0.00045814894838258624,0
1761484843364632300,3.80163232421875,-0.00015271631127689034,-0.0006108652451075613,-0.0003054326225537807
1761484843381457700,3.818457763671875,0,0.00045814894838258624,0.00015271631127689034
1761484843398282800,3.83528271484375,0,0.00015271631127689034,0.00045814894838258624
1761484843415103200,3.852103271484375,0,0,0
1761484843431939600,3.868939697265625,0,-0.00015271631127689034,0.00015271631127689034
1761484843448759300,3.88575927734375,0,0.00015271631127689034,0.0003054326225537807
1761484843465585000,3.9025849609375,0.0003054326225537807,-0.0006108652451075613,0.0003054326225537807
1761484843482410200,3.91941015625,0.00015271631127689034,0.0012217304902151227,0.00015271631127689034
1761484843499236400,3.936236328125,0.0007635815418325365,-0.00015271631127689034,0.00045814894838258624
1761484843516062000,3.95306201171875,0,0.0003054326225537807,0.00015271631127689034
1761484843532886500,3.969886474609375,0,-0.001527163083665073,0.0003054326225537807
1761484843549699600,3.986699462890625,0,0,0.00015271631127689034
1761484843566531800,4.00353173828125,0,0.00045814894838258624,0.0003054326225537807
1761484843583367200,4.0203671875,-0.00015271631127689034,-0.00045814894838258624,0.00015271631127689034
1761484843600159500,4.037159423828125,0,0,0.00015271631127689034
1761484843617014000,4.054013916015625,-0.0007635815418325365,0.0009162978967651725,0.0003054326225537807
1761484843633840000,4.070840087890625,-0.0003054326225537807,0.00015271631127689034,-0.00015271631127689034
1761484843650651100,4.087651123046875,-0.0003054326225537807,-0.00015271631127689034,-0.0007635815418325365
1761484843667472000,4.104471923828125,-0.0009162978967651725,0.00015271631127689034,0
1761484843684298200,4.12129833984375,0,0,0.00015271631127689034
1761484843701128200,4.138128173828125,0,-0.0007635815418325365,0.0009162978967651725
1761484843717953000,4.154953125,0.00015271631127689034,-0.00045814894838258624,0.0012217304902151227
1761484843734778600,4.171778564453125,0.00015271631127689034,0.00015271631127689034,-0.0007635815418325365
1761484843751604000,4.18860400390625,0.00015271631127689034,-0.00015271631127689034,-0.0003054326225537807
1761484843768430000,4.20543017578125,0.00015271631127689034,0.0003054326225537807,-0.00015271631127689034
1761484843785255000,4.2222548828125,0.00015271631127689034,-0.00015271631127689034,0
1761484843802080800,4.239080810546875,-0.0003054326225537807,0.00015271631127689034,-0.0010690141934901476
1761484843818923000,4.255923095703125,0.00015271631127689034,0.00015271631127689034,0
1761484843835745800,4.272745849609375,0.00015271631127689034,-0.00015271631127689034,-0.0009162978967651725
1761484843852595700,4.289595703125,0.00015271631127689034,-0.0009162978967651725,-0.0006108652451075613
1761484843869396200,4.306396240234375,0.00015271631127689034,0,0.00015271631127689034
1761484843886221600,4.3232216796875,0.00015271631127689034,-0.00015271631127689034,-0.0007635815418325365
1761484843903047200,4.340047119140625,-0.0006108652451075613,0.00045814894838258624,0.00015271631127689034
1761484843919868700,4.35686865234375,0.00015271631127689034,-0.00015271631127689034,0.0003054326225537807
1761484843936702200,4.3737021484375,0.00015271631127689034,0.00015271631127689034,0.00015271631127689034
1761484843953520000,4.39052001953125,0.00015271631127689034,0.001527163083665073,0.0009162978967651725
1761484843970352600,4.4073525390625,-0.0009162978967651725,-0.00045814894838258624,-0.00015271631127689034
1761484843987174100,4.424174072265625,0.0007635815418325365,0.0003054326225537807,0.0009162978967651725
1761484844004000000,4.441,0.0003054326225537807,0,-0.0003054326225537807
1761484844020812000,4.45781201171875,0.00015271631127689034,0.001679879380390048,-0.0003054326225537807
1761484844037669400,4.47466943359375,0.00015271631127689034,-0.0007635815418325365,0
1761484844054459400,4.49145947265625,0.00015271631127689034,-0.0006108652451075613,0.00015271631127689034
1761484844071302100,4.50830224609375,0.00015271631127689034,-0.001679879380390048,0.00015271631127689034
1761484844088111000,4.525111083984375,0.00015271631127689034,-0.0009162978967651725,0.0003054326225537807
1761484844104952800,4.541952880859375,-0.00045814894838258624,-0.00015271631127689034,0.00015271631127689034
1761484844121755000,4.5587548828125,0.0009162978967651725,-0.00045814894838258624,0.00015271631127689034
1761484844138586600,4.575586669921875,0.00015271631127689034,0,0
1761484844155415600,4.59241552734375,0.00015271631127689034,0.0012217304902151227,-0.00045814894838258624
1761484844172241400,4.609241455078125,0.00015271631127689034,0.0010690141934901476,-0.0003054326225537807
1761484844189066500,4.62606640625,0.00015271631127689034,0.00015271631127689034,-0.0009162978967651725
1761484844205891800,4.642891845703125,0.00015271631127689034,0,-0.0007635815418325365
1761484844222699300,4.65969921875,0.00015271631127689034,0.0009162978967651725,0.0012217304902151227
1761484844239546400,4.67654638671875,0.00015271631127689034,-0.0006108652451075613,0.00015271631127689034
1761484844256368400,4.693368408203125,-0.0003054326225537807,-0.0006108652451075613,0.00015271631127689034
1761484844273194000,4.710194091796875,0.00015271631127689034,-0.0012217304902151227,0.00015271631127689034
1761484844290019300,4.727019287109375,0.00045814894838258624,0.0012217304902151227,-0.0009162978967651725
1761484844306862000,4.743862060546875,0.0009162978967651725,0.0010690141934901476,0.00045814894838258624
1761484844323684000,4.76068408203125,0.00015271631127689034,0.00045814894838258624,-0.0006108652451075613
1761484844340480300,4.777480224609375,0.00015271631127689034,-0.00045814894838258624,-0.0007635815418325365
1761484844357334800,4.794334716796875,0.00015271631127689034,0.00015271631127689034,0.00015271631127689034
1761484844374160600,4.81116064453125,0,0.0003054326225537807,0.0007635815418325365
1761484844390985700,4.82798583984375,0,0.0009162978967651725,0.00045814894838258624
1761484844407811000,4.84481103515625,0.00015271631127689034,0.0003054326225537807,0.00015271631127689034
1761484844424620500,4.86162060546875,-0.0009162978967651725,-0.00045814894838258624,0.00015271631127689034
1761484844441462800,4.878462890625,-0.0006108652451075613,0,-0.0009162978967651725
1761484844458287900,4.895287841796875,-0.00015271631127689034,-0.0009162978967651725,0.0003054326225537807
1761484844475113000,4.912113037109375,0.00015271631127689034,-0.0007635815418325365,0.0003054326225537807
1761484844491940400,4.9289404296875,0.00015271631127689034,-0.0009162978967651725,0.00015271631127689034
1761484844508764700,4.9457646484375,-0.0003054326225537807,0.0003054326225537807,0
1761484844525589500,4.962589599609375,0.00015271631127689034,0,-0.0006108652451075613
1761484844542415000,4.9794150390625,-0.0003054326225537807,0.00015271631127689034,0.0009162978967651725
1761484844559223800,4.996223876953125,0.00015271631127689034,-0.0007635815418325365,0.0009162978967651725
1761484844576066000,5.013066162109375,-0.0006108652451075613,0.0009162978967651725,0.0009162978967651725
1761484844592882400,5.02988232421875,0.0006108652451075613,0.0003054326225537807,-0.0009162978967651725
1761484844609717200,5.04671728515625,0.00015271631127689034,0.0009162978967651725,-0.0006108652451075613
1761484844626521900,5.06352197265625,0.00015271631127689034,0.0009162978967651725,-0.0010690141934901476
1761484844643357700,5.080357666015625,-0.0006108652451075613,0.00045814894838258624,0.00015271631127689034
1761484844660179500,5.097179443359375,0.00015271631127689034,0.00045814894838258624,0.00015271631127689034
1761484844677005000,5.114005126953125,0.00015271631127689034,0.0009162978967651725,0
1761484844693830700,5.13083056640625,0.00015271631127689034,0.002138028386980295,0.00045814894838258624
1761484844710656500,5.147656494140625,0.00015271631127689034,0.0010690141934901476,-0.0003054326225537807
1761484844727481300,5.1644814453125,0.00015271631127689034,0.0013744467869400978,-0.00045814894838258624
1761484844744307200,5.18130712890625,0,-0.0009162978967651725,-0.0010690141934901476
1761484844761132500,5.198132568359375,0.0009162978967651725,0.0013744467869400978,0.0009162978967651725
1761484844777958100,5.214958251953125,0.00015271631127689034,0.0003054326225537807,-0.00015271631127689034
1761484844794800600,5.231800537109375,0.00015271631127689034,-0.00045814894838258624,0.0007635815418325365
1761484844811605800,5.248605712890625,-0.0007635815418325365,-0.0029016099870204926,0.0003054326225537807
1761484844828448300,5.2654482421875,0.00015271631127689034,-0.0013744467869400978,0.00045814894838258624
1761484844845273600,5.282273681640625,0.00015271631127689034,-0.0029016099870204926,0.00015271631127689034
1761484844862099000,5.299098876953125,0.00015271631127689034,0.0012217304902151227,-0.00015271631127689034
1761484844878924500,5.315924560546875,-0.00015271631127689034,0.00015271631127689034,-0.00045814894838258624
1761484844895750400,5.33275048828125,0.0009162978967651725,0.00015271631127689034,0.0009162978967651725
1761484844912576000,5.349575927734375,0.00015271631127689034,-0.0006108652451075613,-0.0006108652451075613
1761484844929395500,5.3663955078125,0.00015271631127689034,0.0003054326225537807,0.00045814894838258624
1761484844946231000,5.38323095703125,0.00015271631127689034,0.0006108652451075613,0.00015271631127689034
1761484844963052000,5.400052001953125,-0.0006108652451075613,-0.0003054326225537807,-0.00045814894838258624
1761484844979870200,5.4168701171875,0.00015271631127689034,0.00015271631127689034,-0.0006108652451075613
1761484844996703500,5.433703369140625,-0.0006108652451075613,0.00045814894838258624,-0.0006108652451075613
1761484845013531100,5.45053125,0.0003054326225537807,-0.00045814894838258624,0.00015271631127689034
1761484845030353400,5.467353515625,0.0012217304902151227,-0.00015271631127689034,-0.00045814894838258624
1761484845047179300,5.48417919921875,0.00045814894838258624,0,0.0003054326225537807
1761484845063987200,5.5009873046875,-0.00015271631127689034,0,-0.0003054326225537807
1761484845080813300,5.517813232421875,-0.00015271631127689034,0.0003054326225537807,0
1761484845097655800,5.53465576171875,0.00015271631127689034,0.00015271631127689034,0
1761484845114464300,5.55146435546875,0.00045814894838258624,-0.0009162978967651725,0.00015271631127689034
1761484845131292400,5.56829248046875,-0.0003054326225537807,0.0003054326225537807,-0.00015271631127689034
1761484845148106500,5.5851064453125,0.00015271631127689034,0.0006108652451075613,0.0003054326225537807
1761484845164940500,5.6019404296875,0,0.0010690141934901476,-0.0006108652451075613
1761484845181773000,5.61877294921875,0.0003054326225537807,0.0012217304902151227,-0.0013744467869400978
1761484845198594000,5.635593994140625,0,0.0003054326225537807,-0.0010690141934901476
1761484845215420200,5.652420166015625,0.0003054326225537807,0.0003054326225537807,0
1761484845232245500,5.66924560546875,0.0003054326225537807,0,-0.0006108652451075613
1761484845249071400,5.6860712890625,-0.0006108652451075613,-0.0003054326225537807,0.0003054326225537807
1761484845265896200,5.702896240234375,0,-0.00015271631127689034,-0.00015271631127689034
1761484845282725000,5.71972509765625,-0.0006108652451075613,-0.00015271631127689034,-0.00015271631127689034
1761484845299557000,5.73655712890625,-0.0003054326225537807,-0.0006108652451075613,0.00015271631127689034
1761484845316395800,5.753395751953125,0,0.00015271631127689034,-0.00015271631127689034
1761484845333236500,5.770236572265625,0,-0.0006108652451075613,-0.00045814894838258624
1761484845350036700,5.78703662109375,0,0,0.0003054326225537807
1761484845366846200,5.80384619140625,0,-0.0006108652451075613,-0.00015271631127689034
1761484845383679500,5.820679443359375,0,-0.00015271631127689034,0
1761484845400515000,5.83751513671875,-0.0006108652451075613,0.00015271631127689034,-0.0003054326225537807
1761484845417321700,5.85432177734375,-0.0007635815418325365,0.0003054326225537807,0.0009162978967651725
1761484845434151200,5.871151123046875,-0.0007635815418325365,0.001679879380390048,0.00015271631127689034
1761484845450976800,5.887976806640625,-0.0007635815418325365,0.00427605677396059,0.00045814894838258624
1761484845467802000,5.904802001953125,0,0.0029016099870204926,0.0012217304902151227
1761484845484627500,5.92162744140625,0.00015271631127689034,0.00427605677396059,0.0013744467869400978
1761484845501453000,5.938453125,0.00015271631127689034,0.00427605677396059,0.0010690141934901476
1761484845518295800,5.9552958984375,0,0.004734205547720194,0.00015271631127689034
1761484845535117800,5.972117919921875,0,0.0007635815418325365,0
1761484845551939000,5.98893896484375,-0.00015271631127689034,-0.003359758760780096,-0.0007635815418325365
1761484845568753700,6.005753662109375,0,-0.007788531947880983,-0.0007635815418325365
1761484845585582000,6.02258203125,0,-0.004428773187100887,-0.0003054326225537807
1761484845602402300,6.03940234375,0,-0.004734205547720194,0
1761484845619231200,6.056231201171875,0.00015271631127689034,0.0009162978967651725,-0.00015271631127689034
1761484845636056800,6.073056884765625,0.00015271631127689034,-0.001527163083665073,0.0009162978967651725
1761484845652882700,6.089882568359375,0,0.0013744467869400978,0.00015271631127689034
1761484845669707300,6.106707275390625,0,0.0006108652451075613,0.00015271631127689034
1761484845686533000,6.123533203125,0.0007635815418325365,-0.0003054326225537807,0
1761484845703358500,6.1403583984375,-0.0006108652451075613,0.0003054326225537807,0.00015271631127689034
1761484845720184300,6.157184326171875,0,-0.0003054326225537807,-0.0009162978967651725
1761484845737009400,6.174009521484375,0.0007635815418325365,-0.00045814894838258624,0.0009162978967651725
1761484845753835000,6.1908349609375,-0.0006108652451075613,0,0.0003054326225537807
1761484845770660400,6.207660400390625,0,0.00015271631127689034,-0.0007635815418325365
1761484845787503000,6.224503173828125,-0.0007635815418325365,-0.0007635815418325365,0.0012217304902151227
1761484845804311300,6.241311279296875,0.00015271631127689034,0.0009162978967651725,0.0003054326225537807
1761484845821161200,6.2581611328125,0,-0.00015271631127689034,-0.0006108652451075613
1761484845837959000,6.274958984375,0,0.0009162978967651725,0.0006108652451075613
1761484845854770400,6.2917705078125,0,0.0006108652451075613,-0.0006108652451075613
1761484845871626500,6.30862646484375,-0.00015271631127689034,0.0006108652451075613,0.00015271631127689034
1761484845888448000,6.325447998046875,0,-0.00015271631127689034,0.0003054326225537807
1761484845905278500,6.342278564453125,-0.00015271631127689034,-0.0006108652451075613,0.0003054326225537807
1761484845922103600,6.359103515625,-0.00015271631127689034,-0.0006108652451075613,-0.0003054326225537807
1761484845938928000,6.37592822265625,0.00015271631127689034,-0.0006108652451075613,-0.00015271631127689034
1761484845955753200,6.392753173828125,0.00015271631127689034,0.00015271631127689034,0.00015271631127689034
1761484845972564200,6.409564208984375,0,0.00015271631127689034,0.00015271631127689034
1761484845989405700,6.42640576171875,-0.0006108652451075613,0.00045814894838258624,-0.00045814894838258624
1761484846006213600,6.443213623046875,0.00015271631127689034,-0.00045814894838258624,0.0009162978967651725
1761484846023052300,6.46005224609375,0.00015271631127689034,0.0009162978967651725,0
1761484846039885600,6.476885498046875,0,0,-0.0003054326225537807
1761484846056707600,6.49370751953125,-0.0007635815418325365,0.0006108652451075613,0.0003054326225537807
1761484846073532400,6.510532470703125,-0.0003054326225537807,0.0003054326225537807,0.00045814894838258624
1761484846090341000,6.527341064453125,0,0.0006108652451075613,-0.00045814894838258624
1761484846107169500,6.54416943359375,-0.0006108652451075613,0.0032070425804704428,0.0009162978967651725
1761484846123995400,6.560995361328125,0,0.003817907767370343,0.00045814894838258624
1761484846140820700,6.57782080078125,0,0.001832595793530345,0
1761484846157630200,6.594630126953125,-0.0003054326225537807,0.0024434609804302454,0.00015271631127689034
1761484846174474800,6.611474853515625,0.0003054326225537807,0.00015271631127689034,-0.0006108652451075613
1761484846191301400,6.62830126953125,0.00015271631127689034,0.0022907445672899485,0.00045814894838258624
1761484846208122000,6.6451220703125,-0.0006108652451075613,-0.003359758760780096,-0.0003054326225537807
1761484846224948000,6.661947998046875,0,-0.0007635815418325365,0
1761484846241773600,6.678773681640625,0,-0.00809396430850029,-0.001832595793530345
1761484846258598400,6.695598388671875,0,-0.002138028386980295,0.001527163083665073
1761484846275427300,6.71242724609375,0,0.00045814894838258624,-0.00045814894838258624
1761484846292259600,6.729259521484375,0,-0.0012217304902151227,-0.00015271631127689034
1761484846309093000,6.746093017578125,0,0.0009162978967651725,0.0006108652451075613
1761484846325895000,6.76289501953125,0.00015271631127689034,-0.00015271631127689034,-0.0012217304902151227
1761484846342743800,6.779743896484375,-0.0007635815418325365,0.0003054326225537807,-0.0013744467869400978
1761484846359565000,6.79656494140625,-0.0007635815418325365,-0.00045814894838258624,-0.0012217304902151227
1761484846376368400,6.813368408203125,0.00015271631127689034,0.0003054326225537807,0.00015271631127689034
1761484846393216500,6.830216552734375,-0.0006108652451075613,-0.00015271631127689034,-0.0006108652451075613
1761484846410045700,6.847045654296875,0,0.00045814894838258624,0
1761484846426867200,6.8638671875,0,-0.0006108652451075613,-0.0009162978967651725
1761484846443692500,6.880692626953125,0,0,0.00015271631127689034
1761484846460501800,6.897501708984375,0,-0.0003054326225537807,0.00045814894838258624
1761484846477339400,6.91433935546875,0,0,-0.00045814894838258624
1761484846494173200,6.931173095703125,-0.00015271631127689034,0.00045814894838258624,-0.0006108652451075613
1761484846510994200,6.947994140625,0,-0.0009162978967651725,-0.0007635815418325365
1761484846527820300,6.9648203125,0.00015271631127689034,0.00045814894838258624,0.00015271631127689034
1761484846544643300,6.981643310546875,0.00015271631127689034,-0.0006108652451075613,-0.0006108652451075613
1761484846561470700,6.998470703125,-0.0003054326225537807,0.0007635815418325365,0.00015271631127689034
1761484846578276600,7.015276611328125,0,0.00015271631127689034,0
1761484846595111400,7.032111328125,0,-0.00045814894838258624,0.0009162978967651725
1761484846611933400,7.048933349609375,0.0003054326225537807,0.00015271631127689034,0.00015271631127689034
1761484846628759000,7.065759033203125,0,0.00015271631127689034,0.00015271631127689034
1761484846645584600,7.082584716796875,-0.0009162978967651725,0.0009162978967651725,-0.0007635815418325365
1761484846662407200,7.0994072265625,0,0.00045814894838258624,0.00015271631127689034
1761484846679238400,7.11623828125,0.00015271631127689034,-0.0006108652451075613,0.0003054326225537807
1761484846696040700,7.133040771484375,0.00015271631127689034,0.00015271631127689034,-0.0003054326225537807
1761484846712886500,7.149886474609375,0,-0.0007635815418325365,-0.0006108652451075613
1761484846729712000,7.166712158203125,-0.00045814894838258624,-0.00015271631127689034,-0.00045814894838258624
1761484846746537000,7.183536865234375,-0.0006108652451075613,0.00015271631127689034,0.00045814894838258624
1761484846763367200,7.2003671875,-0.00015271631127689034,-0.0003054326225537807,-0.0006108652451075613
1761484846780201200,7.217201171875,0.00015271631127689034,0,0
1761484846797025000,7.23402490234375,0,-0.0007635815418325365,0.0010690141934901476
1761484846813851000,7.250850830078125,0.00015271631127689034,0.00045814894838258624,0.00015271631127689034
1761484846830676500,7.267676513671875,0.00015271631127689034,0.00045814894838258624,0.00045814894838258624
1761484846847491600,7.28449169921875,0.00015271631127689034,0.00045814894838258624,0.0003054326225537807
1761484846864324600,7.30132470703125,0.00015271631127689034,0.00015271631127689034,0
1761484846881157400,7.318157470703125,0,0.0007635815418325365,0.0007635815418325365
1761484846897966800,7.334966796875,0.00015271631127689034,-0.00015271631127689034,0.00015271631127689034
1761484846914803000,7.351802978515625,-0.0006108652451075613,0.00015271631127689034,0.00015271631127689034
1761484846931634200,7.36863427734375,-0.0007635815418325365,-0.0007635815418325365,-0.0010690141934901476
1761484846948452900,7.385452880859375,0.00015271631127689034,0.00015271631127689034,-0.0006108652451075613
1761484846965281300,7.40228125,-0.00015271631127689034,0.00015271631127689034,-0.00015271631127689034
1761484846982109000,7.41910888671875,0.00015271631127689034,0.00015271631127689034,0.00015271631127689034
1761484846998933200,7.435933349609375,0.00015271631127689034,-0.0006108652451075613,0
1761484847015758000,7.452758056640625,-0.0009162978967651725,0.0009162978967651725,0.0003054326225537807
1761484847032583700,7.469583740234375,0.00015271631127689034,0.00015271631127689034,0
1761484847049409500,7.486409423828125,0,0.0006108652451075613,0.00015271631127689034
1761484847066218200,7.50321826171875,0.00045814894838258624,0.0003054326225537807,0
1761484847083044400,7.52004443359375,-0.00015271631127689034,0.00015271631127689034,0.0009162978967651725
1761484847099873800,7.536873779296875,-0.0009162978967651725,-0.0006108652451075613,0
1761484847116697600,7.553697509765625,0.00015271631127689034,0.0006108652451075613,-0.0006108652451075613
1761484847133520400,7.570520263671875,-0.0006108652451075613,0.00045814894838258624,-0.00015271631127689034
1761484847150347800,7.58734765625,0.00015271631127689034,-0.0006108652451075613,-0.0006108652451075613
1761484847167174400,7.60417431640625,0,0.00015271631127689034,0.0003054326225537807
1761484847183986400,7.620986328125,-0.0009162978967651725,0,0.0007635815418325365
1761484847200819700,7.63781982421875,0.00015271631127689034,0.00015271631127689034,-0.00015271631127689034
1761484847217655600,7.654655517578125,0.00015271631127689034,-0.0006108652451075613,0
1761484847234471200,7.67147119140625,0.00015271631127689034,-0.0010690141934901476,0.0003054326225537807
1761484847251305700,7.6883056640625,0.00015271631127689034,0.00045814894838258624,-0.00015271631127689034
1761484847268144000,7.70514404296875,0.00015271631127689034,-0.0003054326225537807,0.0010690141934901476
1761484847284950300,7.7219501953125,0.00015271631127689034,0.00015271631127689034,0.0003054326225537807
1761484847301791000,7.738791015625,0.00015271631127689034,0.00015271631127689034,0.0009162978967651725
1761484847318616600,7.755616455078125,0.00015271631127689034,0.00015271631127689034,0.0003054326225537807
1761484847335441000,7.77244091796875,0.00015271631127689034,-0.0006108652451075613,-0.0007635815418325365
1761484847352267500,7.789267578125,0.00015271631127689034,-0.00015271631127689034,0.0006108652451075613
1761484847369094700,7.8060947265625,0.00015271631127689034,-0.0003054326225537807,-0.00045814894838258624
1761484847385915100,7.8229150390625,0.0009162978967651725,-0.00015271631127689034,-0.0010690141934901476
1761484847402744300,7.839744384765625,0.00015271631127689034,-0.0006108652451075613,-0.0006108652451075613
1761484847419569400,7.8565693359375,-0.0006108652451075613,-0.0007635815418325365,0.0010690141934901476
1761484847436394500,7.87339453125,0,0.0003054326225537807,0.00015271631127689034
1761484847453203700,7.89020361328125,-0.0003054326225537807,-0.0010690141934901476,-0.0007635815418325365
1761484847470046000,7.9070458984375,0.00015271631127689034,-0.00015271631127689034,-0.0003054326225537807
1761484847486871600,7.92387158203125,-0.0006108652451075613,0.0009162978967651725,-0.00045814894838258624
1761484847503676000,7.940676025390625,0.00015271631127689034,0.00015271631127689034,0.00015271631127689034
1761484847520522200,7.957522216796875,0.00015271631127689034,0.00015271631127689034,0.00015271631127689034
1761484847537348000,7.97434814453125,0.00015271631127689034,0.00045814894838258624,0.00015271631127689034
1761484847554142700,7.991142822265625,0.00015271631127689034,-0.0003054326225537807,0.0012217304902151227
1761484847570985000,8.00798486328125,0.00015271631127689034,0.0003054326225537807,0.00015271631127689034
1761484847587819300,8.0248193359375,0.00045814894838258624,0,0.0003054326225537807
1761484847604639200,8.04163916015625,0,0.00045814894838258624,-0.0006108652451075613
1761484847621455600,8.05845556640625,0.00015271631127689034,0.00015271631127689034,0.00045814894838258624
1761484847638283300,8.075283203125,0.00015271631127689034,0.0009162978967651725,-0.0010690141934901476
1761484847655115300,8.092115234375,0,0,-0.00015271631127689034
1761484847671938000,8.10893798828125,-0.0003054326225537807,0.0006108652451075613,-0.0007635815418325365
1761484847688763000,8.125762939453125,0.00015271631127689034,-0.0007635815418325365,-0.00045814894838258624
1761484847705568500,8.142568603515626,-0.00015271631127689034,0,0.00045814894838258624
1761484847722412500,8.15941259765625,-0.0006108652451075613,-0.00015271631127689034,0
1761484847739241200,8.1762412109375,0.0007635815418325365,-0.0006108652451075613,0.0012217304902151227
1761484847756081700,8.19308154296875,0.00015271631127689034,-0.00015271631127689034,-0.0003054326225537807
1761484847772905500,8.209905517578125,0.00015271631127689034,-0.0010690141934901476,-0.00015271631127689034
1761484847789728000,8.22672802734375,0.0009162978967651725,0.00015271631127689034,0.0007635815418325365
1761484847806543400,8.24354345703125,0.00015271631127689034,0.00015271631127689034,0.00045814894838258624
1761484847823386400,8.260386474609374,-0.0009162978967651725,0.00015271631127689034,0.00015271631127689034
1761484847840216800,8.277216796875,0.00015271631127689034,-0.0007635815418325365,-0.0006108652451075613
1761484847857018600,8.2940185546875,0,-0.00045814894838258624,-0.0003054326225537807
1761484847873853000,8.31085302734375,0.00015271631127689034,-0.0007635815418325365,-0.00045814894838258624
1761484847890686000,8.32768603515625,0.00015271631127689034,0,0.00015271631127689034
1761484847907507700,8.3445078125,0.00015271631127689034,-0.0013744467869400978,0
1761484847924333600,8.36133349609375,-0.00015271631127689034,0.0003054326225537807,0.00045814894838258624
1761484847941142000,8.37814208984375,0.00015271631127689034,-0.0003054326225537807,0.0003054326225537807
1761484847957980000,8.39497998046875,-0.0007635815418325365,0,0
1761484847974798000,8.411798095703125,-0.0009162978967651725,0.00045814894838258624,0.0003054326225537807
1761484847991634700,8.428634765625,0.00015271631127689034,-0.0009162978967651725,-0.00045814894838258624
1761484848008443600,8.445443603515624,0.00015271631127689034,-0.0007635815418325365,0.0003054326225537807
1761484848025281500,8.462281494140624,-0.0003054326225537807,-0.0006108652451075613,0.0009162978967651725
1761484848042098200,8.47909814453125,-0.00015271631127689034,0.00045814894838258624,0
1761484848058923300,8.49592333984375,0.00015271631127689034,0.00015271631127689034,0.0003054326225537807
1761484848075748600,8.51274853515625,0.0009162978967651725,-0.0009162978967651725,0.00045814894838258624
1761484848092573400,8.529573486328125,-0.00015271631127689034,0.00015271631127689034,0
1761484848109399300,8.5463994140625,0.00015271631127689034,-0.0003054326225537807,0.00015271631127689034
1761484848126225000,8.563224853515624,-0.00015271631127689034,-0.0007635815418325365,0.0003054326225537807
1761484848143037700,8.58003759765625,0,-0.0003054326225537807,0.0009162978967651725
1761484848159875800,8.596875732421875,0.00015271631127689034,0,0.00015271631127689034
1761484848176701200,8.613701171875,-0.00015271631127689034,0.0003054326225537807,-0.00015271631127689034
1761484848193526800,8.63052685546875,0.00015271631127689034,-0.00015271631127689034,-0.0007635815418325365
1761484848210352400,8.647352294921875,0,0.0013744467869400978,0.0007635815418325365
1761484848227166500,8.66416650390625,-0.00015271631127689034,0.0003054326225537807,0.00015271631127689034
1761484848244020500,8.6810205078125,0.0009162978967651725,-0.00045814894838258624,0
1761484848260842200,8.69784228515625,-0.00015271631127689034,-0.0009162978967651725,0.0003054326225537807
1761484848277665300,8.714665283203125,0.0009162978967651725,0.00045814894838258624,0.00015271631127689034
1761484848294492000,8.731491943359375,0.00015271631127689034,0,0.00015271631127689034
1761484848311322400,8.748322265625,0.0009162978967651725,0.00015271631127689034,0.00015271631127689034
1761484848328140500,8.765140625,-0.00015271631127689034,-0.0007635815418325365,0.00015271631127689034
1761484848344973600,8.7819736328125,0,-0.0006108652451075613,0
1761484848361794600,8.798794677734374,0.00015271631127689034,0,0.0006108652451075613
1761484848378616300,8.8156162109375,0.00015271631127689034,0.00045814894838258624,0
1761484848395450400,8.832450439453124,0.00015271631127689034,-0.0007635815418325365,0.0007635815418325365
1761484848412255500,8.84925537109375,0.0010690141934901476,-0.0003054326225537807,0.0003054326225537807
1761484848429096700,8.8660966796875,0.00015271631127689034,-0.00015271631127689034,-0.0006108652451075613
1761484848445907200,8.8829072265625,0.00015271631127689034,-0.0006108652451075613,-0.00045814894838258624
1761484848462744300,8.899744384765626,0,0,-0.0003054326225537807
1761484848479569700,8.916569580078125,0,-0.0006108652451075613,-0.00045814894838258624
1761484848496408300,8.933408203125,0.00015271631127689034,-0.001527163083665073,-0.0006108652451075613
1761484848513226500,8.9502265625,0.00015271631127689034,0.00015271631127689034,0.00015271631127689034
1761484848530029800,8.96702978515625,0.0009162978967651725,-0.0010690141934901476,-0.0007635815418325365
1761484848546870300,8.983870361328124,0.00015271631127689034,0.00015271631127689034,0.00015271631127689034
1761484848563684400,9.000684326171875,-0.0006108652451075613,0.00015271631127689034,0
1761484848580514600,9.0175146484375,0.00015271631127689034,0.0003054326225537807,0.00015271631127689034
1761484848597337300,9.03433740234375,-0.0006108652451075613,0.00045814894838258624,-0.0009162978967651725
1761484848614163200,9.0511630859375,0.00015271631127689034,-0.00045814894838258624,0.00015271631127689034
1761484848630985700,9.06798583984375,-0.0006108652451075613,0.0003054326225537807,0.0010690141934901476
1761484848647811000,9.08481103515625,0.00015271631127689034,0.0009162978967651725,0.0009162978967651725
1761484848664642000,9.10164208984375,0.00045814894838258624,-0.00045814894838258624,-0.00015271631127689034
1761484848681452500,9.11845263671875,-0.0006108652451075613,0.00015271631127689034,0.0009162978967651725
1761484848698290400,9.13529052734375,0.00015271631127689034,-0.0006108652451075613,-0.0007635815418325365
1761484848715111400,9.152111328125,-0.00015271631127689034,0.00015271631127689034,-0.0006108652451075613
1761484848731935500,9.168935546875,0,0.00015271631127689034,-0.00015271631127689034
1761484848748782600,9.185782470703124,0.0009162978967651725,0.00015271631127689034,0
1761484848765607000,9.20260693359375,0.0012217304902151227,0.00045814894838258624,0.00015271631127689034
1761484848782427400,9.219427490234375,0.00015271631127689034,-0.0003054326225537807,-0.00015271631127689034
1761484848799261000,9.236260986328125,0.00015271631127689034,0.00015271631127689034,0
1761484848816082200,9.253082275390625,0.00015271631127689034,-0.0009162978967651725,0
1761484848832907800,9.26990771484375,0.0006108652451075613,0,0.00015271631127689034
1761484848849732900,9.28673291015625,0.00015271631127689034,0,-0.00015271631127689034
1761484848866541800,9.303541748046875,-0.0006108652451075613,-0.00015271631127689034,0.00015271631127689034
1761484848883394600,9.32039453125,0.00015271631127689034,-0.0006108652451075613,0.00045814894838258624
1761484848900209700,9.337209716796876,0.00015271631127689034,-0.00015271631127689034,0.0007635815418325365
1761484848917034500,9.354034423828125,-0.0006108652451075613,0.00015271631127689034,0.00015271631127689034
1761484848933843700,9.37084375,0.00015271631127689034,0.00015271631127689034,0.0003054326225537807
1761484848950681900,9.387681884765625,-0.0003054326225537807,0.00015271631127689034,0.00015271631127689034
1761484848967515000,9.404514892578124,-0.00045814894838258624,0,0.00015271631127689034
1761484848984316200,9.421316162109376,-0.0007635815418325365,0.00015271631127689034,0.0009162978967651725
1761484849001161000,9.438160888671876,0,-0.0006108652451075613,0.0003054326225537807
1761484849017979600,9.454979736328125,-0.0006108652451075613,0.0009162978967651725,0.00015271631127689034
1761484849034799000,9.471799072265625,0.00015271631127689034,-0.00015271631127689034,0.00015271631127689034
1761484849051625000,9.488625,0,0,-0.00015271631127689034
1761484849068450300,9.5054501953125,0.00015271631127689034,0.00015271631127689034,0.00015271631127689034
1761484849085274400,9.5222744140625,-0.00015271631127689034,0.0007635815418325365,0
1761484849102102500,9.5391025390625,0.00015271631127689034,0.00015271631127689034,0.00045814894838258624
1761484849118943500,9.555943603515624,-0.0006108652451075613,0.00015271631127689034,0.0003054326225537807
1761484849135745500,9.57274560546875,0.00015271631127689034,0.0012217304902151227,0.0003054326225537807
1761484849152581000,9.5895810546875,-0.0006108652451075613,0.0010690141934901476,0.00015271631127689034
1761484849169402600,9.606402587890624,0.00015271631127689034,-0.0006108652451075613,-0.0003054326225537807
1761484849186229000,9.62322900390625,0.00015271631127689034,-0.0007635815418325365,0.0003054326225537807
1761484849203053800,9.6400537109375,0,-0.00015271631127689034,0.00015271631127689034
1761484849219879700,9.656879638671874,0.00015271631127689034,-0.0003054326225537807,0.00015271631127689034
1761484849236705500,9.67370556640625,0.00015271631127689034,0.00045814894838258624,0.0003054326225537807
1761484849253527300,9.69052734375,0,0.00045814894838258624,-0.0003054326225537807
1761484849270369800,9.707369873046876,0.00015271631127689034,0.0006108652451075613,-0.0007635815418325365
1761484849287195400,9.7241953125,0,-0.00015271631127689034,0.00015271631127689034
1761484849304003300,9.74100341796875,0.00015271631127689034,-0.0006108652451075613,-0.0006108652451075613
1761484849320846300,9.757846435546876,0.00015271631127689034,-0.00045814894838258624,-0.0003054326225537807
1761484849337667300,9.774667236328124,0.00015271631127689034,0.00015271631127689034,-0.0007635815418325365
1761484849354480400,9.79148046875,0.0009162978967651725,-0.0010690141934901476,0.00015271631127689034
1761484849371305000,9.808304931640626,0.00015271631127689034,-0.0006108652451075613,-0.0003054326225537807
1761484849388128000,9.8251279296875,0.00015271631127689034,0.0012217304902151227,0.0010690141934901476
1761484849404962800,9.841962890625,0.00015271631127689034,-0.0009162978967651725,0.0007635815418325365
1761484849421784800,9.858784912109375,-0.0006108652451075613,0.00015271631127689034,-0.0007635815418325365
1761484849438606800,9.87560693359375,0.00015271631127689034,0.0003054326225537807,-0.0009162978967651725
1761484849455438800,9.89243896484375,0,-0.00045814894838258624,-0.0003054326225537807
1761484849472261000,9.90926123046875,-0.0003054326225537807,-0.0006108652451075613,-0.00015271631127689034
1761484849489086700,9.926086669921874,0.00015271631127689034,-0.0012217304902151227,-0.0006108652451075613
1761484849505912300,9.942912353515625,0.0009162978967651725,-0.0009162978967651725,0.0009162978967651725
1761484849522734800,9.95973486328125,0.00015271631127689034,-0.0006108652451075613,0.00015271631127689034
1761484849539565300,9.9765654296875,0.00015271631127689034,-0.00015271631127689034,0.00045814894838258624
1761484849556388600,9.993388671875,0.00015271631127689034,0.0003054326225537807,0.00015271631127689034
1761484849573214000,10.0102138671875,0.00015271631127689034,0.00015271631127689034,0.00015271631127689034
1761484849590039300,10.027039306640624,0.00015271631127689034,0.0003054326225537807,0.00015271631127689034
1761484849606886400,10.043886474609375,0.00015271631127689034,0.00015271631127689034,0.00015271631127689034
1761484849623682600,10.0606826171875,-0.0006108652451075613,0.00045814894838258624,0.00015271631127689034
1761484849640515300,10.077515380859374,0.0010690141934901476,0.0009162978967651725,0.0003054326225537807
1761484849657341200,10.094341064453126,0.00015271631127689034,-0.0006108652451075613,0.0003054326225537807
1761484849674166500,10.11116650390625,-0.00015271631127689034,-0.00015271631127689034,0.00015271631127689034
1761484849690992600,10.12799267578125,0.00015271631127689034,0.00015271631127689034,0.0003054326225537807
1761484849707817200,10.144817138671876,0,-0.0007635815418325365,0.0006108652451075613
1761484849724660000,10.161659912109375,-0.0006108652451075613,-0.0003054326225537807,-0.0007635815418325365
1761484849741478400,10.178478515625,0.0007635815418325365,0.00045814894838258624,0
1761484849758295300,10.19529541015625,0.0009162978967651725,0.0003054326225537807,-0.0003054326225537807
1761484849775133000,10.2121328125,0.00015271631127689034,0.00015271631127689034,0.00015271631127689034
1761484849791958300,10.228958251953125,-0.00015271631127689034,0.0003054326225537807,-0.00015271631127689034
1761484849808784000,10.245783935546875,0.00015271631127689034,0.00015271631127689034,0.0009162978967651725
1761484849825609700,10.262609619140624,0.00015271631127689034,0.00045814894838258624,0.00015271631127689034
1761484849842417700,10.279417724609376,-0.0032070425804704428,0.06994406878948212,0.05161811411380768
1761484849859243800,10.296243896484375,-0.005497787147760391,0.14156801998615265,0.12568552792072296
1761484849876086000,10.3130859375,-0.002138028386980295,0.039095375686883926,0.025961773470044136
1761484849892911000,10.3299111328125,0.0010690141934901476,-0.02367102913558483,-0.022143865004181862
1761484849909736700,10.34673681640625,0.003817907767370343,-0.0884227454662323,-0.07712173461914062
1761484849926562000,10.36356201171875,0.002138028386980295,-0.11423180252313614,-0.08933904021978378
