time,seconds_elapsed,z,y,x
1761487003776627700,0.121627685546875,0,0,0
1761487003797688300,0.142688232421875,-0.0007635815418325365,0.0009162978967651725,0.0010690141934901476
1761487003814511000,0.159510986328125,-0.0007635815418325365,0,-0.0007635815418325365
1761487003831319800,0.17631982421875,-0.0007635815418325365,0,0.0006108652451075613
1761487003848158000,0.193157958984375,0,-0.0007635815418325365,0.0006108652451075613
1761487003864973800,0.209973876953125,0,-0.00045814894838258624,0
1761487003881784300,0.226784423828125,0,-0.0006108652451075613,-0.0007635815418325365
1761487003898619600,0.24361962890625,-0.0003054326225537807,-0.00015271631127689034,0.0007635815418325365
1761487003915451400,0.260451416015625,0,0.0007635815418325365,-0.00045814894838258624
1761487003932260900,0.2772607421875,0,0.00015271631127689034,0.00015271631127689034
1761487003949099500,0.294099609375,0,-0.0007635815418325365,-0.0003054326225537807
1761487003965922000,0.310922119140625,0,-0.0007635815418325365,0.0006108652451075613
1761487003982732000,0.32773193359375,0,0.0006108652451075613,-0.00015271631127689034
1761487003999574500,0.344574462890625,0,-0.0006108652451075613,0
1761487004016398600,0.361398681640625,0,0,-0.00015271631127689034
1761487004033221000,0.37822119140625,-0.0003054326225537807,-0.0003054326225537807,-0.00015271631127689034
1761487004050051800,0.3950517578125,0.00015271631127689034,0,0
1761487004066875100,0.411875244140625,0,-0.0003054326225537807,0.0010690141934901476
1761487004083702800,0.428702880859375,0,0.0003054326225537807,0
1761487004100521500,0.445521484375,0,0,0
1761487004117360000,0.462360107421875,0,-0.0007635815418325365,0
1761487004134192000,0.479192138671875,-0.0007635815418325365,0.0007635815418325365,-0.00015271631127689034
1761487004151013600,0.496013671875,0,0,0.0006108652451075613
1761487004167838200,0.512838134765625,0,-0.0006108652451075613,0
1761487004184648000,0.52964794921875,0,-0.00015271631127689034,0.0003054326225537807
1761487004201473300,0.546473388671875,0.0003054326225537807,-0.0007635815418325365,-0.0007635815418325365
1761487004218314500,0.563314453125,0,0,0.0009162978967651725
1761487004235138300,0.58013818359375,0,0.0007635815418325365,0
1761487004251947800,0.59694775390625,0,-0.0006108652451075613,0
1761487004268791000,0.613791015625,0,0.00045814894838258624,-0.0007635815418325365
1761487004285613600,0.630613525390625,-0.0003054326225537807,-0.00045814894838258624,0.00045814894838258624
1761487004302422500,0.647422607421875,0,0,0.0003054326225537807
1761487004319251000,0.6642509765625,0,0.0003054326225537807,-0.0007635815418325365
1761487004336077000,0.6810771484375,-0.0003054326225537807,0,-0.00015271631127689034
1761487004352901600,0.697901611328125,-0.0003054326225537807,-0.0009162978967651725,0
1761487004369723400,0.714723388671875,0,0,-0.00015271631127689034
1761487004386554600,0.7315546875,-0.0003054326225537807,0,-0.00015271631127689034
1761487004403364600,0.748364501953125,0,-0.00015271631127689034,0
1761487004420203000,0.765203125,0,0,-0.0006108652451075613
1761487004437025300,0.782025390625,0,0,-0.0007635815418325365
1761487004453869300,0.798869384765625,-0.00045814894838258624,0.0003054326225537807,-0.0010690141934901476
1761487004470691600,0.815691650390625,0,0.0006108652451075613,-0.00015271631127689034
1761487004487515600,0.832515625,0.00045814894838258624,0.0003054326225537807,-0.00015271631127689034
1761487004504341500,0.849341552734375,0,-0.0007635815418325365,0.0003054326225537807
1761487004521166800,0.866166748046875,-0.0003054326225537807,0.0009162978967651725,-0.00015271631127689034
1761487004537990000,0.882989990234375,-0.00015271631127689034,-0.00015271631127689034,0.0012217304902151227
1761487004554812400,0.8998125,-0.00045814894838258624,-0.00015271631127689034,0.0003054326225537807
1761487004571635000,0.916635009765625,0,0,-0.0010690141934901476
1761487004588457500,0.93345751953125,-0.00015271631127689034,0,0.0003054326225537807
1761487004605296600,0.950296630859375,0,0,0.0003054326225537807
1761487004622112800,0.96711279296875,0.0003054326225537807,-0.0003054326225537807,0.00045814894838258624
1761487004638946000,0.983946044921875,0,-0.0010690141934901476,0
1761487004655750700,1.000750732421875,-0.0009162978967651725,-0.0010690141934901476,0.0010690141934901476
1761487004672589600,1.017589599609375,0,0,0
1761487004689421300,1.03442138671875,0,0.0007635815418325365,-0.00015271631127689034
1761487004706242600,1.05124267578125,0,0.0003054326225537807,0.0003054326225537807
1761487004723068200,1.068068115234375,0,0,0
1761487004739893800,1.084893798828125,0,0.0007635815418325365,0
1761487004756718000,1.101718017578125,0.0003054326225537807,-0.00015271631127689034,0.0007635815418325365
1761487004773543200,1.118543212890625,-0.0003054326225537807,-0.00015271631127689034,0.001832595793530345
1761487004790350800,1.135350830078125,-0.00015271631127689034,-0.0003054326225537807,0.0009162978967651725
1761487004807180500,1.1521806640625,-0.0007635815418325365,0,0
1761487004823992000,1.168991943359375,-0.0007635815418325365,0.00015271631127689034,0
1761487004840818700,1.185818603515625,0,-0.00015271631127689034,0
1761487004857657300,1.2026572265625,-0.0003054326225537807,-0.0003054326225537807,0
1761487004874478600,1.219478515625,0.00045814894838258624,0.00015271631127689034,0.00045814894838258624
1761487004891292000,1.2362919921875,-0.0006108652451075613,-0.0003054326225537807,0
1761487004908125400,1.25312548828125,0,0,-0.0007635815418325365
1761487004924960000,1.2699599609375,0,-0.0007635815418325365,0.0007635815418325365
1761487004941801500,1.286801513671875,0,0,-0.00015271631127689034
1761487004958616800,1.303616943359375,0,0,-0.00015271631127689034
1761487004975444700,1.32044482421875,0,-0.0009162978967651725,0.0007635815418325365
1761487004992272000,1.33727197265625,0.0003054326225537807,0,0
1761487005009093400,1.35409326171875,0,0,-0.0006108652451075613
1761487005025896400,1.370896484375,0,-0.0006108652451075613,0.0003054326225537807
1761487005042748200,1.387748046875,0,-0.0003054326225537807,-0.0007635815418325365
1761487005059570200,1.404570068359375,-0.0006108652451075613,-0.0010690141934901476,-0.0010690141934901476
1761487005076366600,1.42136669921875,0,0.00015271631127689034,-0.00045814894838258624
1761487005093224200,1.43822412109375,0,-0.0012217304902151227,0
1761487005110045400,1.45504541015625,-0.0003054326225537807,0,-0.00015271631127689034
1761487005126870300,1.471870361328125,0,-0.0003054326225537807,-0.0010690141934901476
1761487005143692800,1.48869287109375,0,0,-0.00045814894838258624
1761487005160524500,1.505524658203125,0,0.00045814894838258624,0.0009162978967651725
1761487005177329400,1.522329345703125,0.0007635815418325365,0,0.0007635815418325365
1761487005194171000,1.5391708984375,0.0007635815418325365,0,-0.00045814894838258624
1761487005210994200,1.555994140625,0.00015271631127689034,0,0
1761487005227823400,1.5728232421875,0,-0.0009162978967651725,-0.00045814894838258624
1761487005244627200,1.589627197265625,0,-0.00045814894838258624,0.00045814894838258624
1761487005261461000,1.6064609375,0,-0.0007635815418325365,0.0003054326225537807
1761487005278280400,1.623280517578125,0.00015271631127689034,-0.0007635815418325365,-0.0003054326225537807
1761487005295107800,1.64010791015625,0,0.0003054326225537807,-0.00015271631127689034
1761487005311923700,1.656923828125,0,0.00045814894838258624,-0.0006108652451075613
1761487005328755500,1.67375537109375,-0.0006108652451075613,-0.0012217304902151227,-0.00015271631127689034
1761487005345587000,1.6905869140625,0,0.0007635815418325365,-0.00045814894838258624
1761487005362408700,1.70740869140625,0.00015271631127689034,-0.0009162978967651725,0.00015271631127689034
1761487005379233500,1.724233642578125,0.00045814894838258624,0,-0.00015271631127689034
1761487005396036000,1.7410361328125,0,-0.0007635815418325365,0.0009162978967651725
1761487005412879000,1.757879150390625,0,0.0013744467869400978,0.0003054326225537807
1761487005429731600,1.774731689453125,0.00045814894838258624,0.0003054326225537807,0
1761487005446547500,1.79154736328125,0.00015271631127689034,0,0.0003054326225537807
1761487005463372800,1.808372802734375,0,-0.0003054326225537807,-0.0007635815418325365
1761487005480198700,1.82519873046875,0.00015271631127689034,-0.00015271631127689034,-0.0010690141934901476
1761487005497023000,1.84202294921875,0,0,0.00015271631127689034
1761487005513846800,1.8588466796875,0,0,0
1761487005530675200,1.87567529296875,0,-0.0009162978967651725,0.00015271631127689034
1761487005547499300,1.892499267578125,-0.0003054326225537807,0,-0.00045814894838258624
1761487005564323600,1.909323486328125,0,-0.0003054326225537807,-0.0003054326225537807
1761487005581148400,1.9261484375,0,0.0003054326225537807,-0.00015271631127689034
1761487005597978000,1.94297802734375,0,0,0
1761487005614795300,1.959795166015625,-0.0009162978967651725,-0.0007635815418325365,-0.0003054326225537807
1761487005631624400,1.97662451171875,0,-0.00015271631127689034,0
1761487005648449000,1.993448974609375,0,-0.0003054326225537807,0.0003054326225537807
1761487005665276200,2.010276123046875,0,-0.0003054326225537807,-0.0006108652451075613
1761487005682100200,2.027100341796875,-0.0003054326225537807,0.0003054326225537807,-0.0007635815418325365
1761487005698925000,2.043925048828125,-0.0007635815418325365,0,0.00015271631127689034
1761487005715734500,2.060734619140625,-0.0010690141934901476,-0.0007635815418325365,0
1761487005732573200,2.0775732421875,0.00015271631127689034,-0.00045814894838258624,-0.0003054326225537807
1761487005749384400,2.094384521484375,-0.00015271631127689034,0.0007635815418325365,-0.00045814894838258624
1761487005766207700,2.111207763671875,0.00015271631127689034,-0.0007635815418325365,0
1761487005783022000,2.12802197265625,0,-0.0007635815418325365,-0.0009162978967651725
1761487005799861200,2.144861328125,0,-0.0010690141934901476,0.0012217304902151227
1761487005816687900,2.16168798828125,-0.0003054326225537807,0,-0.00015271631127689034
1761487005833511700,2.17851171875,-0.0003054326225537807,0.00015271631127689034,0.00015271631127689034
1761487005850336800,2.195336669921875,0,-0.0009162978967651725,0
1761487005867161900,2.212161865234375,0,0.0006108652451075613,-0.0010690141934901476
1761487005883975000,2.228974853515625,0.00015271631127689034,0.00015271631127689034,0.001527163083665073
1761487005900809200,2.245809326171875,0,0.0012217304902151227,0.0009162978967651725
1761487005917643800,2.262643798828125,0.00015271631127689034,0.0009162978967651725,0
1761487005934476000,2.27947607421875,0,0.00015271631127689034,0.0007635815418325365
1761487005951302100,2.29630224609375,-0.0009162978967651725,0.0006108652451075613,-0.00045814894838258624
1761487005968120800,2.313120849609375,0,0.0009162978967651725,0.00045814894838258624
1761487005984951000,2.329950927734375,0,0.0003054326225537807,-0.0010690141934901476
1761487006001780500,2.346780517578125,0,0,0.0006108652451075613
1761487006018602200,2.363602294921875,0,0,0.0009162978967651725
1761487006035418400,2.38041845703125,0,0,0
1761487006052252200,2.397252197265625,0.0007635815418325365,0.00045814894838258624,0.0003054326225537807
1761487006069076700,2.41407666015625,0.0007635815418325365,0,-0.0003054326225537807
1761487006085901300,2.4309013671875,0.00015271631127689034,-0.0006108652451075613,-0.00045814894838258624
1761487006102729000,2.44772900390625,-0.0006108652451075613,-0.0006108652451075613,0.0012217304902151227
1761487006119520300,2.464520263671875,-0.0009162978967651725,-0.0006108652451075613,0.0009162978967651725
1761487006136361000,2.48136083984375,0,-0.0009162978967651725,-0.00015271631127689034
1761487006153215700,2.4982158203125,-0.0003054326225537807,-0.00015271631127689034,0
1761487006170025700,2.515025634765625,0,-0.0003054326225537807,0
1761487006186852600,2.5318525390625,0,-0.0003054326225537807,0.0007635815418325365
1761487006203661000,2.5486611328125,0,0.00045814894838258624,0.0012217304902151227
1761487006220505900,2.565505859375,0,-0.00015271631127689034,-0.0007635815418325365
1761487006237311500,2.5823115234375,0,0.00015271631127689034,-0.00015271631127689034
1761487006254130000,2.5991298828125,0,0.0009162978967651725,0.00045814894838258624
1761487006270964000,2.6159638671875,0.0007635815418325365,0.00015271631127689034,0
1761487006287791400,2.632791259765625,-0.00015271631127689034,-0.0007635815418325365,-0.0003054326225537807
1761487006304615000,2.649614990234375,0,-0.00015271631127689034,-0.001679879380390048
1761487006321440000,2.66643994140625,0,0.0003054326225537807,0
1761487006338250500,2.68325048828125,0.00015271631127689034,0.00045814894838258624,0.0003054326225537807
1761487006355089400,2.70008935546875,-0.00015271631127689034,-0.0012217304902151227,0.0006108652451075613
1761487006371915800,2.716915771484375,0,0.0009162978967651725,0.00015271631127689034
1761487006388743000,2.733742919921875,-0.0006108652451075613,-0.00015271631127689034,0
1761487006405565400,2.7505654296875,0.0006108652451075613,-0.00015271631127689034,-0.00015271631127689034
1761487006422408700,2.76740869140625,0.00015271631127689034,0.00015271631127689034,-0.00015271631127689034
1761487006439229400,2.7842294921875,0,0.0006108652451075613,0
1761487006456054500,2.801054443359375,0.0003054326225537807,0.00045814894838258624,0.00045814894838258624
1761487006472862700,2.81786279296875,0.0007635815418325365,0,-0.0007635815418325365
1761487006489705700,2.834705810546875,0.00015271631127689034,0.00015271631127689034,0
1761487006506529800,2.85152978515625,-0.0003054326225537807,-0.0007635815418325365,0.00015271631127689034
1761487006523338500,2.86833837890625,0,0.00015271631127689034,0
1761487006540180000,2.885179931640625,0,0.0007635815418325365,0
1761487006557006300,2.90200634765625,0,0.0003054326225537807,-0.00015271631127689034
1761487006573830000,2.918829833984375,0,-0.0009162978967651725,0.00015271631127689034
1761487006590651400,2.9356513671875,0,-0.00015271631127689034,0
1761487006607484700,2.952484619140625,-0.0006108652451075613,-0.0009162978967651725,0.0009162978967651725
1761487006624308500,2.96930859375,0,0,0.00015271631127689034
1761487006641129000,2.98612890625,-0.00015271631127689034,-0.0006108652451075613,0.0003054326225537807
1761487006657956600,3.00295654296875,-0.0006108652451075613,0,0
1761487006674779400,3.019779296875,0,0,0
1761487006691612400,3.0366123046875,0,-0.0003054326225537807,0.0007635815418325365
1761487006708417000,3.0534169921875,0.0007635815418325365,-0.0006108652451075613,0
1761487006725219000,3.070218994140625,-0.0006108652451075613,0.00015271631127689034,0.0009162978967651725
1761487006742066200,3.087066162109375,0.00015271631127689034,0.0010690141934901476,0.00015271631127689034
1761487006758893800,3.103893798828125,0,0.00045814894838258624,0.0007635815418325365
1761487006775718000,3.1207177734375,0.0007635815418325365,0.0009162978967651725,0.0009162978967651725
1761487006792543200,3.137543212890625,0.00015271631127689034,0.00015271631127689034,0.00015271631127689034
1761487006809364700,3.15436474609375,0,-0.0006108652451075613,-0.0010690141934901476
1761487006826197500,3.171197509765625,0,-0.00015271631127689034,0.0007635815418325365
1761487006843018500,3.1880185546875,0,0.00015271631127689034,0.00015271631127689034
1761487006859843600,3.204843505859375,-0.0003054326225537807,0,-0.00045814894838258624
1761487006876668400,3.22166845703125,0.0003054326225537807,0.00015271631127689034,0.00015271631127689034
1761487006893494800,3.238494873046875,-0.0003054326225537807,0,-0.00015271631127689034
1761487006910335200,3.255335205078125,0,0.0009162978967651725,0.00015271631127689034
1761487006927158300,3.272158203125,0,0.0009162978967651725,0.0010690141934901476
1761487006943956000,3.2889560546875,0,0.001679879380390048,-0.00015271631127689034
1761487006960810200,3.305810302734375,-0.0007635815418325365,0.00015271631127689034,-0.0003054326225537807
1761487006977612000,3.322612060546875,0.0006108652451075613,-0.0010690141934901476,0
1761487006994456300,3.339456298828125,-0.00015271631127689034,-0.0007635815418325365,0
1761487007011266300,3.356266357421875,0,0.0009162978967651725,0
1761487007028095700,3.373095703125,0,0.00015271631127689034,0
1761487007044917000,3.3899169921875,0.00015271631127689034,-0.0009162978967651725,-0.00015271631127689034
1761487007061745200,3.4067451171875,0,-0.00045814894838258624,0
1761487007078569700,3.42356982421875,-0.00015271631127689034,0,0
1761487007095393000,3.44039306640625,0.0007635815418325365,-0.0006108652451075613,0
1761487007112223200,3.45722314453125,0.00015271631127689034,0.0012217304902151227,-0.00015271631127689034
1761487007129041700,3.474041748046875,0,0.0007635815418325365,-0.0007635815418325365
1761487007145873700,3.490873779296875,0,0,-0.0010690141934901476
1761487007162694400,3.5076943359375,0.0003054326225537807,0.00015271631127689034,-0.0003054326225537807
1761487007179536600,3.52453662109375,-0.0003054326225537807,0.00015271631127689034,0.0007635815418325365
1761487007196342500,3.541342529296875,0,0.00015271631127689034,0
1761487007213169700,3.558169677734375,0.0007635815418325365,0.00045814894838258624,-0.0006108652451075613
1761487007229993500,3.574993408203125,-0.0006108652451075613,0.00045814894838258624,-0.0003054326225537807
1761487007246820900,3.59182080078125,0,-0.00015271631127689034,0.0003054326225537807
1761487007263634400,3.608634521484375,0,0.00015271631127689034,0.00015271631127689034
1761487007280468000,3.625468017578125,-0.0006108652451075613,0,0.0007635815418325365
1761487007297300700,3.64230078125,0,0.00045814894838258624,-0.0003054326225537807
1761487007314121700,3.659121826171875,0,0.0007635815418325365,0
1761487007330946600,3.675946533203125,-0.00045814894838258624,-0.00015271631127689034,0
1761487007347776300,3.6927763671875,0.00015271631127689034,0,0
1761487007364597500,3.709597412109375,0.0003054326225537807,0.00015271631127689034,0
1761487007381421600,3.726421630859375,0,0,-0.00015271631127689034
1761487007398264000,3.74326416015625,0,-0.001832595793530345,-0.0013744467869400978
1761487007415085800,3.7600859375,-0.00045814894838258624,-0.0006108652451075613,-0.00045814894838258624
1761487007431913200,3.776913330078125,0,-0.0003054326225537807,-0.0007635815418325365
1761487007448715500,3.793715576171875,0,-0.00045814894838258624,0.0003054326225537807
1761487007465564700,3.810564697265625,0,-0.0006108652451075613,0.00015271631127689034
1761487007482386000,3.827385986328125,0,0.0006108652451075613,0.00015271631127689034
1761487007499212300,3.84421240234375,0.0003054326225537807,-0.0006108652451075613,0.0007635815418325365
1761487007516038700,3.86103857421875,-0.00045814894838258624,-0.00045814894838258624,-0.0010690141934901476
1761487007532858600,3.877858642578125,0,-0.0010690141934901476,-0.00015271631127689034
1761487007549671700,3.894671630859375,0,-0.0003054326225537807,0.0006108652451075613
1761487007566508300,3.91150830078125,0,0.0003054326225537807,0.0007635815418325365
1761487007583324200,3.92832421875,0,-0.00015271631127689034,-0.00045814894838258624
1761487007600162300,3.945162353515625,0,0.00015271631127689034,0
1761487007616992300,3.9619921875,-0.00015271631127689034,0.0003054326225537807,0.0010690141934901476
1761487007633808000,3.978807861328125,-0.00015271631127689034,0,0.00015271631127689034
1761487007650613200,3.99561328125,0,0.00015271631127689034,-0.0007635815418325365
1761487007667456500,4.01245654296875,-0.0006108652451075613,0.00015271631127689034,0
1761487007684277200,4.02927734375,-0.0007635815418325365,-0.00015271631127689034,-0.0010690141934901476
1761487007701097000,4.046096923828125,-0.0007635815418325365,0,-0.00015271631127689034
1761487007717920500,4.06292041015625,0,0.0010690141934901476,-0.00015271631127689034
1761487007734749200,4.079749267578125,0,0,-0.00045814894838258624
1761487007751561000,4.09656103515625,0.00015271631127689034,-0.0010690141934901476,0.00045814894838258624
1761487007768401000,4.11340087890625,0,0,0
1761487007785223400,4.130223388671875,0,0.0003054326225537807,-0.0007635815418325365
1761487007802049000,4.147049072265625,-0.00015271631127689034,0.00015271631127689034,-0.0007635815418325365
1761487007818873600,4.16387353515625,0,-0.0003054326225537807,0
1761487007835701500,4.180701416015625,-0.00015271631127689034,0.0009162978967651725,-0.0003054326225537807
1761487007852524500,4.197524658203125,0.0003054326225537807,0.00015271631127689034,-0.0010690141934901476
1761487007869349600,4.214349609375,0.00015271631127689034,0.0003054326225537807,-0.00015271631127689034
1761487007886178300,4.23117822265625,0,-0.0006108652451075613,0.0003054326225537807
1761487007903014700,4.2480146484375,-0.00015271631127689034,0.0003054326225537807,-0.0006108652451075613
1761487007919838500,4.26483837890625,0,0.00015271631127689034,-0.0007635815418325365
1761487007936664000,4.2816640625,0.00015271631127689034,-0.0007635815418325365,0.0006108652451075613
1761487007953489000,4.298489013671875,0,-0.0010690141934901476,0.00015271631127689034
1761487007970312400,4.3153125,-0.0003054326225537807,0.00015271631127689034,-0.00015271631127689034
1761487007987136000,4.332135986328125,0,0.0006108652451075613,0.0010690141934901476
1761487008003956200,4.348956298828125,0,0.00015271631127689034,0.0003054326225537807
1761487008020760600,4.365760498046875,0,-0.0003054326225537807,0
1761487008037615000,4.382614990234375,0,0,0
1761487008054439400,4.399439453125,0.0007635815418325365,0.00015271631127689034,-0.00045814894838258624
1761487008071242000,4.416241943359375,0.0007635815418325365,0,0.0003054326225537807
1761487008088066300,4.43306640625,-0.0007635815418325365,0.00015271631127689034,-0.00015271631127689034
1761487008104923100,4.449923095703125,0,0.0006108652451075613,-0.00015271631127689034
1761487008121740300,4.466740234375,0.00015271631127689034,0,-0.00015271631127689034
1761487008138565000,4.483565185546875,-0.0006108652451075613,0.0009162978967651725,-0.0007635815418325365
1761487008155390000,4.500389892578125,-0.0003054326225537807,0.0010690141934901476,0.0003054326225537807
1761487008172216300,4.51721630859375,0,0.00045814894838258624,0
1761487008189040600,4.53404052734375,-0.0006108652451075613,0.0003054326225537807,0
1761487008205848300,4.550848388671875,0.0003054326225537807,0.0007635815418325365,0.00015271631127689034
1761487008222677000,4.567677001953125,0.00015271631127689034,0.0003054326225537807,0.0003054326225537807
1761487008239517400,4.584517333984375,0,-0.00015271631127689034,0
1761487008256327000,4.601326904296875,-0.0003054326225537807,0.00015271631127689034,0
1761487008273152000,4.618152099609375,0,0.00045814894838258624,0
1761487008289977300,4.634977294921875,0,0.00015271631127689034,0.00045814894838258624
1761487008306803500,4.651803466796875,-0.0009162978967651725,-0.00015271631127689034,0
1761487008323627500,4.66862744140625,0,0.00015271631127689034,-0.0007635815418325365
1761487008340449300,4.68544921875,-0.0007635815418325365,0.0007635815418325365,-0.00015271631127689034
1761487008357280800,4.70228076171875,-0.0007635815418325365,0.0010690141934901476,0.0010690141934901476
1761487008374103800,4.719103759765625,0,0.0009162978967651725,-0.0012217304902151227
1761487008390944800,4.73594482421875,0.00015271631127689034,-0.00015271631127689034,-0.0007635815418325365
1761487008407751000,4.7527509765625,0,0.0012217304902151227,0.00045814894838258624
1761487008424591600,4.769591552734375,-0.0006108652451075613,0.00015271631127689034,0
1761487008441398500,4.7863984375,0.0003054326225537807,0.00015271631127689034,-0.00015271631127689034
1761487008458229500,4.8032294921875,0.00015271631127689034,0.00045814894838258624,-0.0003054326225537807
1761487008475063000,4.82006298828125,-0.0006108652451075613,0.0007635815418325365,-0.00015271631127689034
1761487008491921700,4.836921630859375,-0.00015271631127689034,-0.0003054326225537807,0.0010690141934901476
1761487008508718600,4.853718505859375,0,-0.0009162978967651725,0.0007635815418325365
1761487008525539000,4.8705390625,0,-0.0003054326225537807,0.00015271631127689034
1761487008542370800,4.887370849609375,0.0007635815418325365,-0.0003054326225537807,-0.0003054326225537807
1761487008559191800,4.90419189453125,0.0003054326225537807,0.0006108652451075613,0.0007635815418325365
1761487008576019700,4.921019775390625,0,0.0003054326225537807,-0.00015271631127689034
1761487008592843000,4.937843017578125,0,-0.0009162978967651725,-0.0010690141934901476
1761487008609667600,4.95466748046875,-0.0007635815418325365,-0.0003054326225537807,0.0006108652451075613
1761487008626500400,4.971500244140625,0,0.00015271631127689034,-0.00015271631127689034
1761487008643321300,4.9883212890625,0,-0.0009162978967651725,0.0010690141934901476
1761487008660145700,5.005145751953125,0,0,-0.0007635815418325365
1761487008676968000,5.021968017578125,0,0,0.00015271631127689034
1761487008693776100,5.038776123046875,0,-0.0009162978967651725,0
1761487008710605800,5.055605712890625,0.0007635815418325365,0.00045814894838258624,0
1761487008727429600,5.0724296875,-0.0009162978967651725,0.0007635815418325365,0
1761487008744255000,5.0892548828125,0,0.00015271631127689034,0.0007635815418325365
1761487008761080000,5.106080078125,-0.0006108652451075613,-0.00015271631127689034,0.0003054326225537807
1761487008777905700,5.12290576171875,0.00015271631127689034,0,-0.0007635815418325365
1761487008794731000,5.13973095703125,0.00015271631127689034,0,-0.00015271631127689034
1761487008811555000,5.15655517578125,-0.0006108652451075613,0,0.00015271631127689034
1761487008828367400,5.173367431640625,0.0003054326225537807,0,0
1761487008845206500,5.19020654296875,-0.00015271631127689034,0,-0.0006108652451075613
1761487008862030800,5.20703076171875,0.00015271631127689034,-0.0007635815418325365,0.0007635815418325365
1761487008878872600,5.22387255859375,0.00045814894838258624,-0.00015271631127689034,0.00015271631127689034
1761487008895678200,5.24067822265625,0.00015271631127689034,0.0007635815418325365,-0.00015271631127689034
1761487008912521000,5.25752099609375,0.0007635815418325365,-0.00015271631127689034,0.00015271631127689034
1761487008929345000,5.274344970703125,-0.00015271631127689034,0,-0.0010690141934901476
1761487008946169900,5.291169921875,0.00015271631127689034,-0.0007635815418325365,0.0012217304902151227
1761487008962994700,5.30799462890625,0.00015271631127689034,0.0007635815418325365,0.0003054326225537807
1761487008979821000,5.324821044921875,0.00015271631127689034,-0.0006108652451075613,0.0010690141934901476
1761487008996645400,5.341645263671875,0.00015271631127689034,0,0.0007635815418325365
1761487009013470000,5.358469970703125,-0.0009162978967651725,0.0007635815418325365,0.00015271631127689034
1761487009030295000,5.375294921875,0,0.00045814894838258624,0
1761487009047121700,5.39212158203125,0.00045814894838258624,0.0003054326225537807,-0.0007635815418325365
1761487009063928800,5.4089287109375,0.00015271631127689034,-0.00015271631127689034,-0.0007635815418325365
1761487009080770600,5.4257705078125,-0.0009162978967651725,0.0006108652451075613,0.0003054326225537807
1761487009097593000,5.442593017578125,0.00015271631127689034,-0.00015271631127689034,-0.0006108652451075613
1761487009114424000,5.459424072265625,0,0,0
1761487009131237000,5.476237060546875,0.0010690141934901476,0,-0.0010690141934901476
1761487009148070700,5.493070556640625,0.0009162978967651725,0,-0.00045814894838258624
1761487009164896800,5.509896728515625,0.00015271631127689034,0.0003054326225537807,0.0003054326225537807
1761487009181704700,5.52670458984375,-0.00015271631127689034,0.0006108652451075613,0.0003054326225537807
1761487009198532600,5.54353271484375,0.00015271631127689034,0,0.00045814894838258624
1761487009215357400,5.560357421875,-0.00015271631127689034,-0.0012217304902151227,0.00015271631127689034
1761487009232182500,5.5771826171875,0.00015271631127689034,0,0.00015271631127689034
1761487009249009000,5.5940087890625,0.00015271631127689034,0,0.0003054326225537807
1761487009265833500,5.61083349609375,0.00015271631127689034,0,-0.001679879380390048
1761487009282656300,5.62765625,0,-0.0006108652451075613,0
1761487009299483100,5.644483154296875,0.00015271631127689034,0,0.0007635815418325365
1761487009316309200,5.661309326171875,0.00015271631127689034,0,0
1761487009333130800,5.678130859375,-0.0006108652451075613,0.00015271631127689034,-0.0003054326225537807
1761487009349960700,5.694960693359375,0,0,0.0009162978967651725
1761487009366800400,5.71180029296875,-0.0007635815418325365,-0.00015271631127689034,-0.0006108652451075613
1761487009383615700,5.72861572265625,0,-0.0006108652451075613,0.0003054326225537807
1761487009400454700,5.74545458984375,0,0,-0.0003054326225537807
1761487009417279500,5.762279541015625,0.00015271631127689034,0,-0.0007635815418325365
1761487009434093600,5.779093505859375,0.00015271631127689034,-0.00015271631127689034,0.0009162978967651725
1761487009450927900,5.795927978515625,-0.0007635815418325365,-0.0003054326225537807,-0.0006108652451075613
1761487009467747600,5.81274755859375,0.00015271631127689034,-0.0003054326225537807,0
1761487009484550100,5.829550048828125,0.00015271631127689034,-0.0006108652451075613,0.0003054326225537807
1761487009501393700,5.8463935546875,-0.0009162978967651725,-0.00015271631127689034,-0.0003054326225537807
1761487009518241300,5.8632412109375,0,0,0.00015271631127689034
1761487009535043800,5.8800439453125,0.00045814894838258624,0,0.0003054326225537807
1761487009551850000,5.89685009765625,0.00015271631127689034,-0.00015271631127689034,0
1761487009568698400,5.913698486328125,0.00015271631127689034,-0.0003054326225537807,-0.0003054326225537807
1761487009585524200,5.930524169921875,-0.0006108652451075613,-0.0007635815418325365,-0.00045814894838258624
1761487009602348300,5.947348388671875,-0.00015271631127689034,0.00015271631127689034,0.00015271631127689034
1761487009619179000,5.964178955078125,0.0003054326225537807,0,-0.00015271631127689034
1761487009635992000,5.980991943359375,0,0.00015271631127689034,0.0003054326225537807
1761487009652824800,5.997824951171875,0,-0.0007635815418325365,0.0009162978967651725
1761487009669629700,6.014629638671875,-0.0007635815418325365,0.0007635815418325365,0.00015271631127689034
1761487009686462500,6.03146240234375,0.00015271631127689034,-0.0006108652451075613,0
1761487009703285200,6.04828515625,0.00015271631127689034,-0.0003054326225537807,0
1761487009720111400,6.065111328125,0.00015271631127689034,-0.0007635815418325365,-0.00015271631127689034
1761487009736936000,6.08193603515625,-0.00015271631127689034,-0.0003054326225537807,0
1761487009753758200,6.09875830078125,-0.0007635815418325365,0,-0.0003054326225537807
1761487009770588200,6.115588134765625,0.00015271631127689034,0.0003054326225537807,0.0006108652451075613
1761487009787401500,6.1324013671875,0.00015271631127689034,0,-0.0010690141934901476
1761487009804235800,6.14923583984375,-0.0003054326225537807,0.00015271631127689034,0.0003054326225537807
1761487009821060900,6.166060791015625,0.00015271631127689034,0,0.0007635815418325365
1761487009837886000,6.182885986328125,0.00015271631127689034,0.00015271631127689034,0
1761487009854715400,6.19971533203125,0.00045814894838258624,0.00045814894838258624,0
1761487009871550200,6.21655029296875,0,0,-0.0003054326225537807
1761487009888375800,6.233375732421875,-0.0006108652451075613,0,-0.0006108652451075613
1761487009905199900,6.250199951171875,0.0003054326225537807,0,-0.0003054326225537807
1761487009922026000,6.26702587890625,-0.0007635815418325365,0.00015271631127689034,0.00045814894838258624
1761487009938851000,6.28385107421875,0.00015271631127689034,0,0
1761487009955675100,6.300675048828125,0.00015271631127689034,0.00045814894838258624,0
1761487009972500700,6.317500732421875,-0.0006108652451075613,0.00015271631127689034,0.00015271631127689034
1761487009989313000,6.33431298828125,0.00015271631127689034,0,-0.0006108652451075613
1761487010006146800,6.351146728515625,-0.00015271631127689034,0.0007635815418325365,-0.0003054326225537807
1761487010022979800,6.367979736328125,0.00015271631127689034,-0.0007635815418325365,0.00015271631127689034
1761487010039800600,6.384800537109375,0,0.0009162978967651725,-0.0007635815418325365
1761487010056622600,6.40162255859375,0.0009162978967651725,-0.0006108652451075613,0
1761487010073455000,6.418455078125,0.0007635815418325365,-0.0007635815418325365,0
1761487010090259500,6.435259521484375,0.0009162978967651725,-0.0009162978967651725,0.00015271631127689034
1761487010107101000,6.452100830078125,0.00015271631127689034,-0.00015271631127689034,0
1761487010123911200,6.4689111328125,-0.0003054326225537807,0,0.00045814894838258624
1761487010140746500,6.48574658203125,-0.0007635815418325365,0.0007635815418325365,-0.0003054326225537807
1761487010157563400,6.5025634765625,0.00015271631127689034,-0.0006108652451075613,0
1761487010174387700,6.5193876953125,0.0003054326225537807,-0.0007635815418325365,-0.00015271631127689034
1761487010191213800,6.5362138671875,0.00015271631127689034,-0.0003054326225537807,0.0003054326225537807
1761487010208036400,6.553036376953125,-0.00015271631127689034,0.0003054326225537807,0.0007635815418325365
1761487010224848600,6.5698486328125,-0.0006108652451075613,0.00015271631127689034,-0.0007635815418325365
1761487010241691400,6.58669140625,0.00015271631127689034,-0.00015271631127689034,-0.0007635815418325365
1761487010258514200,6.60351416015625,0.0007635815418325365,0.0003054326225537807,0.001832595793530345
1761487010275341600,6.620341552734375,-0.0006108652451075613,0.00015271631127689034,0.00015271631127689034
1761487010292157400,6.637157470703125,0,0.00015271631127689034,0.00015271631127689034
1761487010308991500,6.653991455078125,-0.0006108652451075613,-0.00015271631127689034,0.0003054326225537807
1761487010325814500,6.670814453125,0.0003054326225537807,0.0003054326225537807,-0.0006108652451075613
1761487010342638600,6.687638671875,0,0.00015271631127689034,0
1761487010359477500,6.7044775390625,-0.0003054326225537807,-0.00015271631127689034,0.0007635815418325365
1761487010376306200,6.72130615234375,-0.00015271631127689034,0.00015271631127689034,0
1761487010393128400,6.73812841796875,0.00015271631127689034,0.00015271631127689034,0.00015271631127689034
1761487010409950200,6.7549501953125,-0.0006108652451075613,0.00015271631127689034,0.0003054326225537807
1761487010426776000,6.771776123046875,-0.0006108652451075613,-0.0003054326225537807,0.00015271631127689034
1761487010443592400,6.788592529296875,0.00015271631127689034,0.0009162978967651725,-0.0003054326225537807
1761487010460432400,6.805432373046875,0.00015271631127689034,0,0.0007635815418325365
1761487010477253000,6.822253173828125,0.00015271631127689034,0.00015271631127689034,-0.00015271631127689034
1761487010494078000,6.839077880859375,-0.0006108652451075613,-0.0007635815418325365,-0.00045814894838258624
1761487010510903000,6.855903076171875,0,0,-0.0003054326225537807
1761487010527729200,6.872729248046875,0.00015271631127689034,0.00015271631127689034,0
1761487010544534800,6.88953466796875,-0.0006108652451075613,-0.0006108652451075613,0.00015271631127689034
1761487010561380400,6.90638037109375,0,-0.0007635815418325365,0
1761487010578203400,6.923203369140625,0.0003054326225537807,-0.00015271631127689034,0.0003054326225537807
1761487010595029800,6.94002978515625,0.00015271631127689034,0.00015271631127689034,0
1761487010611837200,6.956837158203125,0.00015271631127689034,-0.0003054326225537807,0
1761487010628671000,6.9736708984375,0.00015271631127689034,-0.0007635815418325365,-0.0003054326225537807
1761487010645473800,6.990473876953125,0.00015271631127689034,0.00015271631127689034,-0.0007635815418325365
1761487010662316300,7.00731640625,0.00015271631127689034,0.00045814894838258624,0.0007635815418325365
1761487010679140600,7.024140625,0.00015271631127689034,0,0
1761487010695952400,7.040952392578125,0.00015271631127689034,0,-0.00015271631127689034
1761487010712777500,7.057777587890625,0.00015271631127689034,0.0003054326225537807,0
1761487010729616600,7.07461669921875,0,0.00015271631127689034,0.0010690141934901476
1761487010746440700,7.091440673828125,0.00015271631127689034,0,-0.0009162978967651725
1761487010763265800,7.108265869140625,0.00015271631127689034,0.00015271631127689034,0.0006108652451075613
1761487010780085200,7.125085205078125,0.00015271631127689034,0.0009162978967651725,-0.0007635815418325365
1761487010796917000,7.1419169921875,0.0007635815418325365,0.00015271631127689034,-0.0003054326225537807
1761487010813741000,7.158740966796875,0.0003054326225537807,0.00015271631127689034,0
1761487010830555000,7.175554931640625,0.00015271631127689034,0.00015271631127689034,0.00015271631127689034
1761487010847408600,7.19240869140625,0.00015271631127689034,-0.0003054326225537807,0.00015271631127689034
1761487010864232000,7.20923193359375,0,0.00045814894838258624,0.00045814894838258624
1761487010881055000,7.226054931640625,-0.00015271631127689034,0,-0.0003054326225537807
1761487010897903600,7.242903564453125,-0.0007635815418325365,0.0003054326225537807,0.00015271631127689034
1761487010914705400,7.259705322265625,0,0.00015271631127689034,0
1761487010931552800,7.276552734375,0.00015271631127689034,0.00015271631127689034,-0.0003054326225537807
1761487010948355800,7.29335595703125,0.00015271631127689034,0.00015271631127689034,0
1761487010965181200,7.31018115234375,0.00045814894838258624,0.00015271631127689034,0.0003054326225537807
1761487010982005500,7.327005615234375,0.00015271631127689034,0.00015271631127689034,-0.0003054326225537807
1761487010998832000,7.34383203125,0.0003054326225537807,0,0.0007635815418325365
1761487011015655700,7.36065576171875,0.00015271631127689034,-0.0007635815418325365,0
1761487011032480800,7.377480712890625,0.00015271631127689034,0.00015271631127689034,0.0003054326225537807
1761487011049306000,7.39430615234375,0,0.00015271631127689034,-0.00015271631127689034
1761487011066132200,7.41113232421875,0.00015271631127689034,0.00015271631127689034,0.00015271631127689034
1761487011082956500,7.42795654296875,0,0,0.00015271631127689034
1761487011099781000,7.444781005859375,0.0003054326225537807,-0.0007635815418325365,0.00015271631127689034
1761487011116606000,7.46160595703125,0.00015271631127689034,-0.0006108652451075613,-0.0006108652451075613
1761487011133415200,7.478415283203125,0.00015271631127689034,0.00045814894838258624,0
1761487011150230300,7.495230224609375,0.00015271631127689034,0.00015271631127689034,0.0003054326225537807
1761487011167067600,7.512067626953125,0.00015271631127689034,-0.00015271631127689034,0.0007635815418325365
1761487011183906300,7.52890625,0.00015271631127689034,-0.00015271631127689034,-0.0007635815418325365
1761487011200719000,7.545718994140625,0.00015271631127689034,0.0003054326225537807,0.00015271631127689034
1761487011217543000,7.56254296875,0.0007635815418325365,-0.0009162978967651725,0.0006108652451075613
1761487011234368000,7.579367919921875,0.00015271631127689034,0.00015271631127689034,0
1761487011251180500,7.5961806640625,0.00015271631127689034,-0.0009162978967651725,0.0009162978967651725
1761487011268019200,7.613019287109375,0.00015271631127689034,-0.00045814894838258624,0.0009162978967651725
1761487011284843300,7.62984326171875,0.00015271631127689034,0.0009162978967651725,-0.0006108652451075613
1761487011301668400,7.64666845703125,-0.0006108652451075613,0.0003054326225537807,-0.0006108652451075613
1761487011318494000,7.663493896484375,0,0.00015271631127689034,-0.0003054326225537807
1761487011335336700,7.680336669921875,0.00015271631127689034,0.0007635815418325365,-0.0012217304902151227
1761487011352158700,7.69715869140625,0,0.00015271631127689034,0.0003054326225537807
1761487011368982500,7.713982421875,0,0.0003054326225537807,-0.0010690141934901476
1761487011385807400,7.730807373046875,0,0,0
1761487011402623700,7.747623779296875,0,0.00015271631127689034,0.00045814894838258624
1761487011419449900,7.764449951171875,0.00015271631127689034,0,0.0003054326225537807
1761487011436290000,7.7812900390625,0.00015271631127689034,0.00015271631127689034,-0.0007635815418325365
1761487011453108500,7.7981083984375,0,0.00015271631127689034,-0.0010690141934901476
1761487011469934300,7.814934326171875,0.0007635815418325365,0.0009162978967651725,0.0007635815418325365
1761487011486759400,7.831759521484375,0.00045814894838258624,0,0.00045814894838258624
1761487011503589600,7.848589599609375,0.00015271631127689034,-0.0013744467869400978,-0.0006108652451075613
1761487011520408300,7.865408203125,0.0007635815418325365,0.00015271631127689034,0
1761487011537234200,7.882234130859375,0.00015271631127689034,-0.0006108652451075613,0
1761487011554042400,7.89904248046875,0.00015271631127689034,0.00015271631127689034,0.0003054326225537807
1761487011570883600,7.915883544921875,0.00015271631127689034,-0.00015271631127689034,-0.0009162978967651725
1761487011587708700,7.932708740234375,-0.0003054326225537807,0.00015271631127689034,0
1761487011604534500,7.949534423828125,0,0.0009162978967651725,0.0007635815418325365
1761487011621339400,7.96633935546875,0.00015271631127689034,-0.00015271631127689034,-0.0006108652451075613
1761487011638170000,7.983170166015625,0.00015271631127689034,0.00015271631127689034,0.0007635815418325365
1761487011655009500,8.000009521484374,0.00015271631127689034,-0.0009162978967651725,-0.00015271631127689034
1761487011671819300,8.0168193359375,0.00015271631127689034,-0.0003054326225537807,0.0012217304902151227
1761487011688645000,8.03364501953125,0,-0.00045814894838258624,0
1761487011705470500,8.050470458984375,0.0003054326225537807,-0.00015271631127689034,-0.0003054326225537807
1761487011722309000,8.06730908203125,-0.0007635815418325365,-0.00015271631127689034,0.00015271631127689034
1761487011739108900,8.08410888671875,0,0.0012217304902151227,-0.0006108652451075613
1761487011755945500,8.100945556640625,0,0.0003054326225537807,0.0009162978967651725
1761487011772770800,8.117770751953126,0,0.00015271631127689034,0
1761487011789595600,8.134595703125,0,-0.0007635815418325365,0
1761487011806428000,8.151427978515626,0,0.00015271631127689034,0.0006108652451075613
1761487011823249200,8.168249267578124,0,-0.0003054326225537807,0
1761487011840080600,8.18508056640625,0,0.00015271631127689034,-0.00015271631127689034
1761487011856910600,8.20191064453125,-0.0003054326225537807,-0.00015271631127689034,0.0006108652451075613
1761487011873727700,8.218727783203125,0,0,0.0009162978967651725
1761487011890559700,8.235559814453126,0.0007635815418325365,0.00045814894838258624,-0.0006108652451075613
1761487011907400000,8.25239990234375,0,-0.0006108652451075613,0.00045814894838258624
1761487011924218000,8.269218017578124,0,0.00015271631127689034,0.0009162978967651725
1761487011941040400,8.286040283203125,-0.0003054326225537807,-0.00045814894838258624,0
1761487011957860400,8.3028603515625,0,0.00015271631127689034,-0.0003054326225537807
1761487011974685400,8.319685546875,-0.0007635815418325365,-0.0007635815418325365,-0.0007635815418325365
1761487011991510800,8.3365107421875,0,0.0007635815418325365,-0.0003054326225537807
1761487012008336400,8.35333642578125,0.0007635815418325365,-0.00015271631127689034,0.00015271631127689034
1761487012025160400,8.370160400390626,0,0.0007635815418325365,0
1761487012041986000,8.386986083984375,0,-0.0006108652451075613,0.00015271631127689034
1761487012058811000,8.403810791015625,0.0003054326225537807,-0.00015271631127689034,-0.0007635815418325365
1761487012075633000,8.4206328125,0,-0.0007635815418325365,0
1761487012092461600,8.437461669921875,0,0.00045814894838258624,-0.0009162978967651725
1761487012109272800,8.45427294921875,0,0.0007635815418325365,0.0006108652451075613
1761487012126084600,8.471084716796875,0,0.00015271631127689034,0
1761487012142923500,8.487923583984376,0,0.00015271631127689034,0
1761487012159732500,8.504732421875,-0.0007635815418325365,0,0
1761487012176571100,8.521571044921876,-0.0007635815418325365,0.0006108652451075613,0.00015271631127689034
1761487012193399300,8.5383994140625,-0.0007635815418325365,0.0003054326225537807,0
1761487012210240800,8.55524072265625,0,-0.00015271631127689034,-0.0007635815418325365
1761487012227044400,8.57204443359375,0.00015271631127689034,-0.00015271631127689034,-0.0003054326225537807
1761487012243869400,8.588869384765625,0.0003054326225537807,-0.0006108652451075613,0.0010690141934901476
1761487012260701400,8.605701416015625,0.0007635815418325365,-0.0009162978967651725,0.0007635815418325365
1761487012277524200,8.622524169921874,0,-0.00015271631127689034,0.00015271631127689034
1761487012294344700,8.6393447265625,0,0.00015271631127689034,0.00015271631127689034
1761487012311163400,8.656163330078124,0,0.0007635815418325365,-0.0006108652451075613
1761487012328015400,8.673015380859376,-0.0003054326225537807,-0.00015271631127689034,-0.00015271631127689034
1761487012344818000,8.68981787109375,-0.0003054326225537807,0.00015271631127689034,0
1761487012361649000,8.70664892578125,-0.0006108652451075613,-0.0010690141934901476,0.0007635815418325365
1761487012378487300,8.7234873046875,-0.0003054326225537807,0.0010690141934901476,-0.00045814894838258624
1761487012395310600,8.740310546875,0,0.00015271631127689034,0
1761487012412139300,8.75713916015625,0,0.00015271631127689034,-0.0007635815418325365
1761487012428946700,8.77394677734375,0,0.00015271631127689034,0.00045814894838258624
1761487012445779200,8.790779296875,0,0.0006108652451075613,0.0009162978967651725
1761487012462621200,8.80762109375,0.00045814894838258624,0,0
1761487012479438800,8.82443896484375,0,0.00015271631127689034,-0.0006108652451075613
1761487012496263000,8.841262939453125,0,0.0009162978967651725,-0.0010690141934901476
1761487012513082000,8.85808203125,0,-0.00015271631127689034,-0.00015271631127689034
1761487012529933000,8.87493310546875,0,0.00015271631127689034,0.00015271631127689034
1761487012546720000,8.891719970703125,0,-0.0009162978967651725,0.00015271631127689034
1761487012563560700,8.908560791015624,-0.0007635815418325365,-0.0006108652451075613,0.00015271631127689034
1761487012580384800,8.925384765625,0,0.00015271631127689034,0.0009162978967651725
1761487012597203700,8.94220361328125,0,-0.0006108652451075613,-0.00045814894838258624
1761487012614012700,8.9590126953125,0,0.0007635815418325365,0.0006108652451075613
1761487012630849500,8.975849609375,-0.0007635815418325365,0.0007635815418325365,0
1761487012647671800,8.992671875,0,-0.0006108652451075613,0
1761487012664502800,9.009502685546876,0,0.00015271631127689034,-0.00045814894838258624
1761487012681325800,9.026325927734375,0,-0.00015271631127689034,0
1761487012698167000,9.0431669921875,-0.0009162978967651725,0,-0.00015271631127689034
1761487012714971400,9.059971435546874,0,0.00015271631127689034,-0.00015271631127689034
1761487012731800300,9.07680029296875,0,-0.0006108652451075613,-0.0007635815418325365
1761487012748625200,9.093625244140625,0.0003054326225537807,0.00015271631127689034,-0.00015271631127689034
1761487012765447200,9.110447265625,-0.00015271631127689034,-0.0003054326225537807,0
1761487012782275300,9.127275390625,0,0.00015271631127689034,-0.0003054326225537807
1761487012799100400,9.144100341796875,0,0.00015271631127689034,0.00015271631127689034
1761487012815943400,9.160943359375,0.0012217304902151227,-0.0003054326225537807,0.0003054326225537807
1761487012832764400,9.177764404296875,-0.00015271631127689034,-0.00015271631127689034,-0.00015271631127689034
1761487012849589500,9.194589599609374,0,-0.0003054326225537807,0.00015271631127689034
1761487012866414000,9.2114140625,0,0,-0.0003054326225537807
1761487012883240700,9.22824072265625,0,0,0.0007635815418325365
1761487012900064300,9.245064208984376,-0.0007635815418325365,-0.0006108652451075613,0
1761487012916868900,9.261868896484375,0,-0.00015271631127689034,-0.00045814894838258624
1761487012933718800,9.27871875,0.0007635815418325365,0.0006108652451075613,0.0009162978967651725
1761487012950523400,9.2955234375,0,0.00015271631127689034,-0.00045814894838258624
1761487012967366100,9.3123662109375,-0.0009162978967651725,-0.0006108652451075613,0.0007635815418325365
1761487012984190200,9.329190185546874,0.0006108652451075613,-0.00045814894838258624,-0.00015271631127689034
1761487013000984600,9.345984619140625,-0.00015271631127689034,0.0009162978967651725,-0.0003054326225537807
1761487013017841000,9.3628408203125,-0.0007635815418325365,0.00015271631127689034,0.0007635815418325365
1761487013034636300,9.37963623046875,0.00015271631127689034,0,0.00045814894838258624
1761487013051486000,9.39648583984375,-0.0003054326225537807,0,0.0010690141934901476
1761487013068312000,9.41331201171875,-0.0007635815418325365,0.00015271631127689034,-0.0009162978967651725
1761487013085131300,9.43013134765625,0,-0.00015271631127689034,-0.00045814894838258624
1761487013101951700,9.44695166015625,0,0.002138028386980295,0.0009162978967651725
1761487013118776600,9.463776611328125,0,0.00015271631127689034,0.002138028386980295
1761487013135602000,9.480601806640625,0,-0.0012217304902151227,0.002138028386980295
1761487013152428000,9.497427978515624,0,-0.003512475173920393,0.002138028386980295
1761487013169254100,9.514254150390625,0,-0.005497787147760391,0.0012217304902151227
1761487013186092000,9.531092041015626,0,-0.00366519158706069,0.0013744467869400978
1761487013202898400,9.5478984375,-0.00015271631127689034,-0.001679879380390048,0.0012217304902151227
