time,seconds_elapsed,z,y,x
1761486947897245400,0.130245361328125,0.00015271631127689034,-0.0010690141934901476,0.0013744467869400978
1761486947913570000,0.146570068359375,-0.0006108652451075613,0.0009162978967651725,0.00015271631127689034
1761486947930395100,0.16339501953125,-0.0006108652451075613,0.00015271631127689034,0.00015271631127689034
1761486947947237600,0.180237548828125,0.00015271631127689034,0.00015271631127689034,0.00015271631127689034
1761486947964066600,0.197066650390625,-0.0006108652451075613,0.00045814894838258624,0.00015271631127689034
1761486947980871700,0.21387158203125,0.00015271631127689034,0.00015271631127689034,-0.00015271631127689034
1761486947997709600,0.23070947265625,0.00015271631127689034,0.0006108652451075613,0.00015271631127689034
1761486948014538800,0.247538818359375,0,0.0006108652451075613,0.00015271631127689034
1761486948031368000,0.264367919921875,0.00015271631127689034,-0.00045814894838258624,-0.0003054326225537807
1761486948048189400,0.281189453125,0.00015271631127689034,0.0009162978967651725,-0.0009162978967651725
1761486948065012200,0.29801220703125,-0.0006108652451075613,0.0003054326225537807,0.00045814894838258624
1761486948081843500,0.314843505859375,0.00015271631127689034,-0.0003054326225537807,-0.0009162978967651725
1761486948098665700,0.331665771484375,0.00045814894838258624,0.00015271631127689034,-0.00045814894838258624
1761486948115491300,0.3484912109375,0.00015271631127689034,0.0003054326225537807,0.0003054326225537807
1761486948132317000,0.36531689453125,0.00015271631127689034,-0.0009162978967651725,0.00045814894838258624
1761486948149142000,0.38214208984375,0.00015271631127689034,0.0003054326225537807,0.0006108652451075613
1761486948165962000,0.3989619140625,0.00015271631127689034,-0.0006108652451075613,0.0009162978967651725
1761486948182793000,0.41579296875,0.00015271631127689034,0.00045814894838258624,-0.0009162978967651725
1761486948199618600,0.43261865234375,0.0009162978967651725,0.0010690141934901476,0.0013744467869400978
1761486948216426200,0.44942626953125,0.00015271631127689034,0,0.0003054326225537807
1761486948233255200,0.466255126953125,0.00015271631127689034,-0.0009162978967651725,-0.00045814894838258624
1761486948250080000,0.483080078125,0.00015271631127689034,0.00015271631127689034,-0.0009162978967651725
1761486948266905900,0.49990576171875,0,0.00015271631127689034,0.00045814894838258624
1761486948283731500,0.5167314453125,0,0.0009162978967651725,0.0009162978967651725
1761486948300556800,0.533556884765625,0.00015271631127689034,-0.0003054326225537807,-0.00045814894838258624
1761486948317394000,0.550393798828125,0.00015271631127689034,0.0010690141934901476,0.0003054326225537807
1761486948334238200,0.56723828125,-0.0006108652451075613,0.00015271631127689034,-0.0007635815418325365
1761486948351047000,0.584046875,0,0.0003054326225537807,0.0009162978967651725
1761486948367868000,0.600867919921875,0.00015271631127689034,-0.0003054326225537807,0.0006108652451075613
1761486948384684500,0.6176845703125,0,0.0003054326225537807,-0.0006108652451075613
1761486948401509400,0.63450927734375,-0.0006108652451075613,-0.00045814894838258624,0.00015271631127689034
1761486948418334500,0.65133447265625,0.00015271631127689034,0.0009162978967651725,0.0003054326225537807
1761486948435156700,0.66815673828125,-0.0009162978967651725,0,-0.0003054326225537807
1761486948451986000,0.68498583984375,0.0003054326225537807,-0.0006108652451075613,0.00015271631127689034
1761486948468810200,0.701810302734375,0.00015271631127689034,0.00045814894838258624,0.00045814894838258624
1761486948485653200,0.7186533203125,0.00015271631127689034,-0.00015271631127689034,-0.0003054326225537807
1761486948502475300,0.735475341796875,0.00015271631127689034,0.00045814894838258624,0.00015271631127689034
1761486948519284000,0.752283935546875,0.00015271631127689034,-0.0006108652451075613,-0.0006108652451075613
1761486948536121600,0.76912158203125,-0.00015271631127689034,0.00015271631127689034,0.00015271631127689034
1761486948552955400,0.785955322265625,0.00015271631127689034,0.00015271631127689034,0.00045814894838258624
1761486948569777000,0.80277685546875,0.00015271631127689034,-0.00015271631127689034,0.0009162978967651725
1761486948586602200,0.819602294921875,-0.00015271631127689034,0.00045814894838258624,0.00015271631127689034
1761486948603412700,0.836412841796875,0.00015271631127689034,0.00045814894838258624,0
1761486948620234000,0.85323388671875,0,0.00015271631127689034,-0.0007635815418325365
1761486948637083000,0.870082763671875,0.00015271631127689034,0.0006108652451075613,-0.0007635815418325365
1761486948653887200,0.88688720703125,0,0.00015271631127689034,-0.0009162978967651725
1761486948670698500,0.903698486328125,-0.0003054326225537807,-0.0006108652451075613,-0.0009162978967651725
1761486948687555300,0.920555419921875,0.00015271631127689034,-0.0009162978967651725,0.0009162978967651725
1761486948704362200,0.9373623046875,0.00015271631127689034,0.00045814894838258624,-0.0003054326225537807
1761486948721191700,0.954191650390625,0.00015271631127689034,0.00015271631127689034,0.00015271631127689034
1761486948738017300,0.971017333984375,-0.0007635815418325365,0.00045814894838258624,-0.0006108652451075613
1761486948754842400,0.98784228515625,0,0.00045814894838258624,0.00045814894838258624
1761486948771661300,1.004661376953125,0,0.00045814894838258624,0.00015271631127689034
1761486948788490000,1.021489990234375,0.00015271631127689034,0.0003054326225537807,-0.00045814894838258624
1761486948805321700,1.03832177734375,-0.00015271631127689034,0.00045814894838258624,-0.0010690141934901476
1761486948822144000,1.05514404296875,-0.00045814894838258624,-0.0007635815418325365,0
1761486948838978600,1.071978515625,0.00015271631127689034,0.00015271631127689034,-0.0007635815418325365
1761486948855816200,1.088816162109375,0.00015271631127689034,0.0009162978967651725,0.00045814894838258624
1761486948872617000,1.105616943359375,0.00015271631127689034,0.00015271631127689034,0.00015271631127689034
1761486948889445600,1.122445556640625,0.00015271631127689034,-0.0006108652451075613,-0.0006108652451075613
1761486948906257700,1.139257568359375,0.00015271631127689034,0.0003054326225537807,0.0003054326225537807
1761486948923094000,1.156093994140625,-0.0010690141934901476,-0.00045814894838258624,0
1761486948939924200,1.17292431640625,-0.0009162978967651725,0.0009162978967651725,0.00045814894838258624
1761486948956747000,1.1897470703125,-0.0009162978967651725,0.0003054326225537807,0
1761486948973585700,1.206585693359375,-0.00015271631127689034,0.0003054326225537807,-0.0006108652451075613
1761486948990415600,1.22341552734375,0.00015271631127689034,-0.0010690141934901476,-0.00045814894838258624
1761486949007237400,1.2402373046875,0.00015271631127689034,0.0009162978967651725,0
1761486949024059100,1.25705908203125,0.00015271631127689034,0.00015271631127689034,-0.00045814894838258624
1761486949040891100,1.27389111328125,0.00015271631127689034,-0.0006108652451075613,-0.0006108652451075613
1761486949057713700,1.290713623046875,0.00015271631127689034,0,-0.0003054326225537807
1761486949074534400,1.307534423828125,0,0.0010690141934901476,-0.0009162978967651725
1761486949091368000,1.324367919921875,-0.0006108652451075613,0,0.00015271631127689034
1761486949108189400,1.341189453125,-0.0007635815418325365,0.00045814894838258624,-0.0006108652451075613
1761486949124985000,1.357985107421875,0.00015271631127689034,-0.00015271631127689034,0.00015271631127689034
1761486949141854000,1.37485400390625,0.00015271631127689034,-0.00045814894838258624,-0.0009162978967651725
1761486949158665500,1.39166552734375,0,0,0.0006108652451075613
1761486949175471600,1.4084716796875,0.00015271631127689034,0.0003054326225537807,-0.00045814894838258624
1761486949192301300,1.42530126953125,0.00015271631127689034,-0.0006108652451075613,-0.0012217304902151227
1761486949209128000,1.4421279296875,0.0012217304902151227,-0.0006108652451075613,0
1761486949225964000,1.458964111328125,0.00015271631127689034,0.0006108652451075613,0.0010690141934901476
1761486949242775300,1.475775390625,0.00015271631127689034,0.00015271631127689034,0.0009162978967651725
1761486949259607300,1.492607177734375,0.00015271631127689034,0.00015271631127689034,0.0006108652451075613
1761486949276430000,1.50943017578125,-0.0006108652451075613,-0.0003054326225537807,0
1761486949293258500,1.526258544921875,0,-0.0006108652451075613,0.0006108652451075613
1761486949310118000,1.543117919921875,-0.0003054326225537807,0.0003054326225537807,0.0006108652451075613
1761486949326919400,1.55991943359375,0.0007635815418325365,0.00015271631127689034,0.00045814894838258624
1761486949343745000,1.5767451171875,0.00015271631127689034,0.00015271631127689034,0.00015271631127689034
1761486949360551700,1.5935517578125,0.00015271631127689034,-0.0009162978967651725,0.0013744467869400978
1761486949377378600,1.610378662109375,-0.00015271631127689034,0.00015271631127689034,0.00045814894838258624
1761486949394210600,1.62721044921875,0.00015271631127689034,0.0010690141934901476,-0.00015271631127689034
1761486949411032800,1.64403271484375,0,0.00015271631127689034,0.00015271631127689034
1761486949427854800,1.660854736328125,-0.0006108652451075613,0.0003054326225537807,0.00015271631127689034
1761486949444686600,1.6776865234375,-0.0003054326225537807,0,-0.0007635815418325365
1761486949461526300,1.6945263671875,-0.00015271631127689034,-0.0007635815418325365,0.0013744467869400978
1761486949478348000,1.71134814453125,0.0009162978967651725,0.00015271631127689034,0.0010690141934901476
1761486949495170300,1.72817041015625,0.00015271631127689034,0.00015271631127689034,-0.00045814894838258624
1761486949511998700,1.744998779296875,0.00015271631127689034,-0.0006108652451075613,-0.0006108652451075613
1761486949528824000,1.761823974609375,0.00015271631127689034,0.00015271631127689034,0.00015271631127689034
1761486949545648600,1.778648681640625,0,0.0009162978967651725,-0.0007635815418325365
1761486949562475500,1.7954755859375,0.00015271631127689034,-0.0007635815418325365,-0.0006108652451075613
1761486949579296300,1.812296142578125,0.00015271631127689034,0.0012217304902151227,0
1761486949596129800,1.8291298828125,-0.0006108652451075613,0.00045814894838258624,-0.00045814894838258624
1761486949612951000,1.845950927734375,0.00015271631127689034,0.0003054326225537807,0.0006108652451075613
1761486949629776400,1.8627763671875,0.00015271631127689034,0.00015271631127689034,0.00045814894838258624
1761486949646626300,1.879626220703125,-0.00015271631127689034,-0.00045814894838258624,0.0007635815418325365
1761486949663427000,1.896427001953125,0.00015271631127689034,0.00015271631127689034,0.0003054326225537807
1761486949680249300,1.913249267578125,0.00045814894838258624,0.0003054326225537807,0.00015271631127689034
1761486949697064400,1.930064453125,0.00015271631127689034,-0.0006108652451075613,0.0003054326225537807
1761486949713889500,1.9468896484375,0.00015271631127689034,0.00015271631127689034,0.0010690141934901476
1761486949730712600,1.963712646484375,0.00015271631127689034,0.00015271631127689034,-0.00015271631127689034
1761486949747543300,1.980543212890625,0,0.00015271631127689034,-0.00015271631127689034
1761486949764365800,1.99736572265625,0.00015271631127689034,0.0003054326225537807,-0.0006108652451075613
1761486949781191700,2.014191650390625,-0.00045814894838258624,0.0010690141934901476,0.00015271631127689034
1761486949798056200,2.03105615234375,0.00015271631127689034,0.00015271631127689034,0.0006108652451075613
1761486949814859300,2.047859375,0,0.00015271631127689034,-0.0006108652451075613
1761486949831678000,2.064677978515625,0.00015271631127689034,0.00015271631127689034,-0.0006108652451075613
1761486949848489500,2.081489501953125,0.00045814894838258624,0.00015271631127689034,0.00015271631127689034
1761486949865318400,2.098318359375,0.00015271631127689034,-0.00015271631127689034,-0.0003054326225537807
1761486949882143700,2.115143798828125,-0.0006108652451075613,-0.00015271631127689034,0.0009162978967651725
1761486949898969000,2.131968994140625,-0.0006108652451075613,0.0003054326225537807,0.00015271631127689034
1761486949915794400,2.14879443359375,0.0012217304902151227,0,0.00015271631127689034
1761486949932622600,2.16562255859375,0.00015271631127689034,0.0010690141934901476,0
1761486949949462800,2.182462890625,-0.00045814894838258624,-0.0003054326225537807,0
1761486949966284300,2.1992841796875,0.0009162978967651725,-0.0003054326225537807,-0.0006108652451075613
1761486949983110000,2.21610986328125,0.00015271631127689034,0,-0.0006108652451075613
1761486949999935200,2.232935302734375,0.00015271631127689034,0.0003054326225537807,0.00015271631127689034
1761486950016756200,2.249756103515625,0.00015271631127689034,-0.00045814894838258624,0.0012217304902151227
1761486950033587000,2.2665869140625,-0.0006108652451075613,0.00045814894838258624,0.0007635815418325365
1761486950050412500,2.28341259765625,0,0,0.0009162978967651725
1761486950067236000,2.300236083984375,0.00015271631127689034,0,0.00015271631127689034
1761486950084063000,2.31706298828125,0.0003054326225537807,0.0010690141934901476,0.00015271631127689034
1761486950100867300,2.333867431640625,-0.0006108652451075613,0.0007635815418325365,0.00045814894838258624
1761486950117712600,2.350712646484375,0,-0.0009162978967651725,0.0007635815418325365
1761486950134538000,2.3675380859375,0.00015271631127689034,0,0
1761486950151336400,2.38433642578125,0.00045814894838258624,0.0003054326225537807,0
1761486950168189000,2.40118896484375,0.00015271631127689034,-0.0003054326225537807,0.0007635815418325365
1761486950184984300,2.417984375,0.00015271631127689034,-0.0003054326225537807,0.0010690141934901476
1761486950201809400,2.434809326171875,0,0.0003054326225537807,0.0007635815418325365
1761486950218648600,2.451648681640625,0.0003054326225537807,-0.0003054326225537807,0.00015271631127689034
1761486950235479800,2.468479736328125,0.00015271631127689034,-0.0010690141934901476,0.00015271631127689034
1761486950252302300,2.48530224609375,0.0007635815418325365,-0.00015271631127689034,0
1761486950269127700,2.502127685546875,0.00015271631127689034,0.0003054326225537807,0.0009162978967651725
1761486950285947100,2.518947021484375,0.00015271631127689034,-0.0003054326225537807,0.00015271631127689034
1761486950302788400,2.535788330078125,0.00015271631127689034,-0.00015271631127689034,-0.00015271631127689034
1761486950319606000,2.55260595703125,0.00015271631127689034,0,-0.00015271631127689034
1761486950336425500,2.569425537109375,-0.00045814894838258624,0.00015271631127689034,0
1761486950353255000,2.5862548828125,-0.0006108652451075613,0,0.00015271631127689034
1761486950370080000,2.603080078125,0.00015271631127689034,0,-0.00045814894838258624
1761486950386905300,2.6199052734375,0.00015271631127689034,0,0.00015271631127689034
1761486950403730700,2.636730712890625,0.00015271631127689034,-0.00045814894838258624,-0.0009162978967651725
1761486950420552700,2.653552734375,0.00015271631127689034,0,0
1761486950437407200,2.6704072265625,-0.0003054326225537807,-0.00015271631127689034,0.00015271631127689034
1761486950454215000,2.68721484375,0.00015271631127689034,0,0.00045814894838258624
1761486950471046000,2.7040458984375,0.00015271631127689034,0,0.00015271631127689034
1761486950487864800,2.72086474609375,0.00015271631127689034,-0.0007635815418325365,-0.00015271631127689034
1761486950504703700,2.737703857421875,0.00015271631127689034,0.0007635815418325365,0.00045814894838258624
1761486950521502200,2.754502197265625,0.00015271631127689034,0.00015271631127689034,0.00045814894838258624
1761486950538343000,2.771343017578125,0.00015271631127689034,-0.0003054326225537807,0.00045814894838258624
1761486950555180800,2.788180908203125,0,0.00015271631127689034,0.0009162978967651725
1761486950572027000,2.80502685546875,0,0,0.00015271631127689034
1761486950588822000,2.821822021484375,-0.0009162978967651725,-0.0003054326225537807,-0.0009162978967651725
1761486950605649200,2.838649169921875,0,-0.0003054326225537807,-0.0003054326225537807
1761486950622460400,2.85546044921875,0.00015271631127689034,0.00045814894838258624,0.00015271631127689034
1761486950639296300,2.872296142578125,-0.0009162978967651725,0.0003054326225537807,0
1761486950656129300,2.88912939453125,0,0.00045814894838258624,-0.0009162978967651725
1761486950672931000,2.90593115234375,0.00015271631127689034,-0.0007635815418325365,0.00015271631127689034
1761486950689765000,2.92276513671875,0,0,0.00015271631127689034
1761486950706574600,2.93957470703125,0.0003054326225537807,-0.0007635815418325365,0.0007635815418325365
1761486950723413200,2.956413330078125,-0.0009162978967651725,-0.0003054326225537807,0.00015271631127689034
1761486950740238300,2.97323828125,0.00015271631127689034,0.0009162978967651725,0.00015271631127689034
1761486950757064200,2.990064208984375,-0.0006108652451075613,0,0.0009162978967651725
1761486950773906200,3.00690625,0.00015271631127689034,0,-0.0009162978967651725
1761486950790723300,3.023723388671875,0.00015271631127689034,-0.0007635815418325365,0.0012217304902151227
1761486950807545000,3.040545166015625,-0.00015271631127689034,0,0.00045814894838258624
1761486950824362000,3.057362060546875,0.00015271631127689034,0.00015271631127689034,0.0009162978967651725
1761486950841190700,3.074190673828125,0.00015271631127689034,-0.0003054326225537807,0.00045814894838258624
1761486950858016300,3.091016357421875,-0.00015271631127689034,0.0007635815418325365,0.00045814894838258624
1761486950874841600,3.107841552734375,0,0.00045814894838258624,0.0007635815418325365
1761486950891667000,3.1246669921875,0.0009162978967651725,0.0006108652451075613,0.00015271631127689034
1761486950908492300,3.1414921875,0.00015271631127689034,0.0010690141934901476,-0.0003054326225537807
1761486950925335000,3.1583349609375,0.00015271631127689034,0.0007635815418325365,0.00015271631127689034
1761486950942153500,3.175153564453125,0.00015271631127689034,0.0003054326225537807,0
1761486950958981600,3.191981689453125,-0.00015271631127689034,-0.00015271631127689034,-0.0006108652451075613
1761486950975811600,3.2088115234375,0.00015271631127689034,0,0
1761486950992633000,3.225633056640625,-0.00015271631127689034,0,-0.00015271631127689034
1761486951009441800,3.24244189453125,0.00015271631127689034,0.0007635815418325365,-0.00015271631127689034
1761486951026276900,3.25927685546875,-0.0006108652451075613,0,0
1761486951043103200,3.276103271484375,0.00045814894838258624,-0.0009162978967651725,-0.0006108652451075613
1761486951059927300,3.29292724609375,0.00015271631127689034,0.00015271631127689034,-0.0007635815418325365
1761486951076738800,3.30973876953125,0,0,0.0007635815418325365
1761486951093569300,3.3265693359375,0.00015271631127689034,0,-0.0013744467869400978
1761486951110393900,3.343393798828125,0.00015271631127689034,-0.00015271631127689034,0
1761486951127219700,3.3602197265625,0.00015271631127689034,0.0003054326225537807,-0.0006108652451075613
1761486951144037600,3.37703759765625,0.00015271631127689034,0,-0.0006108652451075613
1761486951160873200,3.393873291015625,0.00015271631127689034,0.0006108652451075613,-0.0007635815418325365
1761486951177695500,3.410695556640625,0.00015271631127689034,0,0.00015271631127689034
1761486951194526700,3.427526611328125,0.00015271631127689034,0,-0.0009162978967651725
1761486951211349200,3.444349365234375,0.00015271631127689034,0.00045814894838258624,-0.0007635815418325365
1761486951228174800,3.4611748046875,-0.0006108652451075613,0.00015271631127689034,0.0003054326225537807
1761486951245000000,3.478,0,0.00015271631127689034,0.00015271631127689034
1761486951261828900,3.494828857421875,-0.0006108652451075613,-0.0009162978967651725,-0.0007635815418325365
1761486951278664700,3.511664794921875,0,-0.0010690141934901476,0.00015271631127689034
1761486951295490600,3.528490478515625,0.00015271631127689034,0.0007635815418325365,-0.00015271631127689034
1761486951312298200,3.54529833984375,0.00015271631127689034,0,0.0012217304902151227
1761486951329112600,3.562112548828125,-0.0007635815418325365,-0.0010690141934901476,0.0010690141934901476
1761486951345952500,3.578952392578125,0.00015271631127689034,0,0.00015271631127689034
1761486951362781400,3.595781494140625,-0.0006108652451075613,0,0
1761486951379601000,3.612600830078125,-0.0006108652451075613,-0.0006108652451075613,-0.00045814894838258624
1761486951396428500,3.629428466796875,0,-0.0003054326225537807,-0.0007635815418325365
1761486951413271000,3.64627099609375,0.00015271631127689034,0,0
1761486951430093000,3.663093017578125,0.00015271631127689034,-0.00015271631127689034,0.0009162978967651725
1761486951446918400,3.67991845703125,-0.0006108652451075613,0,-0.0010690141934901476
1761486951463727400,3.696727294921875,0,0.0006108652451075613,-0.0003054326225537807
1761486951480569300,3.7135693359375,0.00015271631127689034,-0.00015271631127689034,0
1761486951497394700,3.730394775390625,-0.0006108652451075613,-0.00015271631127689034,-0.0006108652451075613
1761486951514219800,3.7472197265625,0.00015271631127689034,0,0
1761486951531046100,3.764046142578125,0.00015271631127689034,-0.0006108652451075613,0
1761486951547871000,3.78087109375,0.00015271631127689034,-0.00015271631127689034,0.0009162978967651725
1761486951564696000,3.797696044921875,0,-0.0007635815418325365,-0.0010690141934901476
1761486951581502200,3.814502197265625,0.00015271631127689034,0,0
1761486951598347300,3.83134716796875,0.00015271631127689034,0,0.00015271631127689034
1761486951615172000,3.848172119140625,0,-0.00015271631127689034,-0.0009162978967651725
1761486951631994000,3.864994140625,0.00015271631127689034,-0.0003054326225537807,-0.0006108652451075613
1761486951657214500,3.89021435546875,0,-0.0009162978967651725,-0.0003054326225537807
1761486951674048300,3.90704833984375,0,0,0
1761486951690873000,3.923873046875,0.00015271631127689034,-0.0007635815418325365,-0.0006108652451075613
1761486951707687400,3.9406875,-0.00015271631127689034,-0.0007635815418325365,-0.0007635815418325365
1761486951724523500,3.9575234375,-0.0006108652451075613,-0.00015271631127689034,-0.0006108652451075613
1761486951741350000,3.974349853515625,-0.00015271631127689034,0,0
1761486951758191600,3.991191650390625,-0.0006108652451075613,0.00015271631127689034,0
1761486951775015200,4.00801513671875,0.00015271631127689034,0.0009162978967651725,0
1761486951791819000,4.024819091796875,0.00015271631127689034,0,0.0006108652451075613
1761486951808651500,4.041651611328125,0.00015271631127689034,0.00015271631127689034,0.00045814894838258624
1761486951825471200,4.05847119140625,0.00015271631127689034,-0.0007635815418325365,0.00015271631127689034
1761486951842307800,4.075307861328125,0.00015271631127689034,-0.00015271631127689034,0
1761486951859107300,4.092107421875,0.00015271631127689034,0.00045814894838258624,-0.0003054326225537807
1761486951875953400,4.108953369140625,0.00015271631127689034,0.0007635815418325365,-0.0003054326225537807
1761486951892777000,4.12577685546875,0,0.0007635815418325365,0
1761486951909622300,4.142622314453125,0,-0.0009162978967651725,0
1761486951926423300,4.15942333984375,0.00015271631127689034,0,0.00015271631127689034
1761486951943254800,4.1762548828125,0.00015271631127689034,0.0007635815418325365,-0.0009162978967651725
1761486951960067600,4.193067626953125,-0.00015271631127689034,-0.00015271631127689034,0.0003054326225537807
1761486951976920300,4.20992041015625,-0.0003054326225537807,0.0007635815418325365,0.0012217304902151227
1761486951993743400,4.226743408203125,-0.0007635815418325365,-0.00015271631127689034,-0.0003054326225537807
1761486952010575600,4.24357568359375,0.00015271631127689034,-0.0006108652451075613,0.0009162978967651725
1761486952027394300,4.260394287109375,0.00015271631127689034,-0.0003054326225537807,0.0007635815418325365
1761486952044221700,4.2772216796875,0.00015271631127689034,0,0
1761486952061044700,4.294044677734375,0.00015271631127689034,0,-0.0003054326225537807
1761486952077871600,4.31087158203125,0.00015271631127689034,0.00015271631127689034,0
1761486952094695400,4.3276953125,-0.0006108652451075613,0.0003054326225537807,0.0009162978967651725
1761486952111523000,4.344523193359375,0.00015271631127689034,0.00015271631127689034,-0.00045814894838258624
1761486952128347400,4.361347412109375,-0.0003054326225537807,-0.0007635815418325365,0.0003054326225537807
1761486952145168400,4.37816845703125,0,0,0
1761486952161983700,4.394983642578125,0,0,0.0006108652451075613
1761486952178816300,4.411816162109375,0.00015271631127689034,-0.0003054326225537807,-0.0003054326225537807
1761486952195639300,4.428639404296875,-0.00015271631127689034,-0.0003054326225537807,0.0003054326225537807
1761486952212461000,4.4454609375,0.00015271631127689034,-0.0010690141934901476,0
1761486952229289500,4.46228955078125,-0.00045814894838258624,0,0.0003054326225537807
1761486952246101000,4.47910107421875,0.00015271631127689034,0.00045814894838258624,0.00015271631127689034
1761486952262934500,4.4959345703125,-0.00015271631127689034,0.00015271631127689034,-0.0009162978967651725
1761486952279772700,4.512772705078125,0,0.0007635815418325365,-0.0006108652451075613
1761486952296586800,4.529586669921875,0.00015271631127689034,-0.0003054326225537807,-0.0006108652451075613
1761486952313414000,4.546413818359375,-0.0006108652451075613,0.0007635815418325365,0.00015271631127689034
1761486952330237400,4.563237548828125,0.00015271631127689034,0.0003054326225537807,-0.0007635815418325365
1761486952347063800,4.580063720703125,0.00015271631127689034,-0.0003054326225537807,0
1761486952363884000,4.596884033203125,0.0009162978967651725,0.0003054326225537807,0.0003054326225537807
1761486952380723000,4.613722900390625,-0.00015271631127689034,-0.0007635815418325365,0.0003054326225537807
1761486952397553200,4.63055322265625,0.00015271631127689034,0.0003054326225537807,-0.0009162978967651725
1761486952414378800,4.647378662109375,0,0.0007635815418325365,0.0003054326225537807
1761486952431199500,4.664199462890625,-0.0007635815418325365,0,0.00045814894838258624
1761486952448031200,4.68103125,-0.0006108652451075613,0.0006108652451075613,-0.0003054326225537807
1761486952464858400,4.6978583984375,-0.0006108652451075613,-0.0006108652451075613,0.00015271631127689034
1761486952481680600,4.7146806640625,0.0010690141934901476,0.0006108652451075613,0.0007635815418325365
1761486952498501400,4.73150146484375,-0.00045814894838258624,-0.0007635815418325365,0
1761486952515353300,4.748353271484375,0.00015271631127689034,0,0.0006108652451075613
1761486952532155600,4.76515576171875,0,-0.00015271631127689034,0
1761486952548965400,4.78196533203125,0.0007635815418325365,0.00015271631127689034,0.0007635815418325365
1761486952565806000,4.79880615234375,0.00015271631127689034,0.0003054326225537807,-0.00045814894838258624
1761486952582634000,4.815634033203125,-0.00045814894838258624,-0.0007635815418325365,-0.0010690141934901476
1761486952599457300,4.832457275390625,0.00015271631127689034,0,0
1761486952616284000,4.849283935546875,0.00015271631127689034,0.00015271631127689034,0
1761486952633107700,4.866107666015625,0,-0.0010690141934901476,0
1761486952649905400,4.882905517578125,0.00045814894838258624,0.0006108652451075613,0
1761486952666744800,4.899744873046875,-0.0006108652451075613,-0.0007635815418325365,-0.0009162978967651725
1761486952683571500,4.916571533203125,0,0,0.00015271631127689034
1761486952700395800,4.933395751953125,0,-0.0009162978967651725,0.00015271631127689034
1761486952717223200,4.95022314453125,0.00015271631127689034,-0.0003054326225537807,-0.0003054326225537807
1761486952734030000,4.967030029296875,0.00015271631127689034,-0.0003054326225537807,0
1761486952750893000,4.98389306640625,0.00015271631127689034,-0.0007635815418325365,0.0007635815418325365
1761486952767705000,5.000705078125,0.0009162978967651725,0,0.00015271631127689034
1761486952784527600,5.017527587890625,0.00015271631127689034,-0.0006108652451075613,-0.0007635815418325365
1761486952801357800,5.03435791015625,0.00045814894838258624,-0.00015271631127689034,0
1761486952818174200,5.05117431640625,0,-0.0003054326225537807,-0.0007635815418325365
1761486952834998800,5.067998779296875,0.00015271631127689034,0.0006108652451075613,-0.0007635815418325365
1761486952851826200,5.084826171875,0.00015271631127689034,0.0003054326225537807,0.00045814894838258624
1761486952868653000,5.101653076171875,0,0.0003054326225537807,0
1761486952885485600,5.118485595703125,0.00015271631127689034,-0.00045814894838258624,0.0007635815418325365
1761486952902318300,5.135318359375,0,0.00045814894838258624,-0.0006108652451075613
1761486952919141400,5.152141357421875,0.00015271631127689034,0.0007635815418325365,0
1761486952935965000,5.16896484375,0.00015271631127689034,0,-0.0006108652451075613
1761486952952791600,5.18579150390625,0.00015271631127689034,0,-0.0003054326225537807
1761486952969611000,5.202611083984375,0.00015271631127689034,0,0.00015271631127689034
1761486952986434300,5.219434326171875,0.00015271631127689034,0.0006108652451075613,-0.0009162978967651725
1761486953003266600,5.2362666015625,-0.0009162978967651725,-0.0006108652451075613,0.00015271631127689034
1761486953020093200,5.25309326171875,0.00015271631127689034,-0.00015271631127689034,-0.00015271631127689034
1761486953036917000,5.2699169921875,0.0003054326225537807,0,-0.0003054326225537807
1761486953053751000,5.2867509765625,-0.00015271631127689034,-0.0007635815418325365,0.00015271631127689034
1761486953070560000,5.30356005859375,0.00015271631127689034,-0.0007635815418325365,0.00045814894838258624
1761486953087402000,5.320402099609375,0.00015271631127689034,0.0010690141934901476,0
1761486953104219100,5.33721923828125,0.00015271631127689034,-0.00015271631127689034,-0.0007635815418325365
1761486953121046000,5.3540458984375,-0.0006108652451075613,0.00015271631127689034,0
1761486953137852200,5.37085205078125,-0.0006108652451075613,0.0009162978967651725,0.00045814894838258624
1761486953154682000,5.38768212890625,0,0.00045814894838258624,-0.00045814894838258624
1761486953171506400,5.40450634765625,0.00045814894838258624,-0.0006108652451075613,-0.0003054326225537807
1761486953188333600,5.42133349609375,0.00015271631127689034,0.0003054326225537807,0
1761486953205144000,5.43814404296875,-0.0006108652451075613,-0.0003054326225537807,0.00015271631127689034
1761486953221980200,5.454980224609375,-0.00015271631127689034,-0.00045814894838258624,0.00015271631127689034
1761486953238828300,5.471828369140625,0.00015271631127689034,0.0009162978967651725,-0.0007635815418325365
1761486953255645400,5.4886455078125,0.0003054326225537807,0.0019853119738399982,0.00015271631127689034
1761486953272458500,5.50545849609375,-0.0007635815418325365,0.00015271631127689034,0.0009162978967651725
1761486953289284900,5.522284912109375,0.0009162978967651725,-0.00015271631127689034,0
1761486953306109400,5.539109375,0.0009162978967651725,-0.0010690141934901476,-0.00045814894838258624
1761486953322936800,5.555936767578125,0.0003054326225537807,-0.0010690141934901476,0.0003054326225537807
1761486953339748000,5.572748046875,-0.0007635815418325365,0,0.0009162978967651725
1761486953356590000,5.589590087890625,0.00015271631127689034,0.00045814894838258624,-0.0003054326225537807
1761486953373424400,5.60642431640625,0.00015271631127689034,0.00015271631127689034,0.0009162978967651725
1761486953390226400,5.623226318359375,0.00015271631127689034,0.00045814894838258624,-0.0009162978967651725
1761486953407079700,5.64007958984375,0.0012217304902151227,-0.00045814894838258624,0
1761486953423901700,5.656901611328125,-0.0006108652451075613,-0.0007635815418325365,-0.00015271631127689034
1761486953440726000,5.67372607421875,0.00015271631127689034,0.00015271631127689034,0
1761486953457563600,5.690563720703125,0.00015271631127689034,0,0.00015271631127689034
1761486953474373000,5.707373046875,-0.0003054326225537807,0.00015271631127689034,0.00015271631127689034
1761486953491212500,5.724212646484375,0,0.00015271631127689034,0
1761486953508006400,5.74100634765625,0.00015271631127689034,0.00045814894838258624,-0.0009162978967651725
1761486953524855300,5.757855224609375,0,-0.0006108652451075613,0.00015271631127689034
1761486953541674000,5.774674072265625,-0.0006108652451075613,0.00015271631127689034,0.0007635815418325365
1761486953558508800,5.7915087890625,0.00015271631127689034,0,0.0003054326225537807
1761486953575329000,5.8083291015625,-0.00015271631127689034,0,0
1761486953592158200,5.825158203125,-0.00015271631127689034,-0.00015271631127689034,0
1761486953608979200,5.841979248046875,0.0003054326225537807,0.00015271631127689034,0
1761486953625789200,5.8587890625,0.00015271631127689034,0.0003054326225537807,0.0007635815418325365
1761486953642616800,5.875616943359375,-0.0006108652451075613,0.0009162978967651725,0.0009162978967651725
1761486953659444500,5.892444580078125,-0.0006108652451075613,0.00015271631127689034,-0.0009162978967651725
1761486953676267800,5.909267822265625,0.00015271631127689034,-0.0006108652451075613,0.00015271631127689034
1761486953693094000,5.926093994140625,0.00015271631127689034,0.00015271631127689034,0.00015271631127689034
1761486953709918500,5.94291845703125,0.00015271631127689034,0.0003054326225537807,0.00015271631127689034
1761486953726758700,5.959758544921875,-0.0006108652451075613,-0.0006108652451075613,0
1761486953743584000,5.976583984375,0,-0.0009162978967651725,-0.00015271631127689034
1761486953760395500,5.9933955078125,0,-0.0003054326225537807,0.00015271631127689034
1761486953777219800,6.0102197265625,0.00015271631127689034,0.00045814894838258624,0
1761486953794047200,6.027047119140625,0.00015271631127689034,0.00015271631127689034,0.00015271631127689034
1761486953810870500,6.04387060546875,0.00015271631127689034,-0.0003054326225537807,-0.0009162978967651725
1761486953827697400,6.060697509765625,0.00015271631127689034,0.0003054326225537807,-0.0003054326225537807
1761486953844501500,6.07750146484375,0.00015271631127689034,0,-0.0009162978967651725
1761486953861344800,6.0943447265625,-0.0006108652451075613,-0.0006108652451075613,0.0009162978967651725
1761486953878172200,6.111172119140625,0.00015271631127689034,0,0.00015271631127689034
1761486953894985500,6.1279853515625,0.0007635815418325365,0.0010690141934901476,-0.00045814894838258624
1761486953911809000,6.14480908203125,0.00015271631127689034,0,-0.0006108652451075613
1761486953928651300,6.1616513671875,0.00015271631127689034,-0.00015271631127689034,-0.0010690141934901476
1761486953945458700,6.178458740234375,0.0003054326225537807,0.00045814894838258624,0.0003054326225537807
1761486953962322700,6.19532275390625,0.0003054326225537807,0,-0.0003054326225537807
1761486953979139800,6.212139892578125,-0.00015271631127689034,0.00015271631127689034,0.0007635815418325365
1761486953995961900,6.2289619140625,0.00015271631127689034,0.0010690141934901476,0.00045814894838258624
1761486954012788700,6.245788818359375,0.00045814894838258624,-0.0006108652451075613,-0.0007635815418325365
1761486954029609500,6.262609375,0.00015271631127689034,0.00015271631127689034,0
1761486954046446300,6.2794462890625,0.00015271631127689034,0.00015271631127689034,-0.0010690141934901476
1761486954063267000,6.29626708984375,0.0009162978967651725,0.0007635815418325365,-0.0003054326225537807
1761486954080090400,6.31309033203125,0.00015271631127689034,0.00045814894838258624,0.0003054326225537807
1761486954096916700,6.329916748046875,0.00015271631127689034,0.00015271631127689034,-0.00015271631127689034
1761486954113737700,6.34673779296875,0.00045814894838258624,0.00015271631127689034,-0.0003054326225537807
1761486954130555000,6.363554931640625,0.00015271631127689034,-0.001527163083665073,0
1761486954147378200,6.380378173828125,0.00015271631127689034,-0.0003054326225537807,0.00045814894838258624
1761486954164204500,6.39720458984375,0.00015271631127689034,0.0006108652451075613,0.00015271631127689034
1761486954181028900,6.41402880859375,0.00015271631127689034,0.0003054326225537807,0.0003054326225537807
1761486954197856500,6.4308564453125,0,0,-0.0006108652451075613
1761486954214683100,6.44768310546875,0.0009162978967651725,0.0010690141934901476,0.001527163083665073
1761486954231517000,6.464516845703125,0.00015271631127689034,-0.00015271631127689034,-0.0010690141934901476
1761486954248330200,6.481330322265625,-0.00015271631127689034,0.00015271631127689034,0.00015271631127689034
1761486954265158000,6.498157958984375,0.0003054326225537807,0,-0.0006108652451075613
1761486954281977900,6.514977783203125,0.00015271631127689034,0.0012217304902151227,0
1761486954298794500,6.53179443359375,0,0.0009162978967651725,-0.0010690141934901476
1761486954315635000,6.548635009765625,0.00015271631127689034,0.0022907445672899485,0
1761486954332462800,6.565462890625,0.00045814894838258624,0.001679879380390048,0
1761486954349279500,6.582279541015625,0,-0.0006108652451075613,-0.0006108652451075613
1761486954366125800,6.599125732421875,-0.0006108652451075613,-0.0006108652451075613,-0.0006108652451075613
1761486954382946800,6.61594677734375,0,-0.001832595793530345,0
1761486954399758000,6.632758056640625,0.00015271631127689034,0,-0.0009162978967651725
1761486954416597800,6.64959765625,-0.0006108652451075613,-0.0006108652451075613,0.00015271631127689034
1761486954433416700,6.666416748046875,0,0.00015271631127689034,0.00045814894838258624
1761486954450239200,6.6832392578125,0.00015271631127689034,0.00015271631127689034,-0.0007635815418325365
1761486954467075800,6.700075927734375,-0.0006108652451075613,-0.00045814894838258624,-0.00015271631127689034
1761486954483883000,6.716883056640625,0.00015271631127689034,0.0003054326225537807,0
1761486954500725800,6.733725830078125,0.00015271631127689034,-0.00015271631127689034,0.0003054326225537807
1761486954517550600,6.750550537109375,0.00015271631127689034,-0.0007635815418325365,0.00015271631127689034
1761486954534361000,6.767361083984375,0.00015271631127689034,0,0.0007635815418325365
1761486954551201000,6.784200927734375,0.00015271631127689034,0.0009162978967651725,0.0006108652451075613
1761486954568027100,6.801027099609375,-0.00015271631127689034,0.0003054326225537807,0.00015271631127689034
1761486954584844800,6.8178447265625,0,0.00015271631127689034,-0.0003054326225537807
1761486954601674800,6.8346748046875,0.00015271631127689034,0.00045814894838258624,0.00015271631127689034
1761486954618483000,6.85148291015625,0,0.00015271631127689034,0
1761486954635315000,6.86831494140625,0,-0.0006108652451075613,0
1761486954652139300,6.88513916015625,-0.00015271631127689034,0.00015271631127689034,-0.0007635815418325365
1761486954668967000,6.901966796875,0.0003054326225537807,-0.0006108652451075613,0.00015271631127689034
1761486954685790200,6.918790283203125,0.00015271631127689034,-0.00015271631127689034,0
1761486954702616600,6.935616455078125,0.00045814894838258624,-0.0006108652451075613,-0.0006108652451075613
1761486954719454700,6.952454833984375,0,0.00015271631127689034,-0.0003054326225537807
1761486954736266500,6.9692666015625,0.00015271631127689034,0,0.00015271631127689034
1761486954753093400,6.98609326171875,0.0007635815418325365,0.0007635815418325365,0
1761486954769926100,7.002926025390625,-0.0003054326225537807,-0.00015271631127689034,0.0009162978967651725
1761486954786742500,7.019742431640625,-0.0007635815418325365,-0.0006108652451075613,0.0003054326225537807
1761486954803569700,7.036569580078125,0,0.00015271631127689034,-0.00045814894838258624
1761486954820396500,7.053396484375,0.00015271631127689034,0.00015271631127689034,-0.0003054326225537807
1761486954837233400,7.0702333984375,0.00015271631127689034,0.00015271631127689034,0.00015271631127689034
1761486954854057700,7.0870576171875,0.00015271631127689034,-0.00015271631127689034,0.00015271631127689034
1761486954870867700,7.10386767578125,0.00015271631127689034,0,0.0003054326225537807
1761486954887676200,7.12067626953125,-0.00015271631127689034,0.0009162978967651725,-0.00015271631127689034
1761486954904532200,7.1375322265625,0,-0.0003054326225537807,0.0009162978967651725
1761486954921361700,7.154361572265625,0.00015271631127689034,0.00015271631127689034,0.00045814894838258624
1761486954938173200,7.171173095703125,0.00015271631127689034,0.0003054326225537807,0.0003054326225537807
1761486954955009800,7.188009765625,0,0.0003054326225537807,0.00045814894838258624
1761486954971831800,7.204831787109375,0.00015271631127689034,-0.0007635815418325365,0.00015271631127689034
1761486954988664300,7.221664306640625,0,0.0009162978967651725,0.0003054326225537807
1761486955005488400,7.23848828125,0,0,0.0007635815418325365
1761486955022311200,7.255311279296875,-0.0006108652451075613,-0.00015271631127689034,0
1761486955039130400,7.27213037109375,-0.0006108652451075613,0.00045814894838258624,-0.0007635815418325365
1761486955055945500,7.288945556640625,0,0.0003054326225537807,0
1761486955072785200,7.30578515625,0,0.00015271631127689034,-0.0003054326225537807
1761486955089600500,7.3226005859375,0.00015271631127689034,-0.0006108652451075613,0.0007635815418325365
1761486955106422000,7.339422119140625,0.00015271631127689034,0.00015271631127689034,0.0003054326225537807
1761486955123248400,7.356248291015625,0,0.00015271631127689034,-0.00045814894838258624
1761486955140077000,7.3730771484375,0,-0.00015271631127689034,-0.00045814894838258624
1761486955156900600,7.389900634765625,0.00015271631127689034,0.0007635815418325365,0
1761486955173727000,7.40672705078125,0.00015271631127689034,0.00015271631127689034,0.0007635815418325365
1761486955190551300,7.42355126953125,0.00015271631127689034,0,0.00015271631127689034
1761486955207395800,7.440395751953125,0.00015271631127689034,0.0003054326225537807,0.0009162978967651725
1761486955224198700,7.45719873046875,0,0.0006108652451075613,0
1761486955241031700,7.47403173828125,-0.00015271631127689034,0.00045814894838258624,0.00015271631127689034
1761486955257839900,7.49083984375,0,-0.0007635815418325365,-0.0007635815418325365
1761486955274677000,7.507677001953125,0.00015271631127689034,-0.00015271631127689034,-0.00015271631127689034
1761486955291506700,7.524506591796875,-0.0006108652451075613,0.00015271631127689034,0
1761486955308325600,7.54132568359375,0.0003054326225537807,0,-0.00015271631127689034
1761486955325134600,7.558134521484375,-0.00015271631127689034,0,0
1761486955341995300,7.574995361328125,0.00015271631127689034,0.0007635815418325365,-0.00045814894838258624
1761486955358795300,7.591795166015625,0.00015271631127689034,0.00015271631127689034,-0.0007635815418325365
1761486955375644000,7.608643798828125,0.0007635815418325365,0.00015271631127689034,0.00015271631127689034
1761486955392469200,7.62546923828125,0.00015271631127689034,0.0010690141934901476,0.00015271631127689034
1761486955409287000,7.642286865234375,0,0.0003054326225537807,0.00015271631127689034
1761486955426113300,7.65911328125,0.00015271631127689034,-0.0009162978967651725,0.00015271631127689034
1761486955442946600,7.675946533203125,-0.0009162978967651725,0.00015271631127689034,0.0009162978967651725
1761486955459770600,7.6927705078125,0,0.00015271631127689034,-0.0006108652451075613
1761486955476598800,7.709598876953125,0.0003054326225537807,-0.0007635815418325365,0.00015271631127689034
1761486955493417200,7.726417236328125,0,0.00015271631127689034,-0.0007635815418325365
1761486955510252000,7.743251953125,0.0003054326225537807,0.0007635815418325365,0.00015271631127689034
1761486955527068400,7.760068359375,0.0003054326225537807,0.0007635815418325365,0.00045814894838258624
1761486955543903700,7.77690380859375,0.00015271631127689034,0.00015271631127689034,0.00045814894838258624
1761486955560723000,7.793722900390625,-0.0006108652451075613,0,0.00015271631127689034
1761486955577553200,7.81055322265625,0,0.0009162978967651725,0.00015271631127689034
1761486955594353000,7.827352783203125,-0.0006108652451075613,0.00015271631127689034,0.00015271631127689034
1761486955611187500,7.8441875,-0.00015271631127689034,0.00045814894838258624,-0.00015271631127689034
1761486955628010800,7.8610107421875,0,0.00045814894838258624,-0.0003054326225537807
1761486955644837000,7.877837158203125,0,0.0006108652451075613,-0.00045814894838258624
1761486955661651000,7.89465087890625,0.00015271631127689034,0.00015271631127689034,0
1761486955678503400,7.91150341796875,0.0007635815418325365,-0.00015271631127689034,-0.0013744467869400978
1761486955695325700,7.92832568359375,0.00015271631127689034,0.0006108652451075613,-0.0009162978967651725
1761486955712138800,7.945138671875,-0.0010690141934901476,-0.0009162978967651725,0.00045814894838258624
1761486955728943400,7.961943359375,0,0,-0.00015271631127689034
1761486955745777700,7.978777587890625,0.00015271631127689034,0.0003054326225537807,0.00015271631127689034
1761486955762613800,7.99561376953125,0,-0.0006108652451075613,-0.0003054326225537807
1761486955779439900,8.01243994140625,0.00015271631127689034,-0.00015271631127689034,0
1761486955796268000,8.02926806640625,0.00015271631127689034,-0.0006108652451075613,0.00015271631127689034
1761486955813095200,8.04609521484375,-0.0003054326225537807,0,0.00045814894838258624
1761486955829929700,8.0629296875,0.0003054326225537807,0,0.0006108652451075613
1761486955846758100,8.079758056640625,0.00015271631127689034,0,0.0009162978967651725
1761486955863579600,8.09657958984375,0.00015271631127689034,0.00015271631127689034,0.0007635815418325365
1761486955880407600,8.113407470703125,-0.00015271631127689034,0.00015271631127689034,0.0007635815418325365
1761486955897230300,8.130230224609376,0,0.00015271631127689034,0.00015271631127689034
1761486955914057000,8.147056884765625,0,-0.0009162978967651725,0.0012217304902151227
1761486955930879500,8.16387939453125,0,0.0003054326225537807,-0.001527163083665073
1761486955947698700,8.18069873046875,0.00015271631127689034,-0.00015271631127689034,0.00015271631127689034
1761486955964532000,8.197531982421875,0.00015271631127689034,0.0009162978967651725,0.00015271631127689034
1761486955981358000,8.214358154296875,-0.0007635815418325365,-0.0003054326225537807,0.00015271631127689034
1761486955998182400,8.231182373046876,0,0.0009162978967651725,0.00015271631127689034
1761486956015010300,8.24801025390625,0,0.0013744467869400978,-0.0003054326225537807
1761486956031833300,8.264833251953124,0.00015271631127689034,0.00015271631127689034,0.00015271631127689034
1761486956048643300,8.281643310546874,0.0009162978967651725,0.0003054326225537807,0
1761486956065484000,8.298484130859375,0,-0.00045814894838258624,-0.0006108652451075613
1761486956082307800,8.315307861328124,-0.00015271631127689034,0.00015271631127689034,-0.0007635815418325365
1761486956099122400,8.332122314453125,-0.0007635815418325365,0.00045814894838258624,-0.0006108652451075613
1761486956115945700,8.34894580078125,-0.00015271631127689034,0.0003054326225537807,-0.00015271631127689034
1761486956132771600,8.365771484375,0.0003054326225537807,0,0
1761486956149599200,8.38259912109375,0.0007635815418325365,0.0003054326225537807,0.00015271631127689034
1761486956166422300,8.39942236328125,0,0.0007635815418325365,-0.0009162978967651725
1761486956183249200,8.416249267578126,-0.0007635815418325365,-0.00015271631127689034,-0.00015271631127689034
1761486956200071700,8.43307177734375,0.00015271631127689034,-0.0003054326225537807,-0.0006108652451075613
1761486956216902000,8.44990185546875,0,0.0003054326225537807,0.0003054326225537807
1761486956233720300,8.46672021484375,0,0.00015271631127689034,0.00015271631127689034
1761486956250553900,8.483553955078126,0,-0.0003054326225537807,0.00015271631127689034
1761486956267362800,8.50036279296875,0,0.0007635815418325365,-0.0006108652451075613
1761486956284188700,8.517188720703125,-0.00015271631127689034,0,-0.0013744467869400978
1761486956301043000,8.53404296875,0,0.0003054326225537807,0.00015271631127689034
1761486956317861400,8.550861328125,0,0.00015271631127689034,0.00045814894838258624
1761486956334691600,8.567691650390625,-0.0006108652451075613,-0.00045814894838258624,0
1761486956351519200,8.584519287109375,-0.00015271631127689034,-0.0003054326225537807,-0.00015271631127689034
1761486956368340700,8.6013408203125,0,-0.0006108652451075613,0.0010690141934901476
1761486956385167400,8.61816748046875,0,0.0003054326225537807,0.0007635815418325365
1761486956401981200,8.634981201171875,0,0.00015271631127689034,-0.00015271631127689034
1761486956418810000,8.65181005859375,0.0003054326225537807,-0.0006108652451075613,0.0007635815418325365
1761486956435650600,8.668650634765624,-0.0003054326225537807,-0.0010690141934901476,0.00015271631127689034
1761486956452468700,8.68546875,0,-0.0006108652451075613,0.0010690141934901476
1761486956469292800,8.702292724609375,0,0.001832595793530345,0.00015271631127689034
1761486956486107100,8.719107177734376,-0.0006108652451075613,0.00045814894838258624,-0.0010690141934901476
1761486956502942700,8.735942626953126,-0.0003054326225537807,0.0010690141934901476,0
1761486956519770400,8.752770263671875,0,0.00015271631127689034,0.0007635815418325365
1761486956536601000,8.76960107421875,-0.0003054326225537807,0.0003054326225537807,0.00045814894838258624
1761486956553418800,8.786418701171876,0,0.0003054326225537807,0.00015271631127689034
1761486956570252300,8.803252197265625,0,-0.0006108652451075613,-0.0006108652451075613
1761486956587049700,8.8200498046875,0,0.00015271631127689034,0.0007635815418325365
1761486956603881700,8.8368818359375,0,0.00015271631127689034,-0.0003054326225537807
1761486956620709400,8.85370947265625,0.0007635815418325365,0.0003054326225537807,0.00015271631127689034
1761486956637528300,8.8705283203125,-0.0007635815418325365,0.00045814894838258624,0.0010690141934901476
1761486956654363100,8.887363037109376,0,0.0007635815418325365,0.00015271631127689034
1761486956671183400,8.904183349609376,0,0.0003054326225537807,0.00015271631127689034
1761486956688000800,8.921000732421875,0,0.0006108652451075613,0.00015271631127689034
1761486956704830700,8.937830810546876,0.00015271631127689034,0,-0.00015271631127689034
1761486956721663700,8.954663818359375,-0.0003054326225537807,0.0003054326225537807,-0.0009162978967651725
1761486956738484700,8.971484619140625,-0.0003054326225537807,0,0.00045814894838258624
1761486956755312000,8.98831201171875,0,0.00015271631127689034,0.00045814894838258624
1761486956772125700,9.005125732421876,0,0,0.00045814894838258624
1761486956788971800,9.0219716796875,0,0,-0.00045814894838258624
1761486956805803800,9.0388037109375,0,-0.00015271631127689034,0.0007635815418325365
1761486956822627300,9.05562744140625,0,-0.00045814894838258624,0.00015271631127689034
1761486956839442700,9.072442626953125,0.0009162978967651725,0.0003054326225537807,-0.0007635815418325365
1761486956856285000,9.089284912109376,0.00015271631127689034,0.00015271631127689034,-0.0007635815418325365
1761486956873101600,9.1061015625,-0.0003054326225537807,0,0.0003054326225537807
1761486956889924400,9.12292431640625,0,0,0.00015271631127689034
1761486956906721500,9.139721435546875,-0.0003054326225537807,0,-0.0006108652451075613
1761486956923582700,9.156582763671874,0,-0.0003054326225537807,0.00045814894838258624
1761486956940398300,9.1733984375,0,0,-0.0006108652451075613
1761486956957213700,9.190213623046875,0.00015271631127689034,0.00015271631127689034,-0.0010690141934901476
1761486956974049300,9.20704931640625,0,-0.0007635815418325365,0.00015271631127689034
1761486956990883800,9.2238837890625,-0.0007635815418325365,0,-0.00015271631127689034
1761486957007704000,9.2407041015625,0,0,0.00015271631127689034
1761486957024531700,9.25753173828125,0,-0.0010690141934901476,-0.0009162978967651725
1761486957041333800,9.274333740234376,0,-0.00015271631127689034,0
1761486957058181400,9.291181396484374,0,0.00015271631127689034,0.0009162978967651725
1761486957074992600,9.30799267578125,0,0.00045814894838258624,-0.0006108652451075613
1761486957091819300,9.3248193359375,-0.0003054326225537807,0.00015271631127689034,0.0007635815418325365
1761486957108642800,9.341642822265625,-0.0009162978967651725,-0.0010690141934901476,-0.00015271631127689034
1761486957125456400,9.358456298828125,0,0,0.0003054326225537807
1761486957142290200,9.375290283203125,0,0.0003054326225537807,-0.0006108652451075613
1761486957159124000,9.3921240234375,-0.0009162978967651725,0.0003054326225537807,0
1761486957175944000,9.40894384765625,0.0006108652451075613,0,0.00015271631127689034
1761486957192770600,9.4257705078125,0,-0.0010690141934901476,0.00015271631127689034
1761486957209595000,9.442594970703125,0,-0.0003054326225537807,0
1761486957226422000,9.459422119140624,0,0.00015271631127689034,0.0003054326225537807
1761486957243245800,9.476245849609375,0,0.00015271631127689034,0.0003054326225537807
1761486957260075300,9.4930751953125,0,0.00015271631127689034,0.00045814894838258624
1761486957276906200,9.50990625,0.00015271631127689034,0,0
1761486957293741600,9.526741455078126,-0.0006108652451075613,-0.0009162978967651725,0.0003054326225537807
1761486957310559700,9.543559814453126,0,0.00015271631127689034,0.0009162978967651725
1761486957327388200,9.56038818359375,0,0.0010690141934901476,0.0024434609804302454
1761486957344211500,9.57721142578125,0.0007635815418325365,0.0006108652451075613,0.0012217304902151227
1761486957361039000,9.5940390625,0.00045814894838258624,0.0009162978967651725,0.0003054326225537807
1761486957377854700,9.610854736328125,-0.00015271631127689034,-0.0007635815418325365,0.00015271631127689034
1761486957394696000,9.627696044921874,0.00015271631127689034,-0.0010690141934901476,0
1761486957411513600,9.644513671875,0,-0.0019853119738399982,-0.002138028386980295
1761486957428336000,9.661336181640625,0,-0.0010690141934901476,-0.00045814894838258624
