time,seconds_elapsed,z,y,x
1761465416860090600,0.152090576171875,0,0.0012217304902151227,-0.0009162978967651725
1761465416876931300,0.168931396484375,0.0003054326225537807,0,0.0003054326225537807
1761465416893753300,0.18575341796875,0.00015271631127689034,-0.0003054326225537807,0
1761465416910579700,0.202579833984375,0.0003054326225537807,0,0.00015271631127689034
1761465416927397600,0.219397705078125,-0.0007635815418325365,-0.0007635815418325365,0.00015271631127689034
1761465416944232400,0.236232421875,0,-0.0009162978967651725,-0.001527163083665073
1761465416961048800,0.253048828125,0.00045814894838258624,0.0003054326225537807,-0.0006108652451075613
1761465416977879800,0.2698798828125,0,0.00015271631127689034,0.0003054326225537807
1761465416994704100,0.2867041015625,0,-0.0010690141934901476,-0.00045814894838258624
1761465417011526000,0.30352587890625,0,0,-0.00015271631127689034
1761465417028341000,0.320341064453125,0,-0.001527163083665073,-0.00015271631127689034
1761465417045177600,0.337177490234375,0,-0.00015271631127689034,-0.001832595793530345
1761465417062001700,0.354001708984375,-0.00015271631127689034,0.00045814894838258624,-0.0009162978967651725
1761465417078825500,0.370825439453125,0,-0.001527163083665073,-0.00045814894838258624
1761465417095649800,0.38764990234375,0,-0.0007635815418325365,-0.00015271631127689034
1761465417112464600,0.404464599609375,0,-0.0010690141934901476,-0.0003054326225537807
1761465417129299200,0.42129931640625,0,-0.00045814894838258624,-0.0003054326225537807
1761465417146129000,0.43812890625,0,-0.00015271631127689034,-0.0010690141934901476
1761465417162950700,0.45495068359375,0,-0.00045814894838258624,-0.0007635815418325365
1761465417179773200,0.471773193359375,0,0.0006108652451075613,-0.0003054326225537807
1761465417196598500,0.4885986328125,0.00045814894838258624,0,-0.0006108652451075613
1761465417213422000,0.505422119140625,0.0003054326225537807,0,-0.0019853119738399982
1761465417230252300,0.522252197265625,-0.00045814894838258624,-0.0003054326225537807,-0.001679879380390048
1761465417247061000,0.53906103515625,0,0,-0.00015271631127689034
1761465417263898400,0.5558984375,0,0.00045814894838258624,0.0010690141934901476
1761465417280710400,0.57271044921875,0.00015271631127689034,-0.0003054326225537807,-0.0009162978967651725
1761465417297548300,0.58954833984375,0.0003054326225537807,-0.00015271631127689034,-0.001527163083665073
1761465417314374000,0.606373779296875,0.0007635815418325365,-0.0010690141934901476,-0.0009162978967651725
1761465417331182300,0.623182373046875,0.0010690141934901476,0.0007635815418325365,-0.00015271631127689034
1761465417348021500,0.640021484375,0,-0.0019853119738399982,-0.00045814894838258624
1761465417364847600,0.65684765625,0,-0.00015271631127689034,-0.00015271631127689034
1761465417381672200,0.673672119140625,0,0.00015271631127689034,0.0003054326225537807
1761465417398496800,0.690496826171875,0.0003054326225537807,0,-0.0012217304902151227
1761465417415319800,0.70731982421875,0,-0.00015271631127689034,0.00015271631127689034
1761465417432145700,0.724145751953125,0.0003054326225537807,-0.0007635815418325365,0.0003054326225537807
1761465417448970500,0.740970458984375,0,0.0010690141934901476,-0.00045814894838258624
1761465417465794000,0.7577939453125,-0.0006108652451075613,0.00015271631127689034,-0.00015271631127689034
1761465417482620200,0.7746201171875,0.0003054326225537807,0,-0.0007635815418325365
1761465417499450000,0.7914501953125,-0.00015271631127689034,0.0003054326225537807,0.00015271631127689034
1761465417516265700,0.808265625,0.0003054326225537807,-0.0010690141934901476,-0.0010690141934901476
1761465417533097700,0.82509765625,0,-0.0012217304902151227,0.0003054326225537807
1761465417549921000,0.841921142578125,-0.00015271631127689034,-0.0007635815418325365,0
1761465417566742000,0.858741943359375,-0.0007635815418325365,-0.0003054326225537807,-0.00015271631127689034
1761465417583570400,0.8755703125,-0.0003054326225537807,-0.0007635815418325365,-0.0006108652451075613
1761465417600394200,0.892394287109375,0,0.0003054326225537807,-0.0006108652451075613
1761465417617217500,0.909217529296875,0,0.00045814894838258624,-0.00045814894838258624
1761465417634043100,0.926043212890625,0,-0.0003054326225537807,-0.001527163083665073
1761465417650868500,0.942868408203125,0,0.0007635815418325365,0.00015271631127689034
1761465417667692000,0.959692138671875,-0.00015271631127689034,-0.0007635815418325365,-0.0010690141934901476
1761465417684516000,0.97651611328125,-0.0007635815418325365,-0.0006108652451075613,-0.00015271631127689034
1761465417701343000,0.993343017578125,0,-0.0009162978967651725,-0.00015271631127689034
1761465417718168600,1.01016845703125,-0.0003054326225537807,0.0010690141934901476,-0.00015271631127689034
1761465417734998500,1.02699853515625,-0.00015271631127689034,-0.0006108652451075613,0.0006108652451075613
1761465417751816700,1.043816650390625,0,-0.00015271631127689034,0.00015271631127689034
1761465417768625000,1.060625,-0.0003054326225537807,0,-0.00015271631127689034
1761465417785457200,1.07745703125,0.00015271631127689034,-0.0009162978967651725,0.0003054326225537807
1761465417802291000,1.094291015625,0,0.0009162978967651725,-0.0012217304902151227
1761465417819115800,1.11111572265625,0,0.0012217304902151227,-0.0009162978967651725
1761465417835939000,1.12793896484375,0,0.0007635815418325365,-0.0009162978967651725
1761465417852765400,1.144765380859375,0,0.0003054326225537807,0
1761465417869592600,1.161592529296875,0.0003054326225537807,-0.00015271631127689034,-0.00015271631127689034
1761465417886413800,1.178413818359375,0,-0.00015271631127689034,-0.00015271631127689034
1761465417903240400,1.195240478515625,0,-0.00015271631127689034,-0.00045814894838258624
1761465417920063200,1.212063232421875,0,-0.0007635815418325365,-0.0006108652451075613
1761465417936888300,1.228888427734375,0,0,-0.0012217304902151227
1761465417953713700,1.245713623046875,0.0010690141934901476,-0.0007635815418325365,-0.001832595793530345
1761465417970538000,1.2625380859375,0.0007635815418325365,0.0007635815418325365,-0.0009162978967651725
1761465417987362800,1.27936279296875,0,-0.0006108652451075613,-0.0010690141934901476
1761465418004186600,1.2961865234375,0.00045814894838258624,0.00015271631127689034,-0.0006108652451075613
1761465418021012200,1.31301220703125,0,0.0012217304902151227,-0.0009162978967651725
1761465418037836800,1.3298369140625,0.0003054326225537807,-0.0010690141934901476,-0.0024434609804302454
1761465418054662700,1.34666259765625,0.0007635815418325365,0,-0.001679879380390048
1761465418071492000,1.3634921875,-0.0007635815418325365,-0.0006108652451075613,-0.001679879380390048
1761465418088310800,1.380310791015625,-0.0010690141934901476,-0.0003054326225537807,0.0010690141934901476
1761465418105129200,1.397129150390625,-0.0010690141934901476,-0.001832595793530345,0.0010690141934901476
1761465418121959200,1.413959228515625,-0.00015271631127689034,-0.0009162978967651725,0.00015271631127689034
1761465418138776800,1.43077685546875,0.0007635815418325365,0.001832595793530345,-0.001679879380390048
1761465418155608000,1.447608154296875,0.0003054326225537807,0.00015271631127689034,0.00015271631127689034
1761465418172442000,1.464442138671875,0.0007635815418325365,0.0007635815418325365,-0.00015271631127689034
1761465418189246000,1.481245849609375,0.0012217304902151227,0.00015271631127689034,0.0003054326225537807
1761465418206086100,1.498086181640625,0.0010690141934901476,0.0003054326225537807,-0.0007635815418325365
1761465418222910000,1.514909912109375,0.0012217304902151227,0.0027488935738801956,-0.0007635815418325365
1761465418239736000,1.531736083984375,0.0003054326225537807,0.0010690141934901476,-0.0012217304902151227
1761465418256564500,1.548564453125,0.0012217304902151227,-0.0012217304902151227,-0.0003054326225537807
1761465418273384000,1.565384033203125,0.0003054326225537807,-0.001679879380390048,-0.00045814894838258624
1761465418290209300,1.582209228515625,0.0009162978967651725,0,-0.0013744467869400978
1761465418307033000,1.599033203125,0.00015271631127689034,-0.001527163083665073,-0.0006108652451075613
1761465418323858400,1.6158583984375,0.0007635815418325365,-0.00015271631127689034,-0.0019853119738399982
1761465418340683500,1.63268359375,0,0.0007635815418325365,-0.0019853119738399982
1761465418357507000,1.649507080078125,0,0.0012217304902151227,-0.0019853119738399982
1761465418374331400,1.666331298828125,0,-0.0007635815418325365,-0.00045814894838258624
1761465418391157500,1.683157470703125,0,0.0009162978967651725,-0.0006108652451075613
1761465418407981600,1.699981689453125,-0.00015271631127689034,0.0019853119738399982,-0.0009162978967651725
1761465418424808700,1.71680859375,0,0.0006108652451075613,-0.0009162978967651725
1761465418441632300,1.73363232421875,-0.0009162978967651725,-0.0010690141934901476,0.0003054326225537807
1761465418458459000,1.750458984375,-0.00015271631127689034,0.0010690141934901476,-0.001679879380390048
1761465418475281000,1.767281005859375,0,-0.0007635815418325365,0.0003054326225537807
1761465418492106800,1.784106689453125,0.0007635815418325365,-0.00045814894838258624,0.0003054326225537807
1761465418508930000,1.800929931640625,0,-0.0003054326225537807,-0.0009162978967651725
1761465418525754600,1.817754638671875,0.0009162978967651725,-0.00045814894838258624,-0.00045814894838258624
1761465418542572300,1.834572265625,0.0003054326225537807,-0.0003054326225537807,-0.0006108652451075613
1761465418559403800,1.85140380859375,0.00045814894838258624,-0.0013744467869400978,-0.00045814894838258624
1761465418576230700,1.868230712890625,0.0003054326225537807,0.00015271631127689034,-0.001679879380390048
1761465418593052700,1.885052734375,0.0007635815418325365,0.0007635815418325365,-0.0013744467869400978
1761465418609877000,1.901876953125,0,0,0.00015271631127689034
1761465418626690300,1.918690185546875,0,0.00015271631127689034,-0.0006108652451075613
1761465418643527700,1.935527587890625,0.0009162978967651725,0.0003054326225537807,-0.001679879380390048
1761465418660354000,1.95235400390625,0,-0.0007635815418325365,-0.00015271631127689034
1761465418677180700,1.9691806640625,0,-0.0003054326225537807,-0.0012217304902151227
1761465418694003500,1.98600341796875,0.00015271631127689034,0.00045814894838258624,-0.0006108652451075613
1761465418710828300,2.002828369140625,0.00015271631127689034,-0.0010690141934901476,0.0003054326225537807
1761465418727651800,2.01965185546875,-0.00015271631127689034,-0.0003054326225537807,-0.00045814894838258624
1761465418744486700,2.036486572265625,0,0,0.0003054326225537807
1761465418761302500,2.053302490234375,-0.00015271631127689034,-0.0010690141934901476,0
1761465418778130700,2.070130615234375,0.0009162978967651725,0.00015271631127689034,0.0003054326225537807
1761465418794954500,2.08695458984375,-0.00015271631127689034,-0.0010690141934901476,0.0007635815418325365
1761465418811776000,2.10377587890625,-0.00015271631127689034,-0.00015271631127689034,0.00045814894838258624
1761465418828608300,2.120608154296875,-0.00045814894838258624,-0.0006108652451075613,0.0010690141934901476
1761465418845428500,2.137428466796875,-0.00015271631127689034,0.00045814894838258624,0.00045814894838258624
1761465418862248700,2.154248779296875,-0.00015271631127689034,0.0013744467869400978,0.00045814894838258624
1761465418879062800,2.171062744140625,-0.00015271631127689034,0.00015271631127689034,0.0006108652451075613
1761465418895899600,2.187899658203125,-0.00015271631127689034,0.00015271631127689034,0.0009162978967651725
1761465418912723000,2.204722900390625,0.0006108652451075613,-0.0009162978967651725,0.0006108652451075613
1761465418929551000,2.221551025390625,-0.0003054326225537807,-0.0007635815418325365,0.0010690141934901476
1761465418946376200,2.238376220703125,-0.00015271631127689034,0.00015271631127689034,-0.0003054326225537807
1761465418963196400,2.255196533203125,0.0006108652451075613,0.00045814894838258624,0.0007635815418325365
1761465418980033500,2.272033447265625,-0.00045814894838258624,-0.00045814894838258624,0
1761465418996848000,2.28884814453125,0.0009162978967651725,0,-0.0003054326225537807
1761465419013673500,2.305673583984375,0,0.00015271631127689034,0.00045814894838258624
1761465419030498000,2.322498046875,0.0006108652451075613,0.00015271631127689034,0
1761465419047322000,2.339322021484375,0.00015271631127689034,0.0003054326225537807,-0.0003054326225537807
1761465419064149000,2.35614892578125,-0.00015271631127689034,0.0003054326225537807,0.00015271631127689034
1761465419080970200,2.37297021484375,-0.00015271631127689034,0.00015271631127689034,-0.00015271631127689034
1761465419097799200,2.389799072265625,-0.00015271631127689034,-0.00015271631127689034,0.0003054326225537807
1761465419114620700,2.40662060546875,0.00015271631127689034,0.00015271631127689034,-0.0003054326225537807
1761465419131451100,2.423451171875,0,0,0.00015271631127689034
1761465419148273700,2.440273681640625,0,-0.0009162978967651725,0.0013744467869400978
1761465419165098500,2.457098388671875,0.0009162978967651725,-0.0010690141934901476,-0.00015271631127689034
1761465419181923000,2.473923095703125,0.0006108652451075613,-0.0007635815418325365,0.0012217304902151227
1761465419198744000,2.490744140625,0.0003054326225537807,-0.0009162978967651725,-0.0006108652451075613
1761465419215571700,2.50757177734375,0.0009162978967651725,-0.0007635815418325365,0.0013744467869400978
1761465419232395500,2.5243955078125,-0.00015271631127689034,0,0
1761465419249219600,2.541219482421875,-0.00045814894838258624,0.00015271631127689034,0.0006108652451075613
1761465419266044000,2.5580439453125,0.00045814894838258624,-0.0003054326225537807,0.0012217304902151227
1761465419282870000,2.5748701171875,-0.00015271631127689034,0.00015271631127689034,0.0007635815418325365
1761465419299695400,2.5916953125,-0.00015271631127689034,0.00015271631127689034,0.00015271631127689034
1761465419316518400,2.608518310546875,-0.0003054326225537807,0.00015271631127689034,0.0007635815418325365
1761465419333344500,2.625344482421875,-0.00015271631127689034,0.00015271631127689034,0.0009162978967651725
1761465419350169900,2.642169921875,-0.00015271631127689034,-0.001527163083665073,0
1761465419366993000,2.658992919921875,-0.00015271631127689034,0.0007635815418325365,0.00045814894838258624
1761465419383818200,2.675818359375,0.0006108652451075613,-0.0010690141934901476,0.0007635815418325365
1761465419400643600,2.6926435546875,-0.00015271631127689034,0,-0.0003054326225537807
1761465419417454000,2.7094541015625,-0.00015271631127689034,-0.0003054326225537807,0.0003054326225537807
1761465419434296300,2.72629638671875,-0.00015271631127689034,0.0012217304902151227,-0.0007635815418325365
1761465419451118600,2.74311865234375,-0.00015271631127689034,-0.00045814894838258624,0.0003054326225537807
1761465419467941000,2.759941162109375,-0.0009162978967651725,0.0007635815418325365,0.0009162978967651725
1761465419484768500,2.7767685546875,0.0007635815418325365,0.0003054326225537807,-0.00045814894838258624
1761465419501589500,2.793589599609375,-0.00015271631127689034,-0.0009162978967651725,0.00045814894838258624
1761465419518418700,2.810418701171875,0.0006108652451075613,0.0010690141934901476,-0.0006108652451075613
1761465419535223800,2.827223876953125,0,0.00015271631127689034,0.0009162978967651725
1761465419552065300,2.844065185546875,-0.00015271631127689034,-0.0003054326225537807,0.0009162978967651725
1761465419568890000,2.86089013671875,-0.00015271631127689034,0.00045814894838258624,-0.0003054326225537807
1761465419585714200,2.877714111328125,-0.00015271631127689034,-0.0007635815418325365,0.00045814894838258624
1761465419602539000,2.8945390625,-0.0009162978967651725,0.00015271631127689034,0.0006108652451075613
1761465419619364900,2.91136474609375,-0.0003054326225537807,0,0.00015271631127689034
1761465419636188200,2.928188232421875,-0.00015271631127689034,0.0012217304902151227,-0.0010690141934901476
1761465419653014300,2.94501416015625,-0.00015271631127689034,0,0
1761465419669846000,2.961845947265625,-0.00015271631127689034,0.0003054326225537807,0
1761465419686666800,2.978666748046875,-0.00015271631127689034,0.00015271631127689034,0
1761465419703491800,2.995491943359375,-0.00015271631127689034,0.00015271631127689034,0.0006108652451075613
1761465419720313900,3.01231396484375,0.0006108652451075613,-0.0006108652451075613,0.0006108652451075613
1761465419737139700,3.0291396484375,-0.00015271631127689034,-0.0003054326225537807,-0.0003054326225537807
1761465419753963800,3.0459638671875,-0.00015271631127689034,0.0009162978967651725,-0.0003054326225537807
1761465419770791700,3.062791748046875,-0.00015271631127689034,-0.00015271631127689034,0.00045814894838258624
1761465419787607600,3.079607666015625,-0.00015271631127689034,0.00045814894838258624,-0.0003054326225537807
1761465419804439600,3.096439453125,-0.00015271631127689034,-0.0006108652451075613,0.00045814894838258624
1761465419821259800,3.113259765625,-0.0003054326225537807,0.0010690141934901476,-0.00015271631127689034
1761465419838088700,3.130088623046875,-0.00015271631127689034,-0.0009162978967651725,-0.00045814894838258624
1761465419854910500,3.146910400390625,0,-0.00015271631127689034,0
1761465419871736600,3.163736572265625,-0.00015271631127689034,-0.0003054326225537807,0.0010690141934901476
1761465419888563700,3.180563720703125,0.00015271631127689034,0.0003054326225537807,-0.0010690141934901476
1761465419905384400,3.197384521484375,-0.00015271631127689034,-0.0006108652451075613,-0.0003054326225537807
1761465419922212000,3.214212158203125,-0.00015271631127689034,0.00045814894838258624,0
1761465419939022800,3.23102294921875,-0.00015271631127689034,-0.00045814894838258624,-0.0003054326225537807
1761465419955859200,3.247859130859375,-0.00015271631127689034,0.00045814894838258624,0.0007635815418325365
1761465419972684800,3.264684814453125,-0.0003054326225537807,0.00015271631127689034,0.0006108652451075613
1761465419989509000,3.281509033203125,0.00015271631127689034,0.0006108652451075613,-0.0006108652451075613
1761465420006333000,3.2983330078125,-0.00015271631127689034,-0.00015271631127689034,0
1761465420023159800,3.315159912109375,0.00015271631127689034,-0.00015271631127689034,0
1761465420039971300,3.331971435546875,-0.00015271631127689034,-0.00015271631127689034,0.00015271631127689034
1761465420056798200,3.348798095703125,0.00015271631127689034,0.00015271631127689034,0.00045814894838258624
1761465420073633500,3.365633544921875,-0.00015271631127689034,0.00045814894838258624,-0.0003054326225537807
1761465420090459000,3.382458984375,-0.00015271631127689034,0,0.00045814894838258624
1761465420107282400,3.399282470703125,-0.00015271631127689034,0,0
1761465420124105200,3.416105224609375,-0.00015271631127689034,-0.0006108652451075613,-0.0012217304902151227
1761465420140933400,3.432933349609375,-0.00015271631127689034,0,-0.0012217304902151227
1761465420157752800,3.4497529296875,-0.00015271631127689034,0.00045814894838258624,-0.00015271631127689034
1761465420174584000,3.466583984375,-0.0003054326225537807,-0.0007635815418325365,0.0007635815418325365
1761465420191406600,3.483406494140625,0.00015271631127689034,0.00045814894838258624,0.00045814894838258624
1761465420208232700,3.500232666015625,-0.00015271631127689034,-0.0009162978967651725,0.0003054326225537807
1761465420225053000,3.517052978515625,-0.00015271631127689034,0.0007635815418325365,-0.0003054326225537807
1761465420241881600,3.533881591796875,0.00015271631127689034,-0.0007635815418325365,-0.00015271631127689034
1761465420258705000,3.550704833984375,0.0006108652451075613,0,0
1761465420275538700,3.56753857421875,-0.00015271631127689034,-0.0010690141934901476,-0.0003054326225537807
1761465420292347100,3.58434716796875,-0.00015271631127689034,0.00015271631127689034,0.00045814894838258624
1761465420309181700,3.601181640625,-0.00015271631127689034,0.00015271631127689034,0.0006108652451075613
1761465420326003700,3.618003662109375,0,0.00015271631127689034,0.0003054326225537807
1761465420342827300,3.6348271484375,0.00015271631127689034,0.0009162978967651725,-0.0007635815418325365
1761465420359658200,3.651658203125,-0.00015271631127689034,0,0.0003054326225537807
1761465420376491500,3.668491455078125,-0.0009162978967651725,0,0.0003054326225537807
1761465420393303800,3.6853037109375,-0.00015271631127689034,0.00015271631127689034,0
1761465420410135800,3.7021357421875,0.00015271631127689034,0,0.0007635815418325365
1761465420426953000,3.718952880859375,-0.00015271631127689034,-0.0009162978967651725,0.0007635815418325365
1761465420443777500,3.735777587890625,0,0,0.0003054326225537807
1761465420460591600,3.752591552734375,0.0006108652451075613,0,-0.00045814894838258624
1761465420477427000,3.769427001953125,0,-0.00015271631127689034,0.0010690141934901476
1761465420494251300,3.786251220703125,-0.00015271631127689034,-0.0009162978967651725,0.00045814894838258624
1761465420511077400,3.803077392578125,-0.00015271631127689034,-0.0003054326225537807,0.0007635815418325365
1761465420527901400,3.8199013671875,-0.00015271631127689034,0,0.0006108652451075613
1761465420544740600,3.83674072265625,-0.0007635815418325365,-0.0006108652451075613,0.0007635815418325365
1761465420561554400,3.853554443359375,0,0.00045814894838258624,-0.00015271631127689034
1761465420578375700,3.870375732421875,-0.00045814894838258624,-0.0009162978967651725,0
1761465420595197200,3.887197265625,-0.00015271631127689034,-0.0003054326225537807,0.0006108652451075613
1761465420612026000,3.904026123046875,0.00015271631127689034,0.0009162978967651725,-0.00015271631127689034
1761465420628838000,3.920837890625,-0.00045814894838258624,0.00015271631127689034,-0.0003054326225537807
1761465420645674200,3.93767431640625,-0.00015271631127689034,-0.0006108652451075613,0.0007635815418325365
1761465420662506000,3.954506103515625,0.0007635815418325365,0,0.0007635815418325365
1761465420679324000,3.971323974609375,-0.00015271631127689034,-0.0006108652451075613,-0.00045814894838258624
1761465420696146700,3.988146728515625,0.00015271631127689034,0.0007635815418325365,-0.00045814894838258624
1761465420712979000,4.00497900390625,0,0.0003054326225537807,0
1761465420729828400,4.021828369140625,-0.00015271631127689034,-0.0012217304902151227,-0.0009162978967651725
1761465420746622700,4.038622802734375,0,0.0009162978967651725,-0.0010690141934901476
1761465420763452200,4.0554521484375,-0.00015271631127689034,-0.0006108652451075613,-0.00045814894838258624
1761465420780273700,4.072273681640625,-0.00015271631127689034,0.0007635815418325365,-0.0012217304902151227
1761465420797087000,4.0890869140625,0.0003054326225537807,0.00045814894838258624,0.0003054326225537807
1761465420813923600,4.105923583984375,0.00015271631127689034,-0.00015271631127689034,-0.0003054326225537807
1761465420830748000,4.122747802734375,-0.00015271631127689034,-0.00015271631127689034,0.0003054326225537807
1761465420847573500,4.139573486328125,0.00015271631127689034,0.00015271631127689034,0.0003054326225537807
1761465420864396300,4.156396240234375,-0.00015271631127689034,0,-0.00045814894838258624
1761465420881221600,4.1732216796875,-0.00015271631127689034,0.0006108652451075613,0
1761465420898045400,4.19004541015625,-0.00015271631127689034,0.0003054326225537807,-0.00045814894838258624
1761465420914871300,4.206871337890625,-0.00015271631127689034,-0.0006108652451075613,0.0010690141934901476
1761465420931696400,4.2236962890625,-0.00015271631127689034,-0.0003054326225537807,-0.00045814894838258624
1761465420948520000,4.24052001953125,-0.00045814894838258624,0,0
1761465420965345000,4.257344970703125,0.0006108652451075613,-0.00015271631127689034,-0.0003054326225537807
1761465420982171600,4.274171630859375,-0.0003054326225537807,0.0009162978967651725,0.0007635815418325365
1761465420998994200,4.290994140625,-0.00015271631127689034,0.00045814894838258624,-0.00045814894838258624
1761465421015818800,4.30781884765625,-0.0003054326225537807,0,-0.00045814894838258624
1761465421032644600,4.32464453125,0.00015271631127689034,0.00015271631127689034,-0.0012217304902151227
1761465421049459000,4.341458984375,0.0006108652451075613,0.0009162978967651725,0.00045814894838258624
1761465421066292700,4.358292724609375,-0.00015271631127689034,-0.00045814894838258624,0
1761465421083121200,4.37512109375,-0.00015271631127689034,0.0010690141934901476,-0.0009162978967651725
1761465421099944200,4.391944091796875,-0.0010690141934901476,-0.0003054326225537807,-0.00015271631127689034
1761465421116767700,4.408767822265625,-0.00015271631127689034,-0.0007635815418325365,-0.00045814894838258624
1761465421133593300,4.42559326171875,0.00015271631127689034,-0.0010690141934901476,0.00015271631127689034
1761465421150419500,4.44241943359375,-0.00015271631127689034,-0.0007635815418325365,-0.00045814894838258624
1761465421167242800,4.45924267578125,-0.00015271631127689034,-0.0010690141934901476,0.0003054326225537807
1761465421184066800,4.47606689453125,0.0003054326225537807,-0.001832595793530345,0.0010690141934901476
1761465421200892400,4.492892333984375,-0.00015271631127689034,0,-0.0003054326225537807
1761465421217716200,4.50971630859375,0.0006108652451075613,-0.0006108652451075613,-0.0003054326225537807
1761465421234540300,4.526540283203125,0,-0.0003054326225537807,0.00045814894838258624
1761465421251367700,4.54336767578125,0,0.00015271631127689034,-0.0003054326225537807
1761465421268187600,4.560187744140625,-0.0009162978967651725,-0.00015271631127689034,-0.00015271631127689034
1761465421285012200,4.57701220703125,-0.0009162978967651725,0.0003054326225537807,0.0003054326225537807
1761465421301845200,4.59384521484375,-0.00015271631127689034,0.00015271631127689034,0.0003054326225537807
1761465421318664700,4.610664794921875,0,-0.00015271631127689034,-0.0006108652451075613
1761465421335495200,4.6274951171875,-0.00015271631127689034,0,-0.0003054326225537807
1761465421352310500,4.644310546875,-0.00015271631127689034,0.00015271631127689034,0.00045814894838258624
1761465421369141000,4.66114111328125,-0.00015271631127689034,0,0.0006108652451075613
1761465421385964000,4.677964111328125,0,-0.0003054326225537807,-0.0012217304902151227
1761465421402788600,4.69478857421875,-0.00015271631127689034,-0.00015271631127689034,0.0012217304902151227
1761465421419619300,4.711619384765625,-0.00015271631127689034,-0.0010690141934901476,0.0007635815418325365
1761465421436444200,4.728444091796875,-0.00015271631127689034,0.0003054326225537807,0.0003054326225537807
1761465421453251600,4.74525146484375,-0.00015271631127689034,0.00015271631127689034,-0.0003054326225537807
1761465421470091500,4.762091552734375,-0.00015271631127689034,0,0.0010690141934901476
1761465421486909200,4.7789091796875,-0.00015271631127689034,0.00015271631127689034,0.0007635815418325365
1761465421503740700,4.79574072265625,0,0.00015271631127689034,0.0006108652451075613
1761465421520564000,4.81256396484375,-0.00015271631127689034,0.00015271631127689034,0
1761465421537386800,4.82938671875,-0.00015271631127689034,-0.0009162978967651725,-0.00045814894838258624
1761465421554211600,4.846211669921875,-0.00015271631127689034,0.0007635815418325365,0.0003054326225537807
1761465421571036400,4.863036376953125,0.00015271631127689034,0,-0.00045814894838258624
1761465421587861000,4.879861083984375,0.00015271631127689034,-0.0003054326225537807,0
1761465421604685000,4.89668505859375,-0.00015271631127689034,-0.00015271631127689034,-0.00015271631127689034
1761465421621510100,4.91351025390625,-0.00015271631127689034,-0.0007635815418325365,0.00015271631127689034
1761465421638334700,4.930334716796875,0,-0.0006108652451075613,0.0007635815418325365
1761465421655149000,4.947149169921875,-0.00015271631127689034,-0.0007635815418325365,0.0006108652451075613
1761465421671972600,4.96397265625,-0.00015271631127689034,-0.0013744467869400978,0.0003054326225537807
1761465421688799700,4.9807998046875,0,0,0.00045814894838258624
1761465421705633800,4.9976337890625,-0.00015271631127689034,0.0009162978967651725,-0.00045814894838258624
1761465421722458400,5.014458251953125,0.0006108652451075613,0.00015271631127689034,0
1761465421739283700,5.03128369140625,0,-0.00015271631127689034,-0.00045814894838258624
1761465421756108500,5.048108642578125,-0.0007635815418325365,-0.00045814894838258624,0.0003054326225537807
1761465421772934400,5.064934326171875,-0.0007635815418325365,-0.0003054326225537807,0.0003054326225537807
1761465421789759700,5.081759765625,-0.0009162978967651725,0.0013744467869400978,-0.0009162978967651725
1761465421806588700,5.098588623046875,0.00015271631127689034,-0.00015271631127689034,0.0006108652451075613
1761465421823407900,5.115407958984375,-0.0007635815418325365,0.00015271631127689034,0
1761465421840234000,5.13223388671875,0.0007635815418325365,0.00015271631127689034,0.0010690141934901476
1761465421857056500,5.149056396484375,-0.00015271631127689034,0.00015271631127689034,-0.00045814894838258624
1761465421873882400,5.16588232421875,0,0,0.0003054326225537807
1761465421890686200,5.182686279296875,-0.0003054326225537807,0.0012217304902151227,-0.0006108652451075613
1761465421907519700,5.199519775390625,0,0.00045814894838258624,-0.0003054326225537807
1761465421924358000,5.21635791015625,0.0006108652451075613,0,-0.00015271631127689034
1761465421941180000,5.233179931640625,0.0003054326225537807,0.00015271631127689034,-0.00045814894838258624
1761465421958005500,5.250005615234375,0,-0.0012217304902151227,0.00015271631127689034
1761465421974833000,5.2668330078125,0.0007635815418325365,-0.0010690141934901476,-0.00045814894838258624
1761465421991658800,5.28365869140625,0,-0.0009162978967651725,-0.00045814894838258624
1761465422008491500,5.300491455078125,0,0.0012217304902151227,-0.0006108652451075613
1761465422025303800,5.3173037109375,-0.0003054326225537807,0.0003054326225537807,-0.0003054326225537807
1761465422042134800,5.334134765625,-0.00015271631127689034,0.00015271631127689034,-0.0009162978967651725
1761465422058954500,5.35095458984375,-0.0007635815418325365,0,0.00045814894838258624
1761465422075776300,5.3677763671875,0,0.00015271631127689034,0.0006108652451075613
1761465422092605700,5.384605712890625,0,0.00015271631127689034,0.0006108652451075613
1761465422109429000,5.401428955078125,-0.0003054326225537807,-0.00015271631127689034,0.0007635815418325365
1761465422126252000,5.418251953125,0.00015271631127689034,-0.0009162978967651725,-0.00045814894838258624
1761465422143074300,5.43507421875,-0.00015271631127689034,-0.00015271631127689034,-0.0009162978967651725
1761465422159908400,5.451908447265625,-0.0003054326225537807,0.0003054326225537807,-0.0003054326225537807
1761465422176727600,5.4687275390625,0.00015271631127689034,0.00015271631127689034,-0.0006108652451075613
1761465422193553000,5.485552978515625,0,0,0.0003054326225537807
1761465422210377700,5.502377685546875,-0.00015271631127689034,-0.00015271631127689034,-0.00015271631127689034
1761465422227201500,5.519201416015625,0,-0.0012217304902151227,0.00015271631127689034
1761465422244027000,5.53602685546875,-0.00015271631127689034,0.0010690141934901476,-0.0003054326225537807
1761465422260849700,5.552849609375,-0.0007635815418325365,0,-0.00015271631127689034
1761465422277676000,5.569676025390625,0.00015271631127689034,-0.00045814894838258624,-0.00015271631127689034
1761465422294499800,5.586499755859375,-0.0003054326225537807,0.0009162978967651725,-0.0006108652451075613
1761465422311326500,5.603326416015625,0.00015271631127689034,-0.00015271631127689034,-0.00045814894838258624
1761465422328150500,5.620150634765625,0,-0.00015271631127689034,0.0006108652451075613
1761465422344975400,5.636975341796875,0,0.0009162978967651725,0.0010690141934901476
1761465422361799400,5.65379931640625,-0.00015271631127689034,0.0009162978967651725,-0.0007635815418325365
1761465422378624300,5.670624267578125,0,-0.00015271631127689034,-0.00045814894838258624
1761465422395452700,5.68745263671875,0,-0.001679879380390048,0.0007635815418325365
1761465422412277800,5.70427783203125,0,-0.00015271631127689034,-0.00045814894838258624
1761465422429095700,5.721095703125,0,0.0006108652451075613,0.00015271631127689034
1761465422445923300,5.73792333984375,0,-0.00045814894838258624,0.0003054326225537807
1761465422462755800,5.754755859375,0,0.0009162978967651725,0.0006108652451075613
1761465422479576000,5.771576171875,0.0003054326225537807,-0.00015271631127689034,-0.00045814894838258624
1761465422496397600,5.7883974609375,0,0.00015271631127689034,0.0006108652451075613
1761465422513223400,5.805223388671875,0,0.00015271631127689034,0.0006108652451075613
1761465422530048300,5.82204833984375,0,-0.0006108652451075613,-0.0003054326225537807
1761465422546877400,5.83887744140625,0.00015271631127689034,0.0010690141934901476,-0.0006108652451075613
1761465422563697400,5.855697509765625,0,-0.00045814894838258624,-0.0006108652451075613
1761465422580521000,5.87252099609375,0,-0.0006108652451075613,0.0010690141934901476
1761465422597346600,5.8893466796875,-0.0007635815418325365,0.0010690141934901476,-0.00045814894838258624
1761465422614174000,5.906174072265625,-0.0010690141934901476,-0.0007635815418325365,0.00045814894838258624
1761465422630996700,5.922996826171875,-0.00015271631127689034,0.00015271631127689034,-0.00045814894838258624
1761465422647809800,5.939809814453125,0,0.0006108652451075613,-0.00045814894838258624
1761465422664644400,5.956644287109375,0,0.00045814894838258624,0
1761465422681459000,5.973458984375,-0.0007635815418325365,-0.0007635815418325365,0.0007635815418325365
1761465422698294300,5.990294189453125,-0.00015271631127689034,-0.00045814894838258624,-0.0009162978967651725
1761465422715120600,6.00712060546875,0,0.00015271631127689034,0.0012217304902151227
1761465422731933700,6.02393359375,0,-0.0003054326225537807,0.00015271631127689034
1761465422748768800,6.040768798828125,0,0.0009162978967651725,0.0006108652451075613
1761465422765593600,6.057593505859375,0,-0.0007635815418325365,-0.00045814894838258624
1761465422782420200,6.074420166015625,-0.00015271631127689034,0.00015271631127689034,-0.0006108652451075613
1761465422799243800,6.091243896484375,0,0,0.0009162978967651725
1761465422816067000,6.108067138671875,-0.0003054326225537807,0.0009162978967651725,-0.0010690141934901476
1761465422832893200,6.12489306640625,-0.00015271631127689034,0.0009162978967651725,0.0003054326225537807
1761465422849726200,6.141726318359375,0,0.00045814894838258624,-0.00045814894838258624
1761465422866539500,6.15853955078125,0,0.0009162978967651725,-0.0006108652451075613
1761465422883364900,6.17536474609375,0,-0.00015271631127689034,0.0003054326225537807
1761465422900195600,6.192195556640625,0,0,0.0003054326225537807
1761465422917016600,6.2090166015625,-0.00045814894838258624,-0.0003054326225537807,-0.00045814894838258624
1761465422933841700,6.225841552734375,0,0.00015271631127689034,-0.00015271631127689034
1761465422950667300,6.242667236328125,-0.0003054326225537807,0.00015271631127689034,0.0003054326225537807
1761465422967491300,6.2594912109375,-0.0003054326225537807,0.00015271631127689034,0.0003054326225537807
1761465422984310500,6.276310546875,0,-0.0009162978967651725,0.0006108652451075613
1761465423001146000,6.29314599609375,0,-0.0006108652451075613,-0.0007635815418325365
1761465423017965300,6.30996533203125,0.00045814894838258624,-0.00015271631127689034,-0.00045814894838258624
1761465423034784300,6.3267841796875,0.0003054326225537807,-0.0007635815418325365,-0.0006108652451075613
1761465423051615500,6.343615478515625,0,0,-0.0012217304902151227
1761465423068445000,6.36044482421875,0.0007635815418325365,0.0009162978967651725,0.00045814894838258624
1761465423085260300,6.37726025390625,0,0.00045814894838258624,-0.00045814894838258624
1761465423102092800,6.3940927734375,-0.0003054326225537807,-0.0007635815418325365,-0.0006108652451075613
1761465423118914300,6.410914306640625,0.0003054326225537807,0.00015271631127689034,-0.00015271631127689034
1761465423135734000,6.427734130859375,-0.00015271631127689034,-0.0006108652451075613,0.0003054326225537807
1761465423152556000,6.44455615234375,-0.00015271631127689034,-0.00015271631127689034,-0.0003054326225537807
1761465423169387800,6.4613876953125,-0.00015271631127689034,-0.00015271631127689034,0.0003054326225537807
1761465423186212400,6.47821240234375,0.0006108652451075613,0.00015271631127689034,0.0006108652451075613
1761465423203037400,6.495037353515625,0.0010690141934901476,0.0006108652451075613,0.00045814894838258624
1761465423219870700,6.51187060546875,0,0.0010690141934901476,-0.00015271631127689034
1761465423236672500,6.528672607421875,0,-0.0003054326225537807,-0.00015271631127689034
1761465423253501400,6.54550146484375,0,0,0.00015271631127689034
1761465423270337300,6.562337158203125,0.00015271631127689034,-0.0006108652451075613,-0.00045814894838258624
1761465423287164700,6.57916455078125,0,-0.0009162978967651725,-0.0006108652451075613
1761465423303986200,6.595986083984375,0.0010690141934901476,0.00015271631127689034,0.0006108652451075613
1761465423320811500,6.6128115234375,0.00015271631127689034,-0.00015271631127689034,0.0003054326225537807
1761465423337635300,6.62963525390625,0,0.001832595793530345,0.0006108652451075613
1761465423354456300,6.646456298828125,0.0007635815418325365,0.0003054326225537807,-0.00015271631127689034
1761465423371285500,6.663285400390625,0.0009162978967651725,0.0003054326225537807,-0.00015271631127689034
1761465423388110600,6.680110595703125,0.00015271631127689034,0.0006108652451075613,-0.0003054326225537807
1761465423404936700,6.696936767578125,0,-0.0003054326225537807,0.0006108652451075613
1761465423421758200,6.71375830078125,0.0003054326225537807,-0.0007635815418325365,-0.0003054326225537807
1761465423438583600,6.73058349609375,-0.0007635815418325365,0.00015271631127689034,-0.00045814894838258624
1761465423455407900,6.747407958984375,0,0.00015271631127689034,0.0003054326225537807
1761465423472236300,6.764236328125,0,0.0003054326225537807,-0.00015271631127689034
1761465423489055700,6.7810556640625,0,0.00045814894838258624,0
1761465423505877500,6.79787744140625,0,0.0003054326225537807,-0.0009162978967651725
1761465423522704000,6.814703857421875,-0.00045814894838258624,0.00015271631127689034,-0.00015271631127689034
1761465423539533800,6.831533935546875,0.00015271631127689034,0.00015271631127689034,-0.00045814894838258624
1761465423556357000,6.848357177734375,0.0003054326225537807,-0.0007635815418325365,-0.00015271631127689034
1761465423573189000,6.865189208984375,0.00045814894838258624,-0.0003054326225537807,-0.00045814894838258624
1761465423590007600,6.882007568359375,0.00045814894838258624,0.00015271631127689034,-0.0007635815418325365
1761465423606831000,6.8988310546875,0.0003054326225537807,-0.00015271631127689034,0.00015271631127689034
1761465423623656700,6.91565673828125,0,0.00015271631127689034,0.0003054326225537807
1761465423640481300,6.932481201171875,0,0.00015271631127689034,-0.0003054326225537807
1761465423657304000,6.949303955078125,-0.0003054326225537807,0.00015271631127689034,0.0003054326225537807
1761465423674136300,6.96613623046875,0,0.00045814894838258624,-0.00045814894838258624
1761465423690951400,6.982951416015625,0,0.0009162978967651725,0.0007635815418325365
1761465423707783700,6.99978369140625,0,0.0012217304902151227,-0.00045814894838258624
1761465423724597200,7.01659716796875,0,0.00015271631127689034,0.0003054326225537807
1761465423741431800,7.033431884765625,0.0009162978967651725,0.00015271631127689034,0.0003054326225537807
1761465423758251000,7.0502509765625,0.00045814894838258624,0.0007635815418325365,-0.00045814894838258624
1761465423775081200,7.067081298828125,-0.0007635815418325365,0.00015271631127689034,-0.00015271631127689034
1761465423791904800,7.08390478515625,0,-0.0009162978967651725,0.0003054326225537807
1761465423808728000,7.10072802734375,0.00015271631127689034,-0.00045814894838258624,0.0003054326225537807
1761465423825554400,7.117554443359375,0,-0.0009162978967651725,-0.00045814894838258624
1761465423842379300,7.134379150390625,0,0.00045814894838258624,0.00015271631127689034
1761465423859202300,7.151202392578125,0,-0.0007635815418325365,-0.00045814894838258624
1761465423876023300,7.168023193359375,0,0.00015271631127689034,-0.0003054326225537807
1761465423892856000,7.18485595703125,0,-0.0009162978967651725,-0.00045814894838258624
1761465423909676800,7.2016767578125,0.00015271631127689034,0.0003054326225537807,-0.00015271631127689034
1761465423926501000,7.218501220703125,-0.00045814894838258624,-0.0006108652451075613,0.0006108652451075613
1761465423943327000,7.235326904296875,0.0007635815418325365,0.00015271631127689034,0.0003054326225537807
1761465423960151000,7.252151123046875,-0.0003054326225537807,-0.00015271631127689034,0.00045814894838258624
1761465423976975000,7.26897509765625,0,0.00015271631127689034,0.00015271631127689034
1761465423993801700,7.2858017578125,0,0.0007635815418325365,0.00045814894838258624
1761465424010627000,7.302626953125,0,0.0009162978967651725,0.0007635815418325365
1761465424027453700,7.31945361328125,0,-0.0007635815418325365,0.0007635815418325365
1761465424044276200,7.336276123046875,0,0.0013744467869400978,0.0003054326225537807
1761465424061098200,7.35309814453125,0.0007635815418325365,0.0009162978967651725,0.0003054326225537807
1761465424077924600,7.369924560546875,-0.0007635815418325365,0.0012217304902151227,0
1761465424094751000,7.3867509765625,-0.0003054326225537807,0.00015271631127689034,0
1761465424111576600,7.40357666015625,-0.0003054326225537807,-0.0007635815418325365,-0.00045814894838258624
1761465424128398600,7.420398681640625,0.0003054326225537807,-0.0010690141934901476,0
1761465424145223000,7.437222900390625,0,0.00045814894838258624,-0.00045814894838258624
1761465424162048800,7.454048828125,0,-0.0006108652451075613,-0.00015271631127689034
1761465424178856700,7.470856689453125,0,0.00015271631127689034,-0.00045814894838258624
1761465424195696400,7.4876962890625,0,0.0006108652451075613,-0.0007635815418325365
1761465424212522500,7.5045224609375,0.00015271631127689034,-0.0009162978967651725,-0.00015271631127689034
1761465424229347300,7.521347412109375,0,0.00015271631127689034,-0.0006108652451075613
1761465424246173700,7.538173583984375,0.00015271631127689034,-0.0007635815418325365,0.00045814894838258624
1761465424262997000,7.5549970703125,0,0.0006108652451075613,-0.00015271631127689034
1761465424279808000,7.57180810546875,0,-0.0006108652451075613,0.0006108652451075613
1761465424296628000,7.5886279296875,0.0007635815418325365,0.0009162978967651725,-0.00015271631127689034
1761465424313458400,7.60545849609375,0.00015271631127689034,-0.00015271631127689034,0.0003054326225537807
1761465424330296600,7.622296630859375,0,-0.0006108652451075613,-0.00045814894838258624
1761465424347122700,7.639122802734375,0,0,0.0003054326225537807
1761465424363933000,7.655932861328125,0.00015271631127689034,0.0003054326225537807,0.00045814894838258624
1761465424380757800,7.6727578125,0,0,0.0006108652451075613
1761465424397594000,7.689593994140625,0,-0.00045814894838258624,-0.0007635815418325365
1761465424414419000,7.7064189453125,0.00015271631127689034,0,0.0010690141934901476
1761465424431246300,7.723246337890625,0.00015271631127689034,0.00015271631127689034,0.0006108652451075613
1761465424448067600,7.740067626953125,0.0003054326225537807,-0.0009162978967651725,-0.00015271631127689034
1761465424464893000,7.756892822265625,0,0.0003054326225537807,-0.00015271631127689034
1761465424481719300,7.77371923828125,0,-0.0010690141934901476,-0.00015271631127689034
1761465424498543400,7.79054345703125,0.0009162978967651725,-0.0007635815418325365,-0.00015271631127689034
1761465424515368400,7.807368408203125,-0.00015271631127689034,-0.00015271631127689034,0.0007635815418325365
1761465424532192300,7.824192138671875,-0.0007635815418325365,0.0006108652451075613,0.0006108652451075613
1761465424549017000,7.84101708984375,0,-0.0006108652451075613,0.0003054326225537807
1761465424565832000,7.85783203125,0,0.0012217304902151227,-0.0010690141934901476
1761465424582667500,7.87466748046875,0,0.0003054326225537807,-0.00015271631127689034
1761465424599491300,7.8914912109375,-0.0003054326225537807,-0.00015271631127689034,0.0006108652451075613
1761465424616315400,7.9083154296875,0,0.0009162978967651725,-0.0003054326225537807
1761465424633134000,7.925134033203125,-0.0003054326225537807,0.00015271631127689034,-0.00015271631127689034
1761465424649967600,7.941967529296875,-0.00015271631127689034,0.00015271631127689034,0.00045814894838258624
1761465424666789600,7.95878955078125,-0.00015271631127689034,0,0.00015271631127689034
1761465424683615700,7.97561572265625,0,0,0.0007635815418325365
1761465424700450800,7.992450927734375,0,-0.00015271631127689034,-0.00045814894838258624
1761465424717261000,8.009260986328124,0,-0.0003054326225537807,-0.00045814894838258624
1761465424734093300,8.02609326171875,-0.00015271631127689034,-0.0009162978967651725,-0.0006108652451075613
1761465424750915800,8.042915771484376,-0.0003054326225537807,-0.0006108652451075613,0
1761465424767738400,8.05973828125,0.00015271631127689034,0.00015271631127689034,0.00015271631127689034
1761465424784563000,8.07656298828125,0,-0.0010690141934901476,-0.00045814894838258624
1761465424801389600,8.0933896484375,0.0003054326225537807,0.00015271631127689034,-0.00045814894838258624
1761465424818213400,8.11021337890625,-0.0007635815418325365,0.0003054326225537807,0.0003054326225537807
1761465424835037200,8.127037109375,-0.00015271631127689034,-0.0006108652451075613,0.0003054326225537807
1761465424851863800,8.14386376953125,0,0.00015271631127689034,-0.0006108652451075613
1761465424868687400,8.160687255859376,0,-0.0003054326225537807,-0.00045814894838258624
1761465424885513000,8.177512939453125,-0.00015271631127689034,0.0009162978967651725,-0.00015271631127689034
1761465424902336800,8.194336669921874,0,0.00015271631127689034,-0.00015271631127689034
1761465424919164700,8.21116455078125,0,0.00045814894838258624,0.0009162978967651725
1761465424935986200,8.227986083984375,0,0.0007635815418325365,0.00015271631127689034
1761465424952812000,8.24481201171875,0,0,0.0006108652451075613
1761465424969635800,8.2616357421875,0.0009162978967651725,0,0.0010690141934901476
1761465424986459100,8.278459228515626,0,-0.0003054326225537807,-0.0003054326225537807
1761465425003286000,8.2952861328125,0,-0.0009162978967651725,0.00045814894838258624
1761465425020112400,8.3121123046875,0,-0.0003054326225537807,-0.0006108652451075613
1761465425036935200,8.32893505859375,-0.00015271631127689034,0.0010690141934901476,-0.00015271631127689034
1761465425053760300,8.34576025390625,0.0006108652451075613,0.00015271631127689034,0.0013744467869400978
1761465425070589400,8.36258935546875,-0.0007635815418325365,-0.0009162978967651725,0.00045814894838258624
1761465425087412200,8.379412109375,-0.00045814894838258624,0.00015271631127689034,-0.00045814894838258624
1761465425104238600,8.396238525390626,0,-0.00015271631127689034,0.0003054326225537807
1761465425121057500,8.4130576171875,0.0003054326225537807,-0.0006108652451075613,-0.00015271631127689034
1761465425137883400,8.42988330078125,0,-0.0006108652451075613,-0.00045814894838258624
1761465425154716700,8.446716552734374,-0.00015271631127689034,-0.0007635815418325365,0.0006108652451075613
1761465425171532500,8.463532470703125,0,0.00045814894838258624,0.0010690141934901476
1761465425188351000,8.48035107421875,0.00015271631127689034,0.00015271631127689034,0.0010690141934901476
1761465425205185500,8.497185546875,0,-0.0006108652451075613,-0.0006108652451075613
1761465425222008300,8.51400830078125,0.0003054326225537807,0,-0.00015271631127689034
1761465425238831900,8.530831787109374,-0.00015271631127689034,-0.0006108652451075613,-0.00015271631127689034
1761465425255656200,8.54765625,0,0.00015271631127689034,0.00045814894838258624
1761465425272492000,8.564491943359375,-0.00045814894838258624,0.0003054326225537807,0.00045814894838258624
1761465425289305900,8.581305908203126,0,0.00015271631127689034,0.00045814894838258624
1761465425306134300,8.59813427734375,0,0.00015271631127689034,0.0006108652451075613
1761465425322957000,8.61495703125,0,0.0003054326225537807,0.00045814894838258624
1761465425339780600,8.631780517578125,0.0007635815418325365,0,0.0006108652451075613
1761465425356605000,8.64860498046875,0.0006108652451075613,0.00045814894838258624,-0.0003054326225537807
1761465425373435100,8.66543505859375,0,-0.00015271631127689034,-0.00045814894838258624
1761465425390254300,8.68225439453125,0,-0.0010690141934901476,0
1761465425407077400,8.699077392578126,0,0.0006108652451075613,0.0003054326225537807
1761465425423892000,8.71589208984375,0,0,-0.00015271631127689034
1761465425440731000,8.73273095703125,0,0.00015271631127689034,0.00015271631127689034
1761465425457555000,8.749554931640626,-0.0007635815418325365,0.00045814894838258624,-0.00015271631127689034
1761465425474376200,8.766376220703124,0,-0.0006108652451075613,0.00015271631127689034
1761465425491203600,8.78320361328125,0,0.00015271631127689034,0.0006108652451075613
1761465425508028000,8.80002783203125,0.0007635815418325365,-0.00015271631127689034,-0.00045814894838258624
1761465425524852000,8.81685205078125,0,0.0006108652451075613,0
1761465425541678300,8.83367822265625,0,0.00015271631127689034,0.00045814894838258624
1761465425558503400,8.85050341796875,0,0.00045814894838258624,-0.00015271631127689034
1761465425575326200,8.867326171875,0.0009162978967651725,-0.00015271631127689034,-0.00015271631127689034
1761465425592151800,8.88415185546875,0,-0.0009162978967651725,-0.00045814894838258624
1761465425608977400,8.900977294921875,-0.0007635815418325365,0.0009162978967651725,0.0006108652451075613
1761465425625799400,8.91779931640625,0,0.00015271631127689034,0.00045814894838258624
1761465425642626600,8.93462646484375,0,0.0012217304902151227,0.00045814894838258624
1761465425659454500,8.951454345703125,0,-0.0009162978967651725,-0.0007635815418325365
1761465425676277000,8.968277099609375,-0.00015271631127689034,0.00015271631127689034,0.0003054326225537807
1761465425693098200,8.98509814453125,0,0.0003054326225537807,0.0003054326225537807
1761465425709926700,9.0019267578125,-0.0003054326225537807,-0.0006108652451075613,0.0003054326225537807
1761465425726746600,9.01874658203125,0.00015271631127689034,0.00045814894838258624,-0.0006108652451075613
1761465425743579000,9.035578857421875,-0.00015271631127689034,0.00015271631127689034,-0.0006108652451075613
1761465425760400100,9.052400146484375,0,0.0007635815418325365,0.0007635815418325365
1761465425777224700,9.069224609375,0.0007635815418325365,0.0006108652451075613,-0.00015271631127689034
1761465425794048300,9.08604833984375,0,-0.00015271631127689034,0.0006108652451075613
1761465425810874000,9.1028740234375,0.0003054326225537807,-0.0007635815418325365,-0.0003054326225537807
1761465425827698000,9.119697998046876,0,0.00015271631127689034,-0.0006108652451075613
1761465425844522000,9.13652197265625,-0.0007635815418325365,0,-0.0012217304902151227
1761465425861349400,9.153349365234375,0,-0.0006108652451075613,-0.00045814894838258624
1761465425878174000,9.170174072265626,0,0.00015271631127689034,-0.00015271631127689034
1761465425894996200,9.186996337890625,0,-0.00015271631127689034,-0.0003054326225537807
1761465425911822800,9.20382275390625,0.0003054326225537807,-0.00015271631127689034,0.0003054326225537807
1761465425928646400,9.220646484375,0,-0.001832595793530345,0.00015271631127689034
1761465425945460700,9.237460693359376,0,0.00015271631127689034,0.00045814894838258624
1761465425962294800,9.254294677734375,-0.00015271631127689034,-0.0006108652451075613,0.0006108652451075613
1761465425979123200,9.271123291015625,0,0.00015271631127689034,0
1761465425995945000,9.287945068359376,0,0.0006108652451075613,-0.00045814894838258624
1761465426012770800,9.304770751953125,0.0003054326225537807,0,0.0012217304902151227
1761465426029595000,9.321594970703124,0,-0.0007635815418325365,-0.00015271631127689034
1761465426046420000,9.338419921875,0,-0.0010690141934901476,0.0006108652451075613
1761465426063246000,9.35524609375,0,0.00015271631127689034,0.0003054326225537807
1761465426080056000,9.37205615234375,0,0.00045814894838258624,-0.00015271631127689034
1761465426096892400,9.388892333984375,-0.00015271631127689034,-0.00015271631127689034,0
1761465426113720600,9.405720458984375,0,0.00015271631127689034,-0.00015271631127689034
1761465426130544400,9.42254443359375,-0.0007635815418325365,0.00045814894838258624,0.00045814894838258624
1761465426147367700,9.43936767578125,0.0003054326225537807,0,-0.00015271631127689034
1761465426164191700,9.456191650390625,0.00015271631127689034,0.0010690141934901476,0.00015271631127689034
1761465426181018600,9.4730185546875,-0.00015271631127689034,-0.0006108652451075613,0.0003054326225537807
1761465426197827000,9.4898271484375,0.0007635815418325365,-0.0006108652451075613,0.00045814894838258624
1761465426214675700,9.50667578125,0,-0.0007635815418325365,-0.0009162978967651725
1761465426231480000,9.52347998046875,-0.00015271631127689034,0.0003054326225537807,-0.0003054326225537807
1761465426248316200,9.540316162109375,-0.0009162978967651725,0.00015271631127689034,0.0003054326225537807
1761465426265142500,9.557142578125,0.0003054326225537807,0.00015271631127689034,0.0003054326225537807
1761465426281967900,9.5739677734375,0.0007635815418325365,-0.0009162978967651725,0.0003054326225537807
1761465426298790000,9.590789794921875,0,-0.0007635815418325365,-0.0006108652451075613
1761465426315615200,9.607615234375,0,-0.00045814894838258624,0.0007635815418325365
1761465426332450600,9.624450439453126,0,0.0012217304902151227,0.0006108652451075613
1761465426349265400,9.641265380859375,0,0.0009162978967651725,0.0003054326225537807
1761465426366091500,9.658091552734374,0,0.00045814894838258624,0.0003054326225537807
1761465426382916000,9.674916015625,0.0007635815418325365,0.0010690141934901476,-0.0009162978967651725
1761465426399739000,9.69173876953125,0,-0.00045814894838258624,-0.00045814894838258624
1761465426416566800,9.70856689453125,0,0.00015271631127689034,-0.00015271631127689034
1761465426433374000,9.7253740234375,-0.0010690141934901476,0.00015271631127689034,0.0006108652451075613
1761465426450205700,9.742205810546874,0,0.00015271631127689034,0
1761465426467039700,9.759039794921875,0,-0.0007635815418325365,-0.00015271631127689034
1761465426483862000,9.775862060546874,0,0.00015271631127689034,-0.0006108652451075613
1761465426500689000,9.79268896484375,0,-0.00015271631127689034,0.0010690141934901476
1761465426517512400,9.809512451171875,0,0.00015271631127689034,-0.00045814894838258624
1761465426534336500,9.82633642578125,0,0.0003054326225537807,-0.0003054326225537807
1761465426551164700,9.84316455078125,0,0.0003054326225537807,0.00015271631127689034
1761465426567985700,9.859985595703124,0,-0.0006108652451075613,-0.0006108652451075613
1761465426584811800,9.876811767578126,0,-0.00045814894838258624,-0.00045814894838258624
1761465426601637400,9.893637451171875,0,0,0.0003054326225537807
1761465426618459600,9.910459716796876,-0.00015271631127689034,0.0003054326225537807,0.00045814894838258624
1761465426635284700,9.92728466796875,0.00015271631127689034,-0.0003054326225537807,0.0012217304902151227
1761465426652113200,9.944113037109375,0,-0.00045814894838258624,-0.0006108652451075613
1761465426668935200,9.96093505859375,-0.0003054326225537807,0.00015271631127689034,0.0003054326225537807
1761465426685759500,9.977759521484375,-0.0003054326225537807,0.0010690141934901476,-0.0003054326225537807
1761465426702568400,9.994568359375,0.0009162978967651725,0.0003054326225537807,0.0006108652451075613
1761465426719409400,10.011409423828125,0,0.00015271631127689034,0.0006108652451075613
1761465426736235500,10.028235595703125,0,0.0006108652451075613,0.0003054326225537807
1761465426753057800,10.045057861328125,0.0003054326225537807,0.00015271631127689034,0.00045814894838258624
1761465426769893400,10.061893310546875,0,-0.00015271631127689034,-0.00045814894838258624
1761465426786708200,10.078708251953126,0.0003054326225537807,-0.00015271631127689034,0.00015271631127689034
1761465426803532500,10.095532470703125,0.0003054326225537807,0.0010690141934901476,-0.00015271631127689034
1761465426820359000,10.11235888671875,-0.0007635815418325365,-0.0003054326225537807,0.00045814894838258624
1761465426837185300,10.129185302734374,0,0.0003054326225537807,-0.0003054326225537807
1761465426854008000,10.146008056640625,0,0.0006108652451075613,0.0006108652451075613
1761465426870833200,10.162833251953124,0,-0.00015271631127689034,-0.00045814894838258624
1761465426887656700,10.17965673828125,0.0003054326225537807,0.0003054326225537807,-0.0003054326225537807
1761465426904486700,10.196486572265625,0,0.00015271631127689034,-0.00015271631127689034
1761465426921307400,10.213307373046876,0.0006108652451075613,0.00015271631127689034,0.0003054326225537807
1761465426938134300,10.23013427734375,0,-0.00045814894838258624,0.00015271631127689034
1761465426954956000,10.2469560546875,-0.00015271631127689034,0.0009162978967651725,0
1761465426971780600,10.263780517578125,0.0007635815418325365,0.0003054326225537807,0.0006108652451075613
1761465426988598300,10.280598388671875,0,0,-0.0007635815418325365
1761465427005430800,10.2974306640625,0,-0.0009162978967651725,-0.00015271631127689034
1761465427022255400,10.31425537109375,-0.0007635815418325365,0.0010690141934901476,-0.00015271631127689034
1761465427039080000,10.331079833984376,0.00015271631127689034,0.0010690141934901476,0.0006108652451075613
1761465427055904300,10.347904296875,-0.00015271631127689034,0.0006108652451075613,-0.00015271631127689034
1761465427072731100,10.364731201171875,-0.0007635815418325365,0.0003054326225537807,-0.00015271631127689034
1761465427089554200,10.38155419921875,0,-0.0012217304902151227,0.0006108652451075613
1761465427106379800,10.3983798828125,0,-0.00045814894838258624,0.001527163083665073
1761465427123202300,10.415202392578125,0,0.0003054326225537807,-0.00045814894838258624
1761465427140030000,10.432030029296875,0.0007635815418325365,-0.00015271631127689034,0
1761465427156852000,10.44885205078125,0.0003054326225537807,-0.0003054326225537807,0.0006108652451075613
1761465427173677800,10.465677734375,0.0003054326225537807,-0.00015271631127689034,-0.0003054326225537807
1761465427190502100,10.482502197265624,0.0006108652451075613,0.0007635815418325365,0
1761465427207326200,10.499326171875,0,-0.0003054326225537807,-0.00015271631127689034
1761465427224153300,10.5161533203125,0,0.0010690141934901476,0.0006108652451075613
1761465427240978700,10.532978759765625,0.00015271631127689034,0.023518312722444534,0.02275473065674305
1761465427257800000,10.549800048828125,-0.0007635815418325365,0.01725694350898266,0.02733621932566166
1761465427274625500,10.56662548828125,-0.0010690141934901476,0.010842857882380486,0.021838432177901268
1761465427291451000,10.583450927734376,0,-0.0019853119738399982,0.006719517521560192
1761465427308266000,10.600265869140625,0.0003054326225537807,-0.0010690141934901476,-0.0065668015740811825
1761465427325097200,10.61709716796875,0.0007635815418325365,-0.017562376335263252,-0.01664607785642147
1761465427341926700,10.6339267578125,-0.00015271631127689034,-0.018325956538319588,-0.023976460099220276
1761465427358743000,10.650742919921875,0.001679879380390048,-0.003054326167330146,-0.013439035043120384
1761465427375583500,10.66758349609375,-0.0003054326225537807,0.0032070425804704428,-0.0009162978967651725
