time,seconds_elapsed,z,y,x
1761417565118233900,0.14823388671875,-0.0003054326225537807,-0.0012217304902151227,0.0003054326225537807
1761417565135044600,0.165044677734375,0,-0.0003054326225537807,-0.0006108652451075613
1761417565151870500,0.181870361328125,-0.0003054326225537807,0,0.00045814894838258624
1761417565168685300,0.198685302734375,-0.00045814894838258624,-0.0009162978967651725,0.0010690141934901476
1761417565185521700,0.215521728515625,-0.0003054326225537807,-0.0009162978967651725,-0.00045814894838258624
1761417565202346200,0.23234619140625,0.00015271631127689034,-0.0009162978967651725,0.0003054326225537807
1761417565219166700,0.249166748046875,-0.00015271631127689034,-0.0009162978967651725,-0.0006108652451075613
1761417565235995000,0.265994873046875,0.00045814894838258624,0.00045814894838258624,0.0003054326225537807
1761417565252816100,0.282816162109375,-0.00015271631127689034,0,0.0013744467869400978
1761417565269646600,0.299646484375,-0.0003054326225537807,0,-0.0006108652451075613
1761417565286468400,0.31646826171875,0,-0.00015271631127689034,-0.00045814894838258624
1761417565303292200,0.333292236328125,-0.0010690141934901476,-0.0009162978967651725,0.0012217304902151227
1761417565320117000,0.350116943359375,-0.0006108652451075613,-0.0003054326225537807,-0.0007635815418325365
1761417565336941000,0.366941162109375,-0.0003054326225537807,0,0.0003054326225537807
1761417565353752300,0.38375244140625,-0.0003054326225537807,-0.0003054326225537807,-0.00045814894838258624
1761417565370603300,0.400603271484375,0.00015271631127689034,0.0009162978967651725,-0.0003054326225537807
1761417565387415300,0.417415283203125,-0.0003054326225537807,-0.0003054326225537807,0.0012217304902151227
1761417565404252200,0.434252197265625,-0.0003054326225537807,-0.0010690141934901476,-0.0006108652451075613
1761417565421076000,0.451075927734375,-0.0003054326225537807,-0.0012217304902151227,-0.00045814894838258624
1761417565437902000,0.467902099609375,-0.0003054326225537807,0,0.0009162978967651725
1761417565454728400,0.484728515625,-0.0003054326225537807,-0.0003054326225537807,-0.0003054326225537807
1761417565471546600,0.501546630859375,-0.00045814894838258624,0.0003054326225537807,0.0010690141934901476
1761417565488373800,0.518373779296875,-0.00015271631127689034,-0.00015271631127689034,0.0003054326225537807
1761417565505198600,0.535198486328125,-0.00015271631127689034,0.00015271631127689034,0.0003054326225537807
1761417565522023000,0.55202294921875,-0.0003054326225537807,0.0003054326225537807,0.0003054326225537807
1761417565538874600,0.56887451171875,-0.0009162978967651725,0,-0.00015271631127689034
1761417565555671800,0.585671875,-0.0003054326225537807,0.0006108652451075613,-0.0006108652451075613
1761417565572496000,0.602495849609375,-0.0003054326225537807,0,-0.0006108652451075613
1761417565589320200,0.6193203125,-0.0003054326225537807,0,0.0003054326225537807
1761417565606141200,0.63614111328125,-0.0003054326225537807,-0.0007635815418325365,0.0010690141934901476
1761417565622955300,0.652955322265625,-0.00015271631127689034,0,0.00045814894838258624
1761417565639779600,0.669779541015625,-0.00015271631127689034,0.0003054326225537807,0.0006108652451075613
1761417565656591600,0.686591552734375,-0.0009162978967651725,0,0.0007635815418325365
1761417565673428200,0.70342822265625,0.00045814894838258624,-0.0009162978967651725,0
1761417565690252500,0.72025244140625,-0.00015271631127689034,-0.00015271631127689034,0.0003054326225537807
1761417565707067400,0.7370673828125,-0.0003054326225537807,-0.00015271631127689034,0.0003054326225537807
1761417565723911200,0.7539111328125,-0.0003054326225537807,0.0006108652451075613,0.0003054326225537807
1761417565740727300,0.770727294921875,0,0,0.0003054326225537807
1761417565757546800,0.787546630859375,0.0006108652451075613,0.00015271631127689034,0.0003054326225537807
1761417565774370300,0.804370361328125,-0.00015271631127689034,-0.00015271631127689034,0.0003054326225537807
1761417565791202800,0.821202880859375,-0.0003054326225537807,-0.0007635815418325365,0.00015271631127689034
1761417565808023000,0.83802294921875,-0.0003054326225537807,0.00015271631127689034,0.0012217304902151227
1761417565824847600,0.85484765625,-0.00015271631127689034,-0.0007635815418325365,-0.00045814894838258624
1761417565841656300,0.87165625,-0.0003054326225537807,-0.00015271631127689034,-0.0009162978967651725
1761417565858495500,0.88849560546875,-0.0003054326225537807,-0.00015271631127689034,-0.0009162978967651725
1761417565875319800,0.90531982421875,-0.0003054326225537807,0.0003054326225537807,0
1761417565892162800,0.922162841796875,0,0.00045814894838258624,0
1761417565908983000,0.938983154296875,-0.0003054326225537807,0.0007635815418325365,0.0003054326225537807
1761417565925831400,0.95583154296875,-0.0003054326225537807,-0.00015271631127689034,0
1761417565942626800,0.972626708984375,-0.0003054326225537807,0,-0.00045814894838258624
1761417565959461000,0.989461181640625,-0.0003054326225537807,-0.00045814894838258624,0.0010690141934901476
1761417565976280300,1.0062802734375,-0.0003054326225537807,-0.0003054326225537807,0.0009162978967651725
1761417565993066000,1.02306591796875,-0.0003054326225537807,0.00015271631127689034,0.00015271631127689034
1761417566009913600,1.03991357421875,-0.0003054326225537807,0,-0.0007635815418325365
1761417566026739000,1.056739013671875,-0.0003054326225537807,0.0003054326225537807,0.0003054326225537807
1761417566043564500,1.073564453125,0.00045814894838258624,-0.00015271631127689034,0
1761417566060382700,1.0903828125,-0.00015271631127689034,0,0.0007635815418325365
1761417566077200100,1.1072001953125,-0.0003054326225537807,-0.0007635815418325365,0.0003054326225537807
1761417566094024400,1.1240244140625,-0.0003054326225537807,-0.00015271631127689034,0.0003054326225537807
1761417566110849500,1.140849609375,-0.0003054326225537807,0,0.0007635815418325365
1761417566127669000,1.1576689453125,-0.0009162978967651725,-0.0003054326225537807,-0.00015271631127689034
1761417566144497700,1.17449755859375,-0.0003054326225537807,-0.0006108652451075613,0.00015271631127689034
1761417566161321700,1.19132177734375,-0.0003054326225537807,0,-0.00045814894838258624
1761417566178140400,1.208140380859375,-0.0003054326225537807,-0.0007635815418325365,0.00045814894838258624
1761417566194972000,1.224971923828125,-0.0003054326225537807,0.00015271631127689034,0.0007635815418325365
1761417566211794700,1.241794677734375,-0.0009162978967651725,0,0.00015271631127689034
1761417566228619500,1.25861962890625,-0.0010690141934901476,-0.00015271631127689034,0.0003054326225537807
1761417566245443800,1.27544384765625,-0.0006108652451075613,-0.00015271631127689034,0.0003054326225537807
1761417566262270000,1.29227001953125,-0.0009162978967651725,-0.0003054326225537807,-0.00015271631127689034
1761417566279105800,1.309105712890625,-0.0003054326225537807,0.0009162978967651725,0.00045814894838258624
1761417566295931600,1.325931640625,-0.0003054326225537807,-0.0009162978967651725,0.0006108652451075613
1761417566312753700,1.342753662109375,0.00015271631127689034,-0.00015271631127689034,-0.00045814894838258624
1761417566329578200,1.359578125,-0.00015271631127689034,0,0.0012217304902151227
1761417566346402300,1.37640234375,0,0.0007635815418325365,0.0009162978967651725
1761417566363227000,1.393226806640625,-0.00015271631127689034,0,0.0003054326225537807
1761417566380068400,1.410068359375,-0.00015271631127689034,0,0
1761417566396888000,1.42688818359375,-0.00015271631127689034,-0.0003054326225537807,-0.00015271631127689034
1761417566413717800,1.4437177734375,0.0003054326225537807,0,0.0010690141934901476
1761417566430526200,1.460526123046875,0.00015271631127689034,0.0007635815418325365,0
1761417566447362600,1.477362548828125,-0.0003054326225537807,-0.00015271631127689034,0.00015271631127689034
1761417566464184600,1.4941845703125,0,0,0.00045814894838258624
1761417566481013200,1.51101318359375,0.0007635815418325365,0,0.0003054326225537807
1761417566497805300,1.527805419921875,0,0.00015271631127689034,0
1761417566514665700,1.544665771484375,0.0007635815418325365,-0.0003054326225537807,0.00015271631127689034
1761417566531481300,1.5614814453125,-0.0007635815418325365,-0.0006108652451075613,-0.00045814894838258624
1761417566548313600,1.578313720703125,0,-0.0003054326225537807,0.0003054326225537807
1761417566565115100,1.595115234375,0.0003054326225537807,0.00015271631127689034,0.0003054326225537807
1761417566581953500,1.61195361328125,0,0.00015271631127689034,0
1761417566598757400,1.62875732421875,-0.00015271631127689034,0.00015271631127689034,0
1761417566615589000,1.645589111328125,0,0,0
1761417566632416800,1.662416748046875,0,0.0010690141934901476,0.0006108652451075613
1761417566649238300,1.67923828125,0,0.0006108652451075613,-0.0007635815418325365
1761417566666067700,1.696067626953125,-0.00015271631127689034,0,0.00015271631127689034
1761417566682893000,1.71289306640625,0.0010690141934901476,0,0.00015271631127689034
1761417566699727600,1.7297275390625,0,0,-0.0009162978967651725
1761417566716535300,1.746535400390625,-0.00015271631127689034,0.0003054326225537807,-0.0007635815418325365
1761417566733376300,1.763376220703125,0,0.00015271631127689034,0.0006108652451075613
1761417566750196200,1.7801962890625,0.0007635815418325365,0,0.0010690141934901476
1761417566767011300,1.79701123046875,0.0007635815418325365,0,0.0003054326225537807
1761417566783835600,1.813835693359375,0.00015271631127689034,-0.0003054326225537807,-0.00015271631127689034
1761417566800660200,1.83066015625,-0.0007635815418325365,0.00015271631127689034,-0.0013744467869400978
1761417566817481500,1.8474814453125,0.0007635815418325365,-0.0006108652451075613,0.00045814894838258624
1761417566834312200,1.864312255859375,0.00015271631127689034,-0.0009162978967651725,-0.0007635815418325365
1761417566851133700,1.8811337890625,0.00015271631127689034,0,-0.00015271631127689034
1761417566867967000,1.897967041015625,0.00015271631127689034,-0.0006108652451075613,0
1761417566884799500,1.914799560546875,0,0,0.0009162978967651725
1761417566901620200,1.9316201171875,0.00015271631127689034,0.0003054326225537807,-0.0006108652451075613
1761417566918438000,1.94843798828125,-0.0010690141934901476,0.0003054326225537807,-0.0006108652451075613
1761417566935268000,1.96526806640625,0.0006108652451075613,0.00015271631127689034,0.00015271631127689034
1761417566952093400,1.982093505859375,0.00015271631127689034,-0.00015271631127689034,0.0007635815418325365
1761417566968899600,1.998899658203125,0.0003054326225537807,-0.0006108652451075613,-0.0009162978967651725
1761417566985738800,2.01573876953125,0.0003054326225537807,-0.0007635815418325365,-0.00015271631127689034
1761417567002597000,2.03259716796875,-0.00015271631127689034,0.00015271631127689034,-0.0009162978967651725
1761417567019390500,2.049390380859375,0,0,0.00015271631127689034
1761417567036220400,2.066220458984375,0,0.00015271631127689034,-0.0006108652451075613
1761417567053028400,2.0830283203125,0,0,-0.00045814894838258624
1761417567069844700,2.0998447265625,0,-0.00045814894838258624,0
1761417567086670800,2.1166708984375,-0.00015271631127689034,0,-0.0003054326225537807
1761417567103501600,2.13350146484375,0.00015271631127689034,0.0007635815418325365,0.00045814894838258624
1761417567120322800,2.15032275390625,0,0.0007635815418325365,0.0009162978967651725
1761417567137134000,2.167134033203125,0.0003054326225537807,-0.0009162978967651725,0.00015271631127689034
1761417567153971700,2.1839716796875,0,-0.0003054326225537807,0.00015271631127689034
1761417567170795300,2.200795166015625,0,0.0009162978967651725,0.0003054326225537807
1761417567187639800,2.217639892578125,-0.00015271631127689034,0,-0.0006108652451075613
1761417567204456200,2.234456298828125,0,0.00015271631127689034,0
1761417567221278700,2.25127880859375,0,-0.0006108652451075613,0.0009162978967651725
1761417567238094000,2.268093994140625,-0.00015271631127689034,0,0.00015271631127689034
1761417567254907000,2.284906982421875,0,-0.00015271631127689034,0.00015271631127689034
1761417567271741700,2.30174169921875,0.0007635815418325365,-0.0007635815418325365,-0.0009162978967651725
1761417567288566300,2.318566162109375,0,0.0003054326225537807,-0.00015271631127689034
1761417567305377800,2.335377685546875,0.0007635815418325365,0.00045814894838258624,0.0009162978967651725
1761417567322215000,2.35221484375,-0.0007635815418325365,0.0007635815418325365,0.00015271631127689034
1761417567339056600,2.369056640625,0,0.00015271631127689034,0.00015271631127689034
1761417567355877600,2.385877685546875,-0.0003054326225537807,-0.0006108652451075613,0.0006108652451075613
1761417567372698000,2.402697998046875,0,-0.0009162978967651725,0.0003054326225537807
1761417567389525500,2.419525390625,0,-0.0007635815418325365,0.0007635815418325365
1761417567406346200,2.43634619140625,0,0,-0.00015271631127689034
1761417567423145500,2.4531455078125,0.00015271631127689034,0,0
1761417567440000500,2.47000048828125,-0.0003054326225537807,0,-0.0006108652451075613
1761417567456822500,2.486822509765625,0,0,-0.00015271631127689034
1761417567473647600,2.503647705078125,0.00015271631127689034,0.00015271631127689034,-0.00015271631127689034
1761417567490468000,2.520468017578125,0.0003054326225537807,0.00015271631127689034,0
1761417567507300000,2.537300048828125,-0.0009162978967651725,0,-0.0010690141934901476
1761417567524121000,2.55412109375,0,0.0003054326225537807,0.0003054326225537807
1761417567540940800,2.57094091796875,0,-0.00015271631127689034,0.00015271631127689034
1761417567557770500,2.5877705078125,-0.0003054326225537807,-0.00015271631127689034,0.0003054326225537807
1761417567574580500,2.60458056640625,-0.0003054326225537807,0.0003054326225537807,-0.0007635815418325365
1761417567591404500,2.621404541015625,0.00015271631127689034,0.00045814894838258624,-0.0003054326225537807
1761417567608227600,2.6382275390625,0.00045814894838258624,0.0003054326225537807,0
1761417567625049600,2.655049560546875,0,0.00015271631127689034,0
1761417567641880800,2.671880859375,0,0,0.00015271631127689034
1761417567658693400,2.688693359375,-0.0007635815418325365,-0.0010690141934901476,0
1761417567675540000,2.7055400390625,0,0,0.00015271631127689034
1761417567692364000,2.722364013671875,0.00015271631127689034,-0.0007635815418325365,-0.0003054326225537807
1761417567709188400,2.739188232421875,-0.0003054326225537807,0.00015271631127689034,-0.0006108652451075613
1761417567726010400,2.75601025390625,0,-0.0003054326225537807,-0.0003054326225537807
1761417567742823700,2.77282373046875,0.0009162978967651725,0,-0.0010690141934901476
1761417567759648300,2.789648193359375,0.0007635815418325365,0.0010690141934901476,0.00015271631127689034
1761417567776472300,2.806472412109375,0.0003054326225537807,0,0.00015271631127689034
1761417567793296600,2.823296630859375,0.00015271631127689034,0,-0.0010690141934901476
1761417567810122500,2.84012255859375,0,-0.0006108652451075613,-0.0003054326225537807
1761417567826947300,2.856947265625,-0.0007635815418325365,-0.0009162978967651725,-0.0006108652451075613
1761417567843783400,2.873783447265625,0,0,-0.0003054326225537807
1761417567860603600,2.890603759765625,0.0003054326225537807,0,-0.0007635815418325365
1761417567877453600,2.90745361328125,0.00015271631127689034,0.0007635815418325365,0.00015271631127689034
1761417567894250200,2.924250244140625,0.00015271631127689034,0.00015271631127689034,0.0003054326225537807
1761417567911086800,2.9410869140625,0.00015271631127689034,0,-0.0003054326225537807
1761417567927904800,2.95790478515625,0,-0.0007635815418325365,0.0007635815418325365
1761417567944729900,2.974729736328125,0,-0.00015271631127689034,0.00015271631127689034
1761417567961553400,2.991553466796875,0.0007635815418325365,0.00045814894838258624,0.0003054326225537807
1761417567978378200,3.008378173828125,-0.0003054326225537807,-0.00015271631127689034,0.00015271631127689034
1761417567995203000,3.025203125,0.0003054326225537807,-0.0006108652451075613,0.0006108652451075613
1761417568012024000,3.042024169921875,0,-0.00015271631127689034,-0.0006108652451075613
1761417568028824000,3.058823974609375,-0.0003054326225537807,-0.00015271631127689034,0.0007635815418325365
1761417568045672400,3.07567236328125,0,0,0.0007635815418325365
1761417568062483200,3.092483154296875,0,0.00015271631127689034,0.0010690141934901476
1761417568079314000,3.10931396484375,0,0.0003054326225537807,0.00015271631127689034
1761417568096135000,3.126135009765625,0.0003054326225537807,0.00015271631127689034,0
1761417568112956200,3.1429560546875,0,0.00015271631127689034,0.0003054326225537807
1761417568129787000,3.159786865234375,0,-0.0007635815418325365,-0.0007635815418325365
1761417568146611500,3.176611572265625,0.00015271631127689034,0.0006108652451075613,-0.0006108652451075613
1761417568163445200,3.1934453125,0,0,0.00015271631127689034
1761417568180271400,3.210271240234375,0.0003054326225537807,0.0007635815418325365,0.00015271631127689034
1761417568197087000,3.2270869140625,0,0.0003054326225537807,0.00015271631127689034
1761417568213919200,3.243919189453125,0,-0.0006108652451075613,0.00015271631127689034
1761417568230723300,3.260723388671875,0,0.0009162978967651725,0.00045814894838258624
1761417568247554300,3.27755419921875,0,0,-0.0012217304902151227
1761417568264375800,3.294375732421875,0,0.0007635815418325365,-0.00045814894838258624
1761417568281205000,3.311205078125,0.0010690141934901476,0.00045814894838258624,0
1761417568298027000,3.328027099609375,0.0003054326225537807,0.0006108652451075613,0.00015271631127689034
1761417568314851600,3.3448515625,0.0007635815418325365,0.0003054326225537807,0
1761417568340076000,3.370075927734375,0,0.0003054326225537807,0.0007635815418325365
1761417568356918000,3.38691796875,0.0003054326225537807,-0.00015271631127689034,-0.0009162978967651725
1761417568373733600,3.403733642578125,0,0,0.00015271631127689034
1761417568390557000,3.420556884765625,-0.0007635815418325365,0.0009162978967651725,0.00015271631127689034
1761417568407389000,3.437388916015625,0,0.00015271631127689034,-0.0006108652451075613
1761417568424211500,3.45421142578125,0.0009162978967651725,0,-0.0009162978967651725
1761417568441034000,3.471033935546875,0,0.00015271631127689034,0.00015271631127689034
1761417568457859600,3.487859619140625,0.0003054326225537807,0.00015271631127689034,0.00015271631127689034
1761417568474679300,3.50467919921875,-0.0003054326225537807,-0.0009162978967651725,0.00015271631127689034
1761417568491509000,3.521509033203125,-0.0003054326225537807,-0.00015271631127689034,0.00015271631127689034
1761417568508351500,3.5383515625,0.0003054326225537807,0,0
1761417568525157400,3.555157470703125,0,0.00015271631127689034,-0.00015271631127689034
1761417568541976600,3.5719765625,0,-0.0006108652451075613,0
1761417568558806500,3.588806640625,0,0,0.00015271631127689034
1761417568575628500,3.605628662109375,-0.0007635815418325365,0.00015271631127689034,-0.00015271631127689034
1761417568592441000,3.622441162109375,-0.0007635815418325365,0.0006108652451075613,0.0003054326225537807
1761417568609277400,3.63927734375,0,0,-0.0009162978967651725
1761417568626088400,3.65608837890625,0,0.00015271631127689034,0.00045814894838258624
1761417568642926600,3.672926513671875,-0.0003054326225537807,0.00045814894838258624,0.00015271631127689034
1761417568659749400,3.689749267578125,0.0007635815418325365,0,0
1761417568676574200,3.70657421875,-0.00045814894838258624,-0.00015271631127689034,0.0003054326225537807
1761417568693387300,3.72338720703125,0,0.0007635815418325365,0.00015271631127689034
1761417568710211600,3.740211669921875,0,-0.0007635815418325365,-0.00015271631127689034
1761417568727036700,3.75703662109375,0,0,0
1761417568743862000,3.773862060546875,0,0.00015271631127689034,0.00045814894838258624
1761417568760701400,3.790701416015625,0.0007635815418325365,-0.00015271631127689034,-0.0010690141934901476
1761417568777521000,3.80752099609375,0.00015271631127689034,0,0
1761417568794343000,3.824343017578125,0.0007635815418325365,0.0003054326225537807,-0.0007635815418325365
1761417568811151600,3.841151611328125,0,0,-0.0007635815418325365
1761417568827996000,3.857995849609375,0,-0.0006108652451075613,-0.0006108652451075613
1761417568844818200,3.874818115234375,0,0.0007635815418325365,0
1761417568861660200,3.89166015625,0,0.0003054326225537807,0.0012217304902151227
1761417568878463200,3.908463134765625,0.0007635815418325365,0.0007635815418325365,-0.0009162978967651725
1761417568895297800,3.9252978515625,0.0003054326225537807,0.0006108652451075613,0.0010690141934901476
1761417568912138500,3.942138427734375,0,0,0.0007635815418325365
1761417568928954600,3.95895458984375,0.00015271631127689034,0,-0.0009162978967651725
1761417568945777700,3.975777587890625,-0.0007635815418325365,0.00045814894838258624,-0.00045814894838258624
1761417568962604800,3.992604736328125,0,0.00015271631127689034,-0.00015271631127689034
1761417568979426600,4.009426513671875,0.0006108652451075613,0,0
1761417568996252200,4.026252197265625,0,0.0003054326225537807,-0.0006108652451075613
1761417569013071000,4.043071044921875,0,0.0003054326225537807,-0.00015271631127689034
1761417569029876500,4.05987646484375,0.0007635815418325365,0.0003054326225537807,-0.00045814894838258624
1761417569046710300,4.076710205078125,0.00015271631127689034,0.00015271631127689034,0.0009162978967651725
1761417569063535600,4.09353564453125,0.0007635815418325365,0,0.0006108652451075613
1761417569080359000,4.11035888671875,-0.0007635815418325365,0.0009162978967651725,0.0003054326225537807
1761417569097173000,4.127173095703125,0,-0.0006108652451075613,-0.001527163083665073
1761417569114007600,4.144007568359375,0,0,0.0009162978967651725
1761417569130850300,4.160850341796875,0,0.00015271631127689034,0.00015271631127689034
1761417569147667500,4.17766748046875,0,-0.00015271631127689034,0.0003054326225537807
1761417569164499200,4.194499267578125,0,0.0009162978967651725,0.00045814894838258624
1761417569181318700,4.211318603515625,0.0006108652451075613,-0.00015271631127689034,0.00045814894838258624
1761417569198127400,4.22812744140625,-0.0007635815418325365,-0.0006108652451075613,0.0009162978967651725
1761417569214947000,4.244947021484375,-0.0009162978967651725,0.00015271631127689034,0.0003054326225537807
1761417569231783200,4.261783203125,0,-0.00015271631127689034,0.0003054326225537807
1761417569248602000,4.27860205078125,0,-0.00015271631127689034,0.0007635815418325365
1761417569265427500,4.295427490234375,0,0.0012217304902151227,-0.0006108652451075613
1761417569282251000,4.3122509765625,0.00015271631127689034,-0.0003054326225537807,0
1761417569299077600,4.32907763671875,0,-0.0006108652451075613,0.00015271631127689034
1761417569315916500,4.34591650390625,0,0.0003054326225537807,0
1761417569332734500,4.362734375,0,0.001832595793530345,-0.00015271631127689034
1761417569349553400,4.379553466796875,0.0007635815418325365,0.00015271631127689034,-0.0009162978967651725
1761417569366366500,4.396366455078125,0,0.00045814894838258624,0.00015271631127689034
1761417569383194600,4.413194580078125,0,0.0007635815418325365,0.0003054326225537807
1761417569400022300,4.430022216796875,0,0.0010690141934901476,0.0009162978967651725
1761417569416848600,4.4468486328125,0,-0.0009162978967651725,-0.0006108652451075613
1761417569433672000,4.463671875,0,0,0.00015271631127689034
1761417569450494200,4.480494140625,0,-0.0003054326225537807,0.00015271631127689034
1761417569467319800,4.49731982421875,-0.00015271631127689034,0.00015271631127689034,0.00015271631127689034
1761417569484143400,4.514143310546875,-0.00015271631127689034,0,-0.0009162978967651725
1761417569500986600,4.530986572265625,-0.0009162978967651725,-0.00015271631127689034,-0.0003054326225537807
1761417569517788400,4.547788330078125,0.0006108652451075613,-0.00015271631127689034,0.00015271631127689034
1761417569534603000,4.56460302734375,-0.00015271631127689034,-0.00015271631127689034,0.0007635815418325365
1761417569551428000,4.581427978515625,-0.00015271631127689034,0,-0.00015271631127689034
1761417569568254700,4.598254638671875,-0.00015271631127689034,-0.0010690141934901476,0.00015271631127689034
1761417569585078300,4.615078369140625,-0.00045814894838258624,0.0003054326225537807,-0.0003054326225537807
1761417569601902600,4.631902587890625,-0.00015271631127689034,0.0003054326225537807,0.0010690141934901476
1761417569618724400,4.648724365234375,-0.0009162978967651725,0,0.0003054326225537807
1761417569635552000,4.665552001953125,-0.00015271631127689034,0.0003054326225537807,-0.0009162978967651725
1761417569652374500,4.68237451171875,-0.0003054326225537807,0.0009162978967651725,0
1761417569669200400,4.699200439453125,0.0003054326225537807,0.00015271631127689034,-0.0010690141934901476
1761417569686022700,4.716022705078125,0.0006108652451075613,-0.0007635815418325365,0.0003054326225537807
1761417569702848300,4.73284814453125,-0.00015271631127689034,0.0006108652451075613,0.0006108652451075613
1761417569719671000,4.749671142578125,-0.00015271631127689034,0,0.00045814894838258624
1761417569736495900,4.766495849609375,0.0006108652451075613,0,-0.0010690141934901476
1761417569753321700,4.78332177734375,0.0003054326225537807,-0.00015271631127689034,0
1761417569770148400,4.8001484375,-0.0003054326225537807,0.00015271631127689034,0
1761417569786969000,4.816968994140625,0,0.0003054326225537807,-0.0007635815418325365
1761417569803795500,4.83379541015625,-0.00015271631127689034,0,-0.0006108652451075613
1761417569820618200,4.8506181640625,0.0006108652451075613,0.00045814894838258624,-0.0007635815418325365
1761417569837443800,4.86744384765625,0.00015271631127689034,0.0009162978967651725,-0.0006108652451075613
1761417569854268700,4.8842685546875,-0.0009162978967651725,0,-0.00015271631127689034
1761417569871091000,4.901091064453125,-0.0009162978967651725,0.0009162978967651725,0.0006108652451075613
1761417569887930000,4.91793017578125,-0.00015271631127689034,-0.00045814894838258624,0.00015271631127689034
1761417569904753400,4.93475341796875,-0.00015271631127689034,0,0.00015271631127689034
1761417569921575700,4.95157568359375,0.0006108652451075613,0.0003054326225537807,-0.00015271631127689034
1761417569938401300,4.9684013671875,0.0006108652451075613,0,0
1761417569955224300,4.985224365234375,-0.00015271631127689034,0,0.0003054326225537807
1761417569972037600,5.00203759765625,-0.00015271631127689034,0.0003054326225537807,0.0003054326225537807
1761417569988886300,5.01888623046875,-0.00015271631127689034,0,0
1761417570005699300,5.03569921875,-0.00015271631127689034,0.0003054326225537807,-0.0009162978967651725
1761417570022521900,5.05252197265625,-0.00015271631127689034,-0.0010690141934901476,0.0009162978967651725
1761417570039348200,5.06934814453125,0.0006108652451075613,0,0.00015271631127689034
1761417570056176600,5.0861767578125,-0.00015271631127689034,0.0003054326225537807,0.00015271631127689034
1761417570072992500,5.102992431640625,-0.0009162978967651725,0.00045814894838258624,0.00045814894838258624
1761417570089819400,5.1198193359375,-0.00015271631127689034,0.00015271631127689034,0.00015271631127689034
1761417570106649900,5.13664990234375,0.00015271631127689034,-0.0003054326225537807,-0.00045814894838258624
1761417570123449600,5.15344970703125,-0.00015271631127689034,0,-0.0006108652451075613
1761417570140306700,5.170306640625,-0.00015271631127689034,-0.0003054326225537807,-0.0009162978967651725
1761417570157121300,5.187121337890625,0.0006108652451075613,0,-0.0006108652451075613
1761417570173952300,5.2039521484375,0,-0.00045814894838258624,0.0010690141934901476
1761417570190766000,5.22076611328125,-0.00015271631127689034,-0.0007635815418325365,0.0003054326225537807
1761417570207590400,5.23759033203125,-0.00015271631127689034,-0.0007635815418325365,0.0003054326225537807
1761417570224413700,5.25441357421875,0.00045814894838258624,0,0
1761417570241233000,5.27123291015625,-0.00015271631127689034,0.0007635815418325365,0.0003054326225537807
1761417570258059300,5.288059326171875,-0.00015271631127689034,-0.00015271631127689034,-0.0006108652451075613
1761417570274891300,5.304891357421875,-0.00015271631127689034,0,0
1761417570291711000,5.3217109375,0,-0.0006108652451075613,0.0006108652451075613
1761417570308537300,5.338537353515625,0,0.00045814894838258624,0.00015271631127689034
1761417570325359600,5.355359619140625,0.0006108652451075613,-0.0007635815418325365,0.00015271631127689034
1761417570342188800,5.372188720703125,0.00015271631127689034,0,0.0003054326225537807
1761417570359022300,5.389022216796875,0,-0.00015271631127689034,-0.0003054326225537807
1761417570375849500,5.405849365234375,-0.00015271631127689034,-0.00015271631127689034,-0.0006108652451075613
1761417570392673800,5.422673828125,-0.00015271631127689034,0.0007635815418325365,-0.0003054326225537807
1761417570409492500,5.439492431640625,0,-0.0007635815418325365,0.00015271631127689034
1761417570426294500,5.45629443359375,-0.00015271631127689034,0,0
1761417570443146200,5.473146240234375,-0.00015271631127689034,0.0007635815418325365,-0.00015271631127689034
1761417570459968300,5.48996826171875,0,0.0007635815418325365,0.0007635815418325365
1761417570476793900,5.5067939453125,-0.00015271631127689034,-0.0003054326225537807,0
1761417570493599500,5.523599609375,-0.00015271631127689034,0,0.0003054326225537807
1761417570510429400,5.540429443359375,-0.00015271631127689034,0.00045814894838258624,-0.0006108652451075613
1761417570527238700,5.55723876953125,0.00015271631127689034,-0.0003054326225537807,-0.0006108652451075613
1761417570544063700,5.574063720703125,-0.00015271631127689034,0,0.0010690141934901476
1761417570560900600,5.590900634765625,-0.00015271631127689034,-0.00045814894838258624,0.0003054326225537807
1761417570577723600,5.6077236328125,-0.00015271631127689034,0,-0.00015271631127689034
1761417570594565400,5.6245654296875,0.0006108652451075613,-0.00015271631127689034,0
1761417570611392500,5.641392578125,0.0006108652451075613,0,-0.0006108652451075613
1761417570628211500,5.65821142578125,-0.0003054326225537807,-0.00045814894838258624,-0.0006108652451075613
1761417570645040400,5.675040283203125,-0.0003054326225537807,-0.0006108652451075613,0.00015271631127689034
1761417570661858000,5.691858154296875,-0.00045814894838258624,0.0009162978967651725,0.0003054326225537807
1761417570678665500,5.70866552734375,0,0.00015271631127689034,0
1761417570695495000,5.725494873046875,-0.00015271631127689034,0,0.00045814894838258624
1761417570712321000,5.742321044921875,-0.00045814894838258624,-0.00015271631127689034,-0.00015271631127689034
1761417570729144000,5.75914404296875,-0.0010690141934901476,0,0.00045814894838258624
1761417570745969000,5.775968994140625,-0.00015271631127689034,0,0.0003054326225537807
1761417570762778400,5.7927783203125,-0.0007635815418325365,-0.0003054326225537807,-0.0003054326225537807
1761417570779623200,5.809623046875,-0.00045814894838258624,-0.00015271631127689034,0.0003054326225537807
1761417570796444700,5.826444580078125,0.00015271631127689034,-0.00045814894838258624,0.00045814894838258624
1761417570813280000,5.843280029296875,-0.0009162978967651725,0.0009162978967651725,-0.00015271631127689034
1761417570830090200,5.86009033203125,0,0,-0.00045814894838258624
1761417570846910700,5.87691064453125,0.0006108652451075613,0,0.0009162978967651725
1761417570863752200,5.893752197265625,0,0,0.00045814894838258624
1761417570880577300,5.910577392578125,0.0007635815418325365,-0.00015271631127689034,0.0003054326225537807
1761417570897416200,5.927416259765625,-0.00015271631127689034,0.00015271631127689034,0.00015271631127689034
1761417570914215200,5.944215087890625,-0.00015271631127689034,-0.0003054326225537807,0.0010690141934901476
1761417570931044600,5.961044677734375,-0.00015271631127689034,0.0010690141934901476,0.00045814894838258624
1761417570947874600,5.97787451171875,-0.0009162978967651725,-0.00045814894838258624,-0.00015271631127689034
1761417570964698000,5.994697998046875,0.0006108652451075613,-0.0003054326225537807,0.0006108652451075613
1761417570981506300,6.01150634765625,0.0003054326225537807,0,-0.00015271631127689034
1761417570998334200,6.028334228515625,0,-0.00015271631127689034,-0.0007635815418325365
1761417571015158300,6.045158203125,0,-0.0007635815418325365,-0.0007635815418325365
1761417571031981600,6.061981689453125,0.0007635815418325365,-0.0012217304902151227,0
1761417571048790300,6.078790283203125,0,-0.0006108652451075613,-0.00015271631127689034
1761417571065635000,6.095635009765625,0.0006108652451075613,0,0.00045814894838258624
1761417571082445600,6.112445556640625,0,0.0009162978967651725,0.00045814894838258624
1761417571099292700,6.129292724609375,-0.0003054326225537807,-0.0006108652451075613,-0.0009162978967651725
1761417571116125700,6.146125732421875,0.0003054326225537807,0.0009162978967651725,-0.00045814894838258624
1761417571132930300,6.162930419921875,0,-0.0010690141934901476,0.0003054326225537807
1761417571149770500,6.1797705078125,-0.0010690141934901476,0,0.00015271631127689034
1761417571166590000,6.19658984375,-0.00015271631127689034,-0.00015271631127689034,0
1761417571183407900,6.213407958984375,0.0006108652451075613,0.00045814894838258624,0.00015271631127689034
1761417571200224800,6.230224853515625,0,-0.0003054326225537807,0
1761417571217040600,6.24704052734375,0.0010690141934901476,0.0009162978967651725,0
1761417571233873400,6.263873291015625,0,-0.0010690141934901476,-0.00015271631127689034
1761417571250699800,6.28069970703125,0,0.0009162978967651725,0
1761417571267522300,6.297522216796875,-0.00015271631127689034,-0.00015271631127689034,-0.0003054326225537807
1761417571284364800,6.31436474609375,0,0.0003054326225537807,-0.0006108652451075613
1761417571301168000,6.331168212890625,-0.0003054326225537807,0,0.00015271631127689034
1761417571318011000,6.348010986328125,-0.00015271631127689034,0,0
1761417571334833200,6.364833251953125,-0.00015271631127689034,-0.0007635815418325365,-0.001527163083665073
1761417571351658500,6.381658447265625,0,-0.0012217304902151227,-0.0003054326225537807
1761417571368481800,6.398481689453125,0.0007635815418325365,0.0007635815418325365,-0.0007635815418325365
1761417571385308400,6.415308349609375,0,0,-0.00045814894838258624
1761417571402126800,6.432126953125,-0.00015271631127689034,0,0
1761417571418946800,6.44894677734375,-0.00015271631127689034,-0.00045814894838258624,0.0010690141934901476
1761417571435779000,6.465779052734375,0,0.0003054326225537807,0.00015271631127689034
1761417571452605200,6.482605224609375,-0.0007635815418325365,0,0.00015271631127689034
1761417571469410800,6.499410888671875,-0.00015271631127689034,0.0010690141934901476,0.00015271631127689034
1761417571486239200,6.5162392578125,0,0,-0.0009162978967651725
1761417571503045000,6.533045166015625,0.0007635815418325365,-0.0003054326225537807,0
1761417571519889400,6.549889404296875,0,0.0003054326225537807,0.00045814894838258624
1761417571536711400,6.56671142578125,-0.00015271631127689034,-0.00015271631127689034,0.00015271631127689034
1761417571553521200,6.583521240234375,-0.00015271631127689034,0.00015271631127689034,0.00015271631127689034
1761417571570359600,6.600359619140625,0.0007635815418325365,0.0003054326225537807,-0.0006108652451075613
1761417571587193300,6.617193359375,0,-0.00015271631127689034,-0.00015271631127689034
1761417571604026400,6.6340263671875,-0.00015271631127689034,0.0006108652451075613,0.0010690141934901476
1761417571620843800,6.65084375,-0.00015271631127689034,0.00015271631127689034,0.00015271631127689034
1761417571637675800,6.66767578125,-0.00015271631127689034,-0.0007635815418325365,0
1761417571654493400,6.684493408203125,0.0006108652451075613,-0.00015271631127689034,-0.0003054326225537807
1761417571671307000,6.70130712890625,0,0.0009162978967651725,-0.00045814894838258624
1761417571688131300,6.71813134765625,-0.0007635815418325365,0,-0.0006108652451075613
1761417571704954600,6.73495458984375,0.0006108652451075613,-0.00015271631127689034,-0.00015271631127689034
1761417571721781000,6.751781005859375,-0.00015271631127689034,-0.0003054326225537807,0.0009162978967651725
1761417571738590200,6.768590087890625,-0.0006108652451075613,-0.0007635815418325365,0.00045814894838258624
1761417571755428600,6.7854287109375,-0.00015271631127689034,0,-0.00015271631127689034
1761417571772269000,6.80226904296875,-0.00015271631127689034,0,0
1761417571789091000,6.819091064453125,-0.00015271631127689034,0.0006108652451075613,0.00015271631127689034
1761417571805915100,6.8359150390625,-0.00015271631127689034,-0.0010690141934901476,-0.0007635815418325365
1761417571822740200,6.852740234375,0.0003054326225537807,-0.0003054326225537807,0.00015271631127689034
1761417571839563000,6.86956298828125,0,0.00045814894838258624,-0.0006108652451075613
1761417571856372200,6.886372314453125,0.00015271631127689034,-0.0010690141934901476,0.0010690141934901476
1761417571873211100,6.903211181640625,-0.00015271631127689034,0.00015271631127689034,-0.001527163083665073
1761417571890037500,6.92003759765625,0,0,-0.0007635815418325365
1761417571906860000,6.936860107421875,0,0.00015271631127689034,0.00045814894838258624
1761417571923686700,6.953686767578125,0,0,0
1761417571940492800,6.970492919921875,0.00015271631127689034,0.00045814894838258624,-0.0006108652451075613
1761417571957317000,6.987317138671875,0,-0.00015271631127689034,-0.0007635815418325365
1761417571974143700,7.004143798828125,-0.00015271631127689034,0.0003054326225537807,0.0007635815418325365
1761417571990970000,7.02097021484375,0,0.00015271631127689034,-0.00015271631127689034
1761417572007792400,7.03779248046875,-0.00015271631127689034,-0.00045814894838258624,0
1761417572024608500,7.0546083984375,0.00015271631127689034,-0.00015271631127689034,0.00015271631127689034
1761417572041441300,7.071441162109375,0.0006108652451075613,-0.00015271631127689034,0.00045814894838258624
1761417572058281000,7.088281005859375,0,0.0006108652451075613,0.0006108652451075613
1761417572075107600,7.105107666015625,0.0006108652451075613,0.0003054326225537807,0.00045814894838258624
1761417572091928600,7.121928466796875,0,0.0010690141934901476,0.00015271631127689034
1761417572108735200,7.1387353515625,-0.00015271631127689034,0.0010690141934901476,0.0003054326225537807
1761417572125574700,7.15557470703125,0.0003054326225537807,0.00045814894838258624,0.00015271631127689034
1761417572142384600,7.172384521484375,-0.0007635815418325365,-0.00015271631127689034,-0.00015271631127689034
1761417572159197000,7.189197021484375,0,-0.00015271631127689034,0.00015271631127689034
1761417572176023800,7.20602392578125,-0.00015271631127689034,-0.0010690141934901476,0.0012217304902151227
1761417572192851200,7.222851318359375,-0.00015271631127689034,0.0007635815418325365,0.00045814894838258624
1761417572209674200,7.23967431640625,-0.00015271631127689034,0,-0.0003054326225537807
1761417572226499800,7.256499755859375,-0.00015271631127689034,0.00015271631127689034,-0.0003054326225537807
1761417572243336400,7.27333642578125,-0.0007635815418325365,0.0007635815418325365,-0.0006108652451075613
1761417572260159200,7.2901591796875,0.0003054326225537807,0.0003054326225537807,-0.0003054326225537807
1761417572276966100,7.306966064453125,-0.0007635815418325365,0.0010690141934901476,0.0003054326225537807
1761417572293806800,7.323806884765625,0.0009162978967651725,0,0.0010690141934901476
1761417572310630000,7.3406298828125,0,0.0003054326225537807,0.0003054326225537807
1761417572327451100,7.357451171875,-0.00015271631127689034,-0.0006108652451075613,0.0012217304902151227
1761417572344297200,7.374297119140625,0.0007635815418325365,0,-0.0006108652451075613
1761417572361112800,7.39111279296875,0.0003054326225537807,-0.0003054326225537807,0.00015271631127689034
1761417572377942800,7.40794287109375,0,-0.0006108652451075613,0
1761417572394767600,7.424767578125,0.00015271631127689034,-0.00045814894838258624,0.0012217304902151227
1761417572411589600,7.441589599609375,0.00015271631127689034,-0.00015271631127689034,0.00015271631127689034
1761417572428415000,7.4584150390625,0,0.0009162978967651725,0.00045814894838258624
1761417572445208600,7.47520849609375,-0.0003054326225537807,-0.0007635815418325365,-0.0007635815418325365
1761417572462051000,7.492051025390625,-0.0003054326225537807,0,-0.00015271631127689034
1761417572478873300,7.508873291015625,-0.00015271631127689034,0,0.00015271631127689034
1761417572495695400,7.5256953125,-0.00015271631127689034,0.0010690141934901476,-0.0006108652451075613
1761417572512512300,7.54251220703125,-0.00015271631127689034,0.0007635815418325365,-0.0006108652451075613
1761417572529335000,7.5593349609375,-0.00015271631127689034,-0.0006108652451075613,0.00045814894838258624
1761417572546188000,7.57618798828125,-0.00015271631127689034,0.0003054326225537807,-0.0006108652451075613
1761417572563002000,7.593002197265625,-0.00015271631127689034,0.00015271631127689034,-0.0007635815418325365
1761417572579840800,7.6098408203125,-0.00015271631127689034,0,-0.0009162978967651725
1761417572596659500,7.626659423828125,-0.00015271631127689034,-0.00015271631127689034,0.00015271631127689034
1761417572613477400,7.643477294921875,-0.00015271631127689034,0,-0.00015271631127689034
1761417572630305500,7.660305419921875,-0.00015271631127689034,0.0006108652451075613,0
1761417572647122700,7.677122802734375,-0.00015271631127689034,0.0003054326225537807,0.00015271631127689034
1761417572663938600,7.6939384765625,-0.00015271631127689034,0.0003054326225537807,0
1761417572680761900,7.710761962890625,-0.00015271631127689034,0.0009162978967651725,-0.00015271631127689034
1761417572697593900,7.72759375,0.00015271631127689034,0.00015271631127689034,0.00015271631127689034
1761417572714399000,7.74439892578125,-0.00015271631127689034,0.0007635815418325365,0.0007635815418325365
1761417572731232300,7.761232177734375,-0.00045814894838258624,0,0
1761417572748062200,7.778062255859375,0.0006108652451075613,-0.0003054326225537807,-0.0010690141934901476
1761417572764904700,7.79490478515625,-0.00015271631127689034,0.0009162978967651725,0
1761417572781725000,7.811724853515625,-0.00015271631127689034,0.00015271631127689034,0.00045814894838258624
1761417572798537000,7.828536865234375,-0.00015271631127689034,0.0003054326225537807,0.0006108652451075613
1761417572815370500,7.84537060546875,0,-0.00015271631127689034,0
1761417572832184600,7.8621845703125,-0.00015271631127689034,-0.00015271631127689034,-0.00015271631127689034
1761417572849004500,7.879004638671875,0.0006108652451075613,-0.00015271631127689034,0.0003054326225537807
1761417572865832700,7.895832763671875,-0.00015271631127689034,0.0010690141934901476,0.0007635815418325365
1761417572882654200,7.912654296875,-0.00015271631127689034,0,0
1761417572899481000,7.929481201171875,-0.00015271631127689034,0.0003054326225537807,0.0007635815418325365
1761417572916306000,7.946305908203125,-0.00015271631127689034,-0.00015271631127689034,0.00045814894838258624
1761417572933132000,7.963132080078125,-0.00015271631127689034,-0.00015271631127689034,0.00045814894838258624
1761417572949954000,7.9799541015625,-0.00015271631127689034,0.0007635815418325365,-0.00015271631127689034
1761417572966780000,7.99677978515625,0.0006108652451075613,0,0
1761417572983602000,8.013601806640626,-0.0009162978967651725,0.0006108652451075613,-0.0006108652451075613
1761417573000429000,8.030428955078126,-0.00015271631127689034,-0.0006108652451075613,-0.00015271631127689034
1761417573017252000,8.047252197265625,-0.00015271631127689034,0.0006108652451075613,-0.0006108652451075613
1761417573034095400,8.064095458984376,0,0.0012217304902151227,0.00015271631127689034
1761417573050898200,8.080898193359374,0.0006108652451075613,-0.00045814894838258624,0
1761417573067736000,8.097736083984374,-0.00015271631127689034,-0.0006108652451075613,-0.0006108652451075613
1761417573084547000,8.114547119140624,-0.00015271631127689034,0,-0.00015271631127689034
1761417573101371400,8.131371337890625,-0.00015271631127689034,-0.0003054326225537807,-0.0006108652451075613
1761417573118196700,8.14819677734375,-0.00015271631127689034,0.0003054326225537807,0.00015271631127689034
1761417573135009300,8.16500927734375,-0.00015271631127689034,0.0006108652451075613,-0.0006108652451075613
1761417573151833600,8.18183349609375,-0.00015271631127689034,-0.00015271631127689034,-0.0006108652451075613
1761417573168660700,8.19866064453125,-0.00015271631127689034,0,0.0012217304902151227
1761417573185484300,8.215484375,-0.00015271631127689034,0.0010690141934901476,0.00015271631127689034
1761417573202307300,8.232307373046876,-0.00015271631127689034,0,-0.00015271631127689034
1761417573219132200,8.249132080078125,0,0.00015271631127689034,-0.0010690141934901476
1761417573235957500,8.26595751953125,-0.00015271631127689034,0.0007635815418325365,0.00015271631127689034
1761417573252780500,8.282780517578125,-0.00015271631127689034,0.0010690141934901476,-0.0003054326225537807
1761417573269607000,8.29960693359375,-0.00015271631127689034,0,0
1761417573286429400,8.316429443359375,0.0003054326225537807,-0.0006108652451075613,0
1761417573303254300,8.333254150390625,-0.00015271631127689034,0.0007635815418325365,-0.0003054326225537807
1761417573320081400,8.350081298828124,-0.00015271631127689034,0.00015271631127689034,0
1761417573336904700,8.36690478515625,-0.00015271631127689034,-0.0003054326225537807,-0.0007635815418325365
1761417573353724700,8.383724609375,-0.00015271631127689034,0.0003054326225537807,0
1761417573370550500,8.400550537109375,-0.00015271631127689034,-0.00015271631127689034,0.00015271631127689034
1761417573387375000,8.417375,-0.00015271631127689034,-0.0003054326225537807,0.00015271631127689034
1761417573404201500,8.434201416015625,-0.0007635815418325365,0.0003054326225537807,-0.00015271631127689034
1761417573421038000,8.4510380859375,-0.00015271631127689034,-0.0006108652451075613,0.00015271631127689034
1761417573437860400,8.4678603515625,-0.0009162978967651725,0,0.00015271631127689034
1761417573454664200,8.484664306640624,-0.00015271631127689034,0,0.00015271631127689034
1761417573471510000,8.501510009765624,-0.00015271631127689034,0.0007635815418325365,0.0003054326225537807
1761417573488332300,8.518332275390625,-0.00015271631127689034,-0.0007635815418325365,-0.0006108652451075613
1761417573505157400,8.535157470703124,-0.00015271631127689034,0,-0.0009162978967651725
1761417573521998300,8.551998291015625,-0.00015271631127689034,0.00045814894838258624,-0.00015271631127689034
1761417573538799900,8.5687998046875,-0.00015271631127689034,0.0007635815418325365,0.00015271631127689034
1761417573555647200,8.585647216796875,0,0.00015271631127689034,0.00015271631127689034
1761417573572468700,8.60246875,-0.0009162978967651725,0,-0.0006108652451075613
1761417573589292300,8.619292236328125,0,-0.0003054326225537807,-0.00015271631127689034
1761417573606118100,8.6361181640625,-0.00015271631127689034,-0.0006108652451075613,0.0009162978967651725
1761417573622940700,8.652940673828125,-0.00015271631127689034,-0.0003054326225537807,0.00045814894838258624
1761417573639767000,8.66976708984375,-0.00015271631127689034,0.0007635815418325365,0.00015271631127689034
1761417573656567600,8.686567626953124,0.00015271631127689034,0.00015271631127689034,-0.0006108652451075613
1761417573673401600,8.703401611328125,-0.00015271631127689034,-0.00015271631127689034,0.00015271631127689034
1761417573690227200,8.720227294921875,-0.00015271631127689034,0.0006108652451075613,0.0003054326225537807
1761417573707049200,8.73704931640625,0.0003054326225537807,-0.0006108652451075613,0
1761417573723872800,8.753872802734374,0,0.0010690141934901476,-0.00015271631127689034
1761417573740699000,8.770698974609376,-0.00045814894838258624,0.00015271631127689034,-0.0007635815418325365
1761417573757538600,8.78753857421875,-0.00045814894838258624,0.0006108652451075613,0.0009162978967651725
1761417573774367200,8.8043671875,-0.00045814894838258624,0.0009162978967651725,0
1761417573791176700,8.8211767578125,0.00015271631127689034,-0.0006108652451075613,-0.0006108652451075613
1761417573808010000,8.838010009765625,0.00015271631127689034,0,0.00015271631127689034
1761417573824832000,8.85483203125,0.0006108652451075613,0.00015271631127689034,0.0012217304902151227
1761417573841641500,8.871641357421876,-0.00015271631127689034,-0.00015271631127689034,0.00015271631127689034
1761417573858494200,8.888494140625,-0.00015271631127689034,-0.00045814894838258624,0.00015271631127689034
1761417573875303000,8.905302978515625,0.00015271631127689034,-0.0006108652451075613,-0.00015271631127689034
1761417573892131600,8.922131591796875,-0.00015271631127689034,0,0.00015271631127689034
1761417573908939800,8.938939697265624,-0.00015271631127689034,0.00015271631127689034,-0.0003054326225537807
1761417573925764400,8.955764404296875,0.00015271631127689034,0,-0.0009162978967651725
1761417573942590500,8.972590576171875,-0.00045814894838258624,0.0003054326225537807,-0.00015271631127689034
1761417573959399700,8.989399658203125,0,-0.0009162978967651725,-0.0006108652451075613
1761417573976238300,9.00623828125,0,0.00045814894838258624,0.0003054326225537807
1761417573993058000,9.02305810546875,0,-0.0007635815418325365,-0.0006108652451075613
1761417574009908500,9.039908447265624,-0.00015271631127689034,0.0003054326225537807,-0.0010690141934901476
1761417574026723800,9.056723876953125,0.00015271631127689034,0.0009162978967651725,-0.00045814894838258624
1761417574043549400,9.073549560546875,-0.00045814894838258624,0.00045814894838258624,0.0009162978967651725
1761417574060373200,9.090373291015625,0,-0.0009162978967651725,-0.0006108652451075613
1761417574077185800,9.107185791015626,-0.00015271631127689034,-0.00015271631127689034,0.00015271631127689034
1761417574094023400,9.1240234375,-0.00015271631127689034,0.014813481830060482,0.007788531947880983
1761417574110846500,9.140846435546875,-0.00015271631127689034,0.003817907767370343,0.0032070425804704428
1761417574127670000,9.157669921875,-0.0009162978967651725,-0.005803219974040985,-0.005803219974040985
1761417574144478700,9.174478759765625,-0.00015271631127689034,-0.001679879380390048,-0.0012217304902151227
