time,seconds_elapsed,z,y,x
1761381154899937500,0.1839375,-2.1219024658203125,0.8240655660629272,-0.5328801870346069
1761381154916770300,0.200770263671875,-1.5115766525268555,1.4727903604507446,-0.9599013328552246
1761381154933597000,0.217596923828125,-1.0171823501586914,1.8751429319381714,-1.1873682737350464
1761381154950421000,0.2344208984375,-1.1340360641479492,1.5365618467330933,-1.812334656715393
1761381154967248000,0.251247802734375,-1.1834793090820312,1.2430202960968018,-1.863914966583252
1761381154984068900,0.26806884765625,-1.0218582153320312,1.0025774240493774,-1.3905417919158936
1761381155000900000,0.284900146484375,-0.8904933929443359,1.0071213245391846,-1.056915283203125
1761381155017727700,0.301727783203125,0.21438026428222656,0.8432642221450806,-0.6928160190582275
1761381155034564400,0.318564453125,0.9182872772216797,0.5307013392448425,-0.15567231178283691
1761381155051383300,0.33538330078125,1.6394338607788086,0.051285505294799805,0.0886542797088623
1761381155068207600,0.35220751953125,2.422412872314453,0.31333157420158386,0.0930016040802002
1761381155085051000,0.36905078125,2.6715450286865234,0.7656572461128235,-0.21754813194274902
1761381155101863200,0.38586328125,1.8722381591796875,0.9239751696586609,-0.33562350273132324
1761381155118686700,0.402686767578125,1.240621566772461,1.2322542667388916,-0.4526553153991699
1761381155135516000,0.419515869140625,0.6400184631347656,1.2232167720794678,-0.4393739700317383
1761381155152339200,0.436339111328125,0.08384418487548828,0.750741720199585,-0.3473043441772461
1761381155169166300,0.453166259765625,-0.3491697311401367,0.520919919013977,-0.9839944839477539
1761381155186000000,0.469999755859375,-1.4522953033447266,0.7226316332817078,-1.32625412940979
1761381155202820400,0.4868203125,-1.647806167602539,0.8624743223190308,-2.3039391040802
1761381155219646000,0.50364599609375,-1.7562403678894043,1.400220513343811,-2.4162917137145996
1761381155236476400,0.520476318359375,-1.7644729614257812,1.1181954145431519,-1.660531759262085
1761381155253298200,0.537298095703125,-1.859818458557129,1.2115051746368408,-1.5798176527023315
1761381155270128400,0.55412841796875,-1.8473091125488281,1.824257731437683,-2.129664897918701
1761381155286954800,0.570954833984375,-2.0788955688476562,2.0669660568237305,-2.502101421356201
1761381155303781000,0.587781005859375,-2.899630546569824,2.0985465049743652,-2.9122586250305176
1761381155320605700,0.604605712890625,-2.9514665603637695,2.1764841079711914,-3.3718321323394775
1761381155337433600,0.62143359375,-2.580230712890625,2.4109385013580322,-2.6809191703796387
1761381155354260200,0.63826025390625,-0.8380870819091797,2.7263808250427246,-2.18498158454895
1761381155371091000,0.655091064453125,1.3474044799804688,2.664214611053467,-1.8416869640350342
1761381155387912200,0.671912109375,2.6684112548828125,2.5484817028045654,-1.9827756881713867
1761381155404742000,0.688741943359375,3.4951581954956055,2.3807101249694824,-2.1798043251037598
1761381155421568000,0.705568115234375,4.984058380126953,3.4342145919799805,-2.818540334701538
1761381155438389000,0.722388916015625,9.48382568359375,4.865285396575928,-3.3418102264404297
1761381155455223800,0.739223876953125,17.225757598876953,5.155995845794678,-2.651385545730591
1761381155472036900,0.756036865234375,24.748462677001953,3.6626808643341064,-0.15822505950927734
1761381155488873700,0.772873779296875,27.95431900024414,1.8925161361694336,2.028705596923828
1761381155505702100,0.7897021484375,27.623172760009766,1.105847954750061,2.5536444187164307
1761381155522526500,0.8065263671875,25.250877380371094,0.7990379333496094,2.720170736312866
1761381155539351800,0.823351806640625,20.907760620117188,0.3377377986907959,3.060624361038208
1761381155556181000,0.840180908203125,15.223360061645508,0.008767366409301758,2.654033660888672
1761381155573009200,0.857009033203125,9.526233673095703,-0.1180264949798584,2.159505605697632
1761381155589835300,0.873835205078125,4.630058288574219,0.04030942916870117,1.468550682067871
1761381155606660000,0.89066015625,0.03816032409667969,-0.523604154586792,1.490332007408142
1761381155623486200,0.907486328125,-4.732820987701416,-2.5306496620178223,1.8166182041168213
1761381155640309200,0.924309326171875,-9.225419044494629,-4.567540168762207,1.200974941253662
1761381155657151200,0.941151123046875,-11.919652938842773,-6.44893217086792,0.8008677959442139
1761381155673965800,0.9579658203125,-12.647445678710938,-8.397516250610352,0.8748321533203125
1761381155690793000,0.97479296875,-12.252158164978027,-9.305048942565918,0.5535945892333984
1761381155707619600,0.99161962890625,-11.428202629089355,-9.086182594299316,-0.15595245361328125
1761381155724434200,1.00843408203125,-10.958510398864746,-8.454877853393555,-0.7864553928375244
1761381155741271800,1.025271728515625,-10.833335876464844,-7.946296691894531,-1.1887166500091553
1761381155758095000,1.04209521484375,-10.88862419128418,-7.643699645996094,-1.4574997425079346
1761381155774931200,1.05893115234375,-11.049612045288086,-7.421626091003418,-1.7226622104644775
1761381155791755800,1.075755859375,-11.182966232299805,-7.328096389770508,-1.8138302564620972
1761381155808576500,1.092576416015625,-11.236298561096191,-7.304357528686523,-1.7481375932693481
1761381155825410300,1.109410400390625,-11.217662811279297,-7.257740497589111,-1.6436837911605835
1761381155842219000,1.126218994140625,-11.024371147155762,-7.2386474609375,-1.413840889930725
1761381155859049500,1.143049560546875,-10.719971656799316,-7.004367828369141,-1.2594244480133057
1761381155875886300,1.15988623046875,-10.309673309326172,-6.656965732574463,-1.2924174070358276
1761381155892714500,1.176714599609375,-9.977737426757812,-6.252996444702148,-1.0978617668151855
1761381155909539000,1.1935390625,-9.931262016296387,-5.760087966918945,-2.1344103813171387
1761381155926366200,1.2103662109375,-9.748477935791016,-5.769521713256836,-2.2550430297851562
1761381155943191000,1.22719091796875,-8.79987621307373,-5.238186836242676,-2.2019336223602295
1761381155966330000,1.250330078125,-7.896688938140869,-4.889550685882568,-1.8912708759307861
1761381155983146200,1.267146240234375,-7.711514472961426,-3.9316558837890625,-2.327099084854126
1761381155999977700,1.283977783203125,-6.062173843383789,-3.0288453102111816,-2.1715683937072754
1761381156016810800,1.300810791015625,-3.782198905944824,-1.3417632579803467,-2.2878923416137695
1761381156033635600,1.317635498046875,-0.9956798553466797,0.6023199558258057,-2.545498847961426
1761381156050463000,1.334462890625,3.8719701766967773,3.039726495742798,-2.3314414024353027
1761381156067287600,1.35128759765625,12.309501647949219,7.144988059997559,-2.335984230041504
1761381156084118500,1.368118408203125,22.86830711364746,10.689183235168457,0.3593480587005615
1761381156100946000,1.38494580078125,33.8026237487793,12.739459991455078,5.465999603271484
1761381156117771800,1.401771728515625,41.707664489746094,13.86844253540039,11.069820404052734
1761381156134597600,1.41859765625,46.16142654418945,14.808159828186035,14.626718521118164
1761381156151422500,1.43542236328125,44.5152473449707,13.409248352050781,14.331578254699707
1761381156168247300,1.452247314453125,35.40007400512695,10.870136260986328,9.363529205322266
1761381156185078300,1.469078369140625,25.181293487548828,9.16757583618164,5.118947505950928
1761381156201903900,1.48590380859375,15.77632999420166,6.740987777709961,4.125674247741699
1761381156218731000,1.50273095703125,7.375072479248047,3.980604887008667,3.52608585357666
1761381156235555600,1.5195556640625,0.07287979125976562,0.6611499786376953,2.2949657440185547
1761381156252380000,1.5363798828125,-5.898813247680664,-3.4222121238708496,1.5286388397216797
1761381156269208600,1.55320849609375,-10.228166580200195,-7.494873046875,1.2668206691741943
1761381156286048000,1.570048095703125,-12.895000457763672,-10.384010314941406,0.3431999683380127
1761381156302862000,1.586862060546875,-14.147223472595215,-12.287059783935547,-0.7129201889038086
1761381156319677400,1.603677490234375,-14.110921859741211,-13.077342987060547,-2.0819921493530273
1761381156336515800,1.620515869140625,-14.013494491577148,-13.0860595703125,-3.1662235260009766
1761381156353343000,1.637343017578125,-13.927970886230469,-12.331317901611328,-3.9561376571655273
1761381156370152200,1.654152099609375,-14.167734146118164,-11.487395286560059,-4.233378887176514
1761381156386997500,1.67099755859375,-14.18241024017334,-11.18492317199707,-3.842167615890503
1761381156403823400,1.6878232421875,-14.036840438842773,-10.912375450134277,-3.3460655212402344
1761381156420652300,1.70465234375,-13.395078659057617,-10.751203536987305,-2.792511224746704
1761381156437476000,1.72147607421875,-12.60722541809082,-10.446663856506348,-2.4475131034851074
1761381156454301700,1.7383017578125,-12.03555965423584,-10.085165023803711,-2.4460513591766357
1761381156471129600,1.755129638671875,-11.124478340148926,-9.539899826049805,-2.6185708045959473
1761381156487944700,1.77194482421875,-10.065461158752441,-8.948101043701172,-2.709033966064453
1761381156504785200,1.78878515625,-8.971220970153809,-8.359302520751953,-2.7263145446777344
1761381156521609700,1.805609619140625,-7.99251651763916,-7.745114326477051,-2.754693031311035
1761381156538434600,1.8224345703125,-7.485583782196045,-6.95836067199707,-2.9828877449035645
1761381156555262500,1.839262451171875,-7.592912673950195,-6.205963611602783,-3.4132585525512695
1761381156572088000,1.856088134765625,-7.882590293884277,-5.55311918258667,-3.8795933723449707
1761381156588915000,1.8729150390625,-7.310622215270996,-5.066099643707275,-3.6396238803863525
1761381156605742000,1.8897421875,-6.557192802429199,-4.160307884216309,-3.362809896469116
1761381156622569500,1.906569580078125,-5.503079414367676,-3.0380449295043945,-2.9472110271453857
1761381156639383000,1.923383056640625,-3.3499274253845215,-1.5248291492462158,-2.4672837257385254
1761381156656222000,1.940221923828125,2.079038619995117,1.4326953887939453,-2.713430404663086
1761381156673055000,1.957054931640625,9.29066276550293,4.602316856384277,0.003336668014526367
1761381156689873200,1.973873046875,15.25232982635498,9.305787086486816,3.2880935668945312
1761381156706704600,1.99070458984375,22.142314910888672,15.467623710632324,6.270353317260742
1761381156723528400,2.007528564453125,30.64247703552246,17.987077713012695,10.683279037475586
1761381156740343600,2.024343505859375,33.759037017822266,17.088491439819336,14.438969612121582
1761381156757168600,2.041168701171875,31.448326110839844,17.20078468322754,15.890342712402344
1761381156774009600,2.058009521484375,25.160184860229492,15.543346405029297,15.600051879882812
1761381156790834700,2.074834716796875,17.153152465820312,13.06342887878418,10.921849250793457
1761381156807660800,2.091660888671875,11.436383247375488,11.096027374267578,5.187074661254883
1761381156824489500,2.108489501953125,9.913272857666016,9.806037902832031,1.9333560466766357
1761381156841314000,2.12531396484375,8.817549705505371,8.36880111694336,1.0147767066955566
1761381156858141200,2.14214111328125,5.845874786376953,6.094080448150635,1.1383371353149414
1761381156874976000,2.15897607421875,2.1452789306640625,3.761103630065918,1.1633803844451904
1761381156891793700,2.175793701171875,-0.9804959297180176,1.3781933784484863,1.1254091262817383
1761381156908623400,2.192623291015625,-3.9957761764526367,-1.1135759353637695,0.8704867362976074
1761381156925448200,2.2094482421875,-7.747133731842041,-3.802060127258301,0.45240259170532227
1761381156942261500,2.226261474609375,-11.779928207397461,-6.192187309265137,-0.6415760517120361
1761381156959100200,2.24310009765625,-14.846733093261719,-7.678126335144043,-2.387094020843506
1761381156975916500,2.25991650390625,-16.752206802368164,-7.890890598297119,-4.2332634925842285
1761381156992753700,2.276753662109375,-16.643341064453125,-7.639715194702148,-4.926795482635498
1761381157009581300,2.293581298828125,-15.713565826416016,-7.193053245544434,-4.961361885070801
1761381157026408400,2.310408447265625,-14.657807350158691,-7.1265082359313965,-4.592100620269775
1761381157043233800,2.32723388671875,-13.598320007324219,-6.9350385665893555,-4.377359867095947
1761381157060048400,2.34404833984375,-12.508766174316406,-6.527513027191162,-4.076120853424072
1761381157076893000,2.360892822265625,-11.96480941772461,-6.137378692626953,-3.834536075592041
1761381157093714400,2.37771435546875,-11.760173797607422,-5.725172996520996,-3.673366069793701
1761381157110539800,2.394539794921875,-11.72212028503418,-5.127601623535156,-3.649059772491455
1761381157127366000,2.411365966796875,-11.633443832397461,-4.623724937438965,-3.520146369934082
1761381157144194300,2.4281943359375,-11.278402328491211,-4.064521789550781,-3.290355682373047
1761381157161022000,2.44502197265625,-10.567667961120605,-3.640083074569702,-2.9011616706848145
1761381157177845800,2.461845703125,-9.604351997375488,-3.2848920822143555,-2.457615852355957
1761381157194679300,2.47867919921875,-8.737321853637695,-3.031949758529663,-2.064223051071167
1761381157211497700,2.495497802734375,-8.286364555358887,-2.807342052459717,-1.7244853973388672
1761381157228329500,2.51232958984375,-7.463678359985352,-2.558905601501465,-1.5158653259277344
1761381157245150500,2.529150390625,-6.469563007354736,-1.689949631690979,-1.6492478847503662
1761381157261979000,2.545978759765625,-5.491960525512695,-0.7050569653511047,-1.8159756660461426
1761381157278806000,2.562805908203125,-3.4860925674438477,0.02425980567932129,-1.610980749130249
1761381157295634000,2.579634033203125,1.0170707702636719,1.044954538345337,-1.1902110576629639
1761381157312447700,2.59644775390625,9.875496864318848,2.6250431537628174,-0.7602286338806152
1761381157329285600,2.61328564453125,21.31800079345703,3.088021993637085,2.8595128059387207
1761381157346111700,2.63011181640625,30.578601837158203,2.8043527603149414,7.546085357666016
1761381157362943000,2.64694287109375,33.998844146728516,2.764914035797119,9.703226089477539
1761381157379766300,2.663766357421875,37.528167724609375,3.4059290885925293,9.539041519165039
1761381157396593000,2.680593017578125,40.55293273925781,0.06442848592996597,8.704296112060547
1761381157413420300,2.697420166015625,36.03118133544922,-2.003441572189331,3.722874641418457
1761381157430256600,2.714256591796875,27.041091918945312,-0.5586921572685242,-1.6330265998840332
1761381157447072300,2.731072265625,18.839275360107422,0.9255746603012085,-3.538992166519165
1761381157463891000,2.747890869140625,11.958508491516113,2.393834114074707,-3.749519109725952
1761381157508050700,2.79205078125,-4.540835857391357,0.431674599647522,-0.15983831882476807
1761381157524901000,2.808901123046875,-7.216419219970703,-0.4615131616592407,0.18150413036346436
1761381157541726000,2.825725830078125,-9.081563949584961,-1.4392220973968506,0.4070373773574829
1761381157558549200,2.84254931640625,-10.98190689086914,-2.1985535621643066,0.22193396091461182
1761381157575374600,2.85937451171875,-12.766508102416992,-2.7821950912475586,-0.18198585510253906
1761381157592201000,2.876200927734375,-13.677934646606445,-3.0051112174987793,-0.707370400428772
1761381157609032400,2.893032470703125,-13.840302467346191,-3.1229305267333984,-1.0641844272613525
1761381157625839000,2.909839111328125,-13.572690963745117,-3.3424582481384277,-1.1525424718856812
1761381157642687200,2.926687255859375,-13.295492172241211,-3.4453036785125732,-1.1175425052642822
1761381157659504000,2.943504150390625,-13.230669021606445,-3.6117167472839355,-1.1891487836837769
1761381157676333300,2.960333251953125,-13.043478012084961,-3.7943131923675537,-1.250656247138977
1761381157693160400,2.977160400390625,-12.794715881347656,-3.851795196533203,-1.405696153640747
1761381157709987800,2.99398779296875,-12.71230411529541,-3.8066513538360596,-1.802812933921814
1761381157726815200,3.010815185546875,-12.56615924835205,-3.6767630577087402,-2.076063632965088
1761381157743639600,3.0276396484375,-12.107370376586914,-3.458373785018921,-1.9931446313858032
1761381157760466400,3.044466552734375,-11.551445007324219,-3.168874502182007,-1.9053099155426025
1761381157777294000,3.061294189453125,-11.02658748626709,-2.889768123626709,-1.9037822484970093
1761381157794124300,3.078124267578125,-10.617317199707031,-2.6584694385528564,-1.9774805307388306
1761381157810944500,3.094944580078125,-10.376112937927246,-2.6171603202819824,-2.0779526233673096
1761381157825677800,3.109677734375,-9.728848457336426,-2.8935608863830566,-2.074664354324341
1761381157842503700,3.126503662109375,-9.163246154785156,-3.0199103355407715,-2.076908588409424
1761381157859324000,3.143323974609375,-8.300370216369629,-3.1206061840057373,-1.6793652772903442
1761381157876151600,3.160151611328125,-7.541703224182129,-3.0154519081115723,-1.4026905298233032
1761381157892977400,3.176977294921875,-6.27780818939209,-2.6481399536132812,-1.1515029668807983
1761381157909804000,3.193803955078125,-4.701150417327881,-2.545595645904541,-0.7552337646484375
1761381157926630700,3.210630615234375,-1.0975847244262695,-1.3708611726760864,-1.07479989528656
1761381157943459800,3.2274599609375,7.286633491516113,1.5111665725708008,-0.5047807693481445
1761381157960283100,3.244283203125,19.581146240234375,1.3573405742645264,4.017770290374756
1761381157977089800,3.26108984375,29.040729522705078,-0.49742650985717773,8.086283683776855
1761381157993938700,3.277938720703125,34.44429016113281,-1.0315277576446533,6.251932144165039
1761381158010764300,3.294764404296875,41.32609558105469,-0.14927387237548828,3.658327579498291
1761381158027589400,3.31158935546875,46.84760665893555,-0.6395279169082642,3.1046464443206787
1761381158044418300,3.328418212890625,41.03363800048828,0.6157140135765076,0.6254379749298096
1761381158061243100,3.3452431640625,28.424922943115234,3.38088059425354,-2.058840274810791
1761381158078069500,3.362069580078125,15.657358169555664,5.924139499664307,-2.6699705123901367
1761381158094899200,3.378899169921875,7.787514686584473,6.564060211181641,-1.2355700731277466
1761381158111723800,3.395723876953125,3.5130157470703125,6.116650104522705,-0.14602696895599365
1761381158128549600,3.412549560546875,-0.14554977416992188,4.613927364349365,0.6163038015365601
1761381158145377300,3.429377197265625,-3.226503372192383,2.8930306434631348,1.1742178201675415
1761381158162203000,3.446202880859375,-5.860434055328369,1.5648934841156006,1.3063291311264038
1761381158179032600,3.463032470703125,-8.317134857177734,0.1744701862335205,1.406242847442627
1761381158195857700,3.479857666015625,-10.380556106567383,-0.7888064384460449,0.9151041507720947
1761381158212684500,3.4966845703125,-12.102566719055176,-1.2440687417984009,0.046308040618896484
1761381158229508600,3.513508544921875,-12.934961318969727,-1.4376164674758911,-0.5195903778076172
1761381158246331000,3.530330810546875,-13.142050743103027,-1.7622942924499512,-0.6108309030532837
1761381158263164000,3.547163818359375,-13.578496932983398,-2.0969161987304688,-0.6334433555603027
1761381158279989500,3.563989501953125,-14.690841674804688,-2.750730037689209,-0.9181007146835327
1761381158296804400,3.580804443359375,-15.845685005187988,-3.773437738418579,-1.4266740083694458
1761381158313642000,3.59764208984375,-16.110668182373047,-4.419247150421143,-2.316643238067627
1761381158330469400,3.614469482421875,-15.966981887817383,-5.032880783081055,-2.8094654083251953
1761381158347295000,3.631294921875,-15.31709098815918,-5.306763648986816,-2.7826006412506104
1761381158364123600,3.64812353515625,-14.563398361206055,-5.435253143310547,-2.3307952880859375
1761381158380940000,3.66493994140625,-13.51816177368164,-5.064044952392578,-2.1697561740875244
1761381158397777400,3.68177734375,-12.693946838378906,-4.515842437744141,-2.6087474822998047
1761381158414602200,3.698602294921875,-12.401885986328125,-4.248564720153809,-2.9338221549987793
1761381158431430100,3.71543017578125,-11.94624137878418,-3.963420867919922,-3.0215418338775635
1761381158448253000,3.7322529296875,-11.49848747253418,-3.840677261352539,-2.567084312438965
1761381158465085400,3.74908544921875,-10.68178939819336,-3.7343976497650146,-1.8104265928268433
1761381158481909200,3.7659091796875,-10.04703426361084,-3.4304447174072266,-1.4268792867660522
1761381158498735000,3.782735107421875,-9.920432090759277,-3.002073049545288,-1.5473997592926025
1761381158515562500,3.7995625,-10.113317489624023,-2.9320218563079834,-1.7416303157806396
1761381158532388600,3.816388671875,-9.264222145080566,-2.885322093963623,-1.6313366889953613
1761381158549214500,3.83321435546875,-6.784335613250732,-2.0297012329101562,-1.7666866779327393
1761381158566045700,3.850045654296875,-0.39274024963378906,-1.1320849657058716,-0.4803628921508789
1761381158582860000,3.866860107421875,9.084380149841309,2.130476951599121,0.7675094604492188
1761381158599694800,3.88369482421875,18.441387176513672,6.011026382446289,4.239081382751465
1761381158616522200,3.900522216796875,24.766380310058594,5.432647705078125,12.137435913085938
1761381158633351000,3.917350830078125,29.149215698242188,3.9131178855895996,15.218378067016602
1761381158650173200,3.934173095703125,35.674476623535156,5.677659511566162,10.182831764221191
1761381158667002000,3.951002197265625,44.682373046875,6.268085956573486,8.35030746459961
1761381158683829200,3.967829345703125,44.106781005859375,4.696004867553711,7.648083686828613
1761381158700657000,3.984656982421875,35.11296081542969,4.971772193908691,3.5755128860473633
1761381158717481700,4.001481689453125,27.022579193115234,5.9911675453186035,1.2026662826538086
1761381158734309000,4.01830908203125,20.908184051513672,6.5500922203063965,1.6468782424926758
1761381158751134000,4.035134033203125,13.923664093017578,6.095139503479004,2.5645503997802734
1761381158767951600,4.05195166015625,6.351382255554199,5.509971618652344,1.9261887073516846
1761381158784788500,4.06878857421875,0.28619956970214844,4.017331123352051,0.8665330410003662
1761381158801624800,4.085624755859375,-3.5792245864868164,1.5958046913146973,0.047075748443603516
1761381158818441200,4.102441162109375,-6.358673095703125,-0.8968789577484131,-0.4733297824859619
1761381158835267600,4.119267578125,-9.411001205444336,-2.771510601043701,-0.47455477714538574
1761381158852094000,4.136093994140625,-12.633724212646484,-4.211939811706543,0.02113199234008789
1761381158868924400,4.15292431640625,-15.390748023986816,-4.784604549407959,0.26262402534484863
1761381158885747000,4.169746826171875,-16.975719451904297,-4.958679676055908,0.2242720127105713
1761381158902574000,4.186573974609375,-17.4915828704834,-5.036471366882324,0.05047106742858887
1761381158919400200,4.203400146484375,-16.753477096557617,-5.045557022094727,-0.0834188461303711
1761381158936229600,4.220229736328125,-15.483857154846191,-5.210146427154541,-0.009868025779724121
1761381158953054500,4.237054443359375,-14.342643737792969,-5.475547790527344,0.11337971687316895
1761381158969880600,4.253880615234375,-13.456254959106445,-5.674488067626953,0.09763693809509277
1761381158986693400,4.270693359375,-13.130645751953125,-5.632136821746826,-0.11093407869338989
1761381159003523000,4.287523193359375,-12.927120208740234,-5.5733418464660645,-0.3007837235927582
1761381159020359700,4.304359619140625,-12.574718475341797,-5.415862083435059,-0.5361402034759521
1761381159037186000,4.32118603515625,-11.86351203918457,-5.264760971069336,-0.6070983409881592
1761381159054016300,4.338016357421875,-11.148879051208496,-5.056866645812988,-0.6647454500198364
1761381159070833000,4.3548330078125,-10.626797676086426,-4.959849834442139,-0.7841976284980774
1761381159087668700,4.371668701171875,-10.412416458129883,-4.898061752319336,-0.9002155065536499
1761381159104495600,4.38849560546875,-10.393199920654297,-4.889989376068115,-0.8007891774177551
1761381159121321000,4.405321044921875,-10.189406394958496,-4.856122970581055,-0.66672682762146
1761381159138145800,4.422145751953125,-9.832986831665039,-4.742125511169434,-0.5917233228683472
1761381159154977000,4.43897705078125,-9.253469467163086,-4.659870147705078,-0.4916421175003052
1761381159171799300,4.45579931640625,-8.608250617980957,-4.192278861999512,-1.0576506853103638
1761381159188627200,4.472627197265625,-6.855264663696289,-3.244670867919922,-1.938890814781189
1761381159205461800,4.489461669921875,-3.504054069519043,-2.0495481491088867,-1.887769341468811
1761381159222278700,4.506278564453125,3.33779239654541,-0.5250215530395508,-1.214917778968811
1761381159239105500,4.52310546875,14.161553382873535,2.194607734680176,-0.2933192253112793
1761381159255934700,4.539934814453125,24.38506317138672,3.6122517585754395,1.084462285041809
1761381159272761600,4.55676171875,30.210166931152344,2.9238009452819824,3.6375656127929688
1761381159289566700,4.573566650390625,34.88947296142578,4.393494606018066,5.682219505310059
1761381159306401800,4.59040185546875,41.93745040893555,5.546276569366455,6.794105052947998
1761381159358999000,4.6429990234375,19.933351516723633,5.905954837799072,-1.1955063343048096
1761381159375822800,4.65982275390625,12.800034523010254,6.726543426513672,-1.6222970485687256
1761381159392646700,4.676646728515625,6.769279479980469,6.487074851989746,-1.1008024215698242
1761381159409476900,4.693476806640625,1.8700065612792969,5.22933292388916,-0.3212219476699829
1761381159426301200,4.71030126953125,-1.692847728729248,3.6720595359802246,-0.07572817802429199
1761381159443130000,4.727130126953125,-4.297637939453125,1.9499845504760742,0.04328429698944092
1761381159459953200,4.743953125,-6.221746444702148,0.5286152362823486,-0.01428377628326416
1761381159476782800,4.760782958984375,-7.896563529968262,-0.31486743688583374,-0.2082068920135498
1761381159493604400,4.777604248046875,-9.544291496276855,-0.6267832517623901,-0.10355406999588013
1761381159508346600,4.7923466796875,-12.037342071533203,-0.8402762413024902,-0.26071733236312866
1761381159525158000,4.809157958984375,-12.830902099609375,-0.9115596413612366,-0.3500102758407593
1761381159541984500,4.825984619140625,-13.528855323791504,-1.3554580211639404,-0.2246904969215393
1761381159558811000,4.842810791015625,-13.595308303833008,-1.958686113357544,0.12640368938446045
1761381159575637200,4.85963720703125,-13.646722793579102,-2.696948528289795,0.5517560243606567
1761381159592465200,4.876465087890625,-13.98389720916748,-3.4228601455688477,0.7071295976638794
1761381159609290000,4.8932900390625,-14.274754524230957,-3.8092308044433594,0.4016740620136261
1761381159626118100,4.9101181640625,-14.472644805908203,-4.023426532745361,0.01727035641670227
1761381159642933500,4.92693359375,-14.656533241271973,-4.074191093444824,-0.41785189509391785
1761381159659771600,4.943771728515625,-14.381868362426758,-4.010354042053223,-0.7029629349708557
1761381159676599000,4.96059912109375,-13.78952693939209,-4.107966423034668,-0.4786965847015381
1761381159693425200,4.977425048828125,-12.844952583312988,-4.220152854919434,-0.14749449491500854
1761381159710250200,4.994250244140625,-11.758404731750488,-4.1068243980407715,-0.15833628177642822
1761381159727065000,5.011065185546875,-11.17750358581543,-3.8772449493408203,-0.5357028245925903
1761381159743905800,5.02790576171875,-10.986550331115723,-3.9132144451141357,-1.1577136516571045
1761381159760730000,5.044730224609375,-10.70001220703125,-3.828268051147461,-1.3918977975845337
1761381159777559300,5.061559326171875,-10.001832008361816,-4.0213541984558105,-0.9368556141853333
1761381159794386000,5.078385986328125,-8.860536575317383,-3.9605679512023926,-0.35596537590026855
1761381159811210000,5.0952099609375,-7.805960655212402,-3.68157958984375,-0.04845249652862549
1761381159828038400,5.112038330078125,-6.554421901702881,-2.9963996410369873,-0.5649582743644714
1761381159844858000,5.128858154296875,-2.1091418266296387,-1.4906563758850098,-1.1298056840896606
1761381159861689900,5.14568994140625,7.013280868530273,-0.1410127878189087,0.6363945007324219
1761381159878516000,5.162515869140625,16.79590606689453,0.35863035917282104,5.191020965576172
1761381159895343900,5.17934375,20.838783264160156,0.04490983486175537,10.508212089538574
1761381159912169500,5.19616943359375,24.7269344329834,1.4210662841796875,12.41469955444336
1761381159928996400,5.212996337890625,37.629295349121094,2.558795928955078,13.231306076049805
1761381159945824300,5.22982421875,49.202396392822266,2.545259475708008,13.865015029907227
1761381159962652200,5.246652099609375,46.315406799316406,3.347038745880127,10.443296432495117
1761381159979475500,5.263475341796875,34.36744689941406,5.561470985412598,3.4726152420043945
1761381159996289300,5.280289306640625,25.472509384155273,7.875006198883057,-0.8582863807678223
1761381160013132500,5.297132568359375,18.404449462890625,8.85908031463623,-2.380753993988037
1761381160029947600,5.31394775390625,11.678932189941406,8.86249828338623,-3.1722869873046875
1761381160046782500,5.330782470703125,6.8534440994262695,7.7412333488464355,-3.2441115379333496
1761381160063613000,5.347613037109375,3.664395332336426,5.69149112701416,-2.7091615200042725
1761381160080435700,5.364435791015625,-0.1065073013305664,3.000692367553711,-1.9777079820632935
1761381160097261300,5.38126123046875,-4.811574935913086,-0.1253402829170227,-1.714911937713623
1761381160114089700,5.39808984375,-9.697961807250977,-2.712615728378296,-2.318988084793091
1761381160130903800,5.41490380859375,-13.446659088134766,-4.096174240112305,-3.246819496154785
1761381160147741200,5.4317412109375,-14.96990966796875,-4.747443199157715,-3.929079532623291
1761381160164569600,5.448569580078125,-15.189760208129883,-5.352351188659668,-3.8281331062316895
1761381160181395000,5.46539501953125,-15.497949600219727,-5.738965034484863,-3.748450517654419
1761381160198221300,5.48222119140625,-16.587146759033203,-5.929197788238525,-4.150832653045654
1761381160215049200,5.49904931640625,-17.812625885009766,-6.084786415100098,-4.488277435302734
1761381160231875300,5.515875244140625,-18.332794189453125,-6.181696891784668,-4.7036356925964355
1761381160248691200,5.532691162109375,-17.83590316772461,-6.223159313201904,-4.614076137542725
1761381160265528600,5.549528564453125,-17.01129913330078,-5.871072769165039,-4.620645523071289
1761381160282355000,5.56635498046875,-15.578121185302734,-5.351490020751953,-4.512447834014893
1761381160299180800,5.583180908203125,-13.698345184326172,-4.677396774291992,-4.226527214050293
1761381160316010000,5.600010009765625,-11.887687683105469,-4.098354339599609,-3.848146677017212
1761381160332835600,5.616835693359375,-10.740971565246582,-3.654348850250244,-3.4835293292999268
1761381160349664000,5.6336640625,-10.320261001586914,-3.2570583820343018,-3.286000967025757
1761381160366475300,5.650475341796875,-10.296623229980469,-2.967357635498047,-3.219545364379883
1761381160383315700,5.667315673828125,-10.657136917114258,-2.6874210834503174,-3.4381372928619385
1761381160400140300,5.684140380859375,-10.05571174621582,-2.511751651763916,-3.194488048553467
1761381160416977200,5.70097705078125,-8.801742553710938,-1.7765625715255737,-2.9976613521575928
1761381160433794600,5.717794677734375,-6.117265701293945,-0.3255486488342285,-2.832425832748413
1761381160450623500,5.73462353515625,-1.4117841720581055,0.919312596321106,-1.5465795993804932
1761381160467436000,5.75143603515625,6.277817726135254,2.6522469520568848,-0.08999180793762207
1761381160484271900,5.76827197265625,15.9704008102417,4.604835510253906,1.8480596542358398
1761381160501102300,5.785102294921875,24.40998649597168,4.348043441772461,5.876543045043945
1761381160517929700,5.8019296875,30.382122039794922,3.397517442703247,9.719863891601562
1761381160534753000,5.8187529296875,35.97595977783203,3.7932193279266357,10.886837005615234
1761381160551581700,5.835581787109375,41.665931701660156,4.780860900878906,10.254150390625
1761381160568406800,5.85240673828125,39.81901550292969,3.2695343494415283,8.763028144836426
1761381160585233400,5.8692333984375,29.310869216918945,2.7416021823883057,4.432071685791016
1761381160602059800,5.886059814453125,19.665420532226562,3.782466411590576,1.1847474575042725
1761381160618889000,5.902888916015625,12.965313911437988,4.593240261077881,0.1405038833618164
1761381160635713800,5.9197138671875,7.726393699645996,4.714601516723633,0.06960821151733398
1761381160652539100,5.9365390625,3.470211982727051,4.337133407592773,0.19840097427368164
1761381160669365800,5.95336572265625,-0.19430065155029297,3.216613531112671,0.5724995136260986
1761381160686183200,5.97018310546875,-3.096780300140381,1.6113845109939575,0.947699785232544
1761381160703022000,5.98702197265625,-5.166886806488037,0.0028415918350219727,1.0551981925964355
1761381160719845600,6.003845703125,-6.804755210876465,-1.9479035139083862,1.1957976818084717
1761381160736678100,6.02067822265625,-8.326756477355957,-3.6066043376922607,0.954033613204956
1761381160753500200,6.037500244140625,-9.765124320983887,-4.391480445861816,0.17771577835083008
1761381160770325200,6.0543251953125,-10.960257530212402,-4.323298931121826,-1.0406901836395264
1761381160787151600,6.071151611328125,-11.900792121887207,-3.7007546424865723,-1.8925355672836304
1761381160803977500,6.0879775390625,-12.605827331542969,-3.3803138732910156,-2.0507054328918457
1761381160820806000,6.104805908203125,-13.479347229003906,-3.66784405708313,-1.8583853244781494
1761381160837632000,6.121632080078125,-14.384340286254883,-4.5734171867370605,-1.5033981800079346
1761381160854460200,6.138460205078125,-14.29106330871582,-5.536874771118164,-1.2673888206481934
1761381160871273200,6.155273193359375,-13.849395751953125,-6.109165191650391,-1.405050277709961
1761381160888111400,6.172111328125,-13.00415325164795,-6.4265947341918945,-1.5635162591934204
1761381160904931000,6.18893115234375,-12.713071823120117,-6.743607521057129,-1.5939967632293701
1761381160921765400,6.205765380859375,-12.544940948486328,-7.013348579406738,-1.4689606428146362
1761381160938589000,6.2225888671875,-12.372491836547852,-7.1452436447143555,-1.4441238641738892
1761381160955421000,6.2394208984375,-11.599166870117188,-6.9388885498046875,-1.7658661603927612
1761381160972244200,6.256244140625,-10.709125518798828,-6.539402484893799,-2.301581382751465
1761381160989070800,6.27307080078125,-10.071142196655273,-6.362015724182129,-2.5338997840881348
1761381161005879000,6.289879150390625,-9.448427200317383,-6.046937942504883,-2.7448678016662598
1761381161041654300,6.325654296875,-8.446337699890137,-5.1491546630859375,-2.894977331161499
1761381161058481700,6.342481689453125,-8.413542747497559,-4.799895763397217,-2.725764513015747
1761381161075307500,6.3593076171875,-8.57674503326416,-4.223390579223633,-3.046022415161133
1761381161098447400,6.382447265625,-6.394825458526611,-2.0972375869750977,-3.914825439453125
1761381161115271200,6.399271240234375,-0.9934616088867188,-0.04837179183959961,-3.5254831314086914
1761381161132085500,6.41608544921875,11.889317512512207,1.593731164932251,2.186358690261841
1761381161148927200,6.43292724609375,25.98324203491211,2.6144471168518066,10.377617835998535
1761381161165750300,6.449750244140625,36.030029296875,2.45219087600708,17.953330993652344
1761381161182579500,6.466579345703125,42.48939514160156,4.010420799255371,20.76275062561035
1761381161199403800,6.48340380859375,46.947601318359375,5.25554084777832,17.37538719177246
1761381161216230400,6.50023046875,42.92802810668945,3.2019104957580566,11.207069396972656
1761381161233048800,6.517048828125,31.796688079833984,3.873708486557007,4.412759780883789
1761381161249884400,6.533884521484375,20.94765281677246,5.324807167053223,1.1307575702667236
1761381161266711000,6.5507109375,12.061869621276855,5.836056709289551,0.5802991390228271
1761381161283537700,6.56753759765625,4.910700798034668,5.960611820220947,1.2509236335754395
1761381161300362800,6.58436279296875,-1.0236577987670898,5.858652591705322,1.7841622829437256
1761381161317189000,6.601189208984375,-4.595338821411133,4.752685546875,2.1444993019104004
1761381161334018000,6.61801806640625,-6.13134765625,3.180360794067383,2.025222063064575
1761381161350843000,6.6348427734375,-7.069223403930664,1.7546017169952393,1.12664794921875
1761381161367671300,6.65167138671875,-8.346298217773438,0.40343034267425537,-0.36914920806884766
1761381161384496600,6.66849658203125,-9.152141571044922,-0.3841414451599121,-1.5494346618652344
1761381161401326000,6.685326171875,-9.477141380310059,-0.6464923620223999,-2.1883561611175537
1761381161418148600,6.702148681640625,-10.003463745117188,-0.776282787322998,-2.4983718395233154
1761381161434977500,6.7189775390625,-10.775158882141113,-0.8940734267234802,-2.8364028930664062
1761381161451800600,6.735800537109375,-11.344015121459961,-1.0409636497497559,-3.040332794189453
1761381161468632300,6.75263232421875,-11.726106643676758,-1.441744327545166,-2.943607807159424
1761381161485457000,6.769456787109375,-12.389825820922852,-2.0403783321380615,-2.609811305999756
1761381161502281700,6.78628173828125,-13.531292915344238,-2.6268410682678223,-2.4765753746032715
1761381161519108400,6.8031083984375,-15.069576263427734,-3.1049954891204834,-2.4627723693847656
1761381161535936500,6.8199365234375,-16.564144134521484,-3.5714879035949707,-2.633591651916504
1761381161552764000,6.836763916015625,-17.619400024414062,-3.6084861755371094,-3.1444144248962402
1761381161569587200,6.853587158203125,-17.420345306396484,-3.6026382446289062,-3.2940587997436523
1761381161586416000,6.870416015625,-15.878822326660156,-3.7899625301361084,-2.8270721435546875
1761381161603242200,6.8872421875,-13.705437660217285,-3.8886075019836426,-2.3142104148864746
1761381161620067800,6.90406787109375,-11.869029998779297,-3.579296827316284,-2.0058135986328125
1761381161636900600,6.920900634765625,-11.666706085205078,-3.628214120864868,-1.7265344858169556
1761381161653723000,6.937722900390625,-12.998298645019531,-3.3985960483551025,-1.7648582458496094
1761381161670547500,6.95454736328125,-13.400821685791016,-2.3906137943267822,-2.2086164951324463
1761381161687373800,6.971373779296875,-13.235876083374023,-1.1590189933776855,-2.628293991088867
1761381161704202000,6.988201904296875,-9.276663780212402,1.2092289924621582,-1.7796521186828613
1761381161721030700,7.00503076171875,0.38520240783691406,4.363969802856445,1.1552221775054932
1761381161737847300,7.021847412109375,9.41398811340332,5.061983585357666,4.805314540863037
1761381161754682000,7.03868212890625,19.14629364013672,3.6636486053466797,6.903480529785156
1761381161771507000,7.0555068359375,29.876522064208984,0.6216626763343811,7.238428115844727
1761381161788333600,7.07233349609375,42.181495666503906,-1.2607682943344116,5.504726409912109
1761381161805161200,7.0891611328125,45.567317962646484,-1.1835638284683228,-0.6759581565856934
1761381161821987000,7.105987060546875,41.57087707519531,-1.5625885725021362,-4.9151506423950195
1761381161838813700,7.122813720703125,36.242252349853516,-1.168047547340393,-3.9005422592163086
1761381161855640000,7.13964013671875,31.697372436523438,-1.3314425945281982,0.15244841575622559
1761381161872467200,7.15646728515625,26.243568420410156,-0.34287595748901367,3.01535701751709
1761381161889294000,7.173294189453125,19.972949981689453,0.5136340856552124,4.783093452453613
1761381161906119200,7.190119140625,12.150113105773926,1.5521841049194336,5.231302261352539
1761381161922946000,7.206946044921875,4.179917335510254,1.561701774597168,5.587813377380371
1761381161939774200,7.223774169921875,-3.115661144256592,1.384979248046875,4.341791152954102
1761381161956601900,7.240601806640625,-8.61701774597168,-0.019727468490600586,2.691469192504883
1761381161973427500,7.257427490234375,-11.09057331085205,-2.1000616550445557,1.521777629852295
1761381161990252500,7.27425244140625,-11.036346435546875,-3.4771018028259277,0.6101441383361816
1761381162007067000,7.29106689453125,-10.28309154510498,-4.116632461547852,0.3386002779006958
1761381162023894300,7.307894287109375,-9.968098640441895,-4.7658610343933105,0.917320966720581
1761381162040718300,7.32471826171875,-11.379721641540527,-4.724048614501953,0.6299455165863037
1761381162057562600,7.341562744140625,-13.773683547973633,-5.007145881652832,0.21561580896377563
1761381162074385400,7.358385498046875,-15.43006706237793,-5.193206787109375,0.09329836070537567
1761381162091213600,7.375213623046875,-16.783367156982422,-5.386558532714844,0.23527312278747559
1761381162108048600,7.392048583984375,-17.863065719604492,-5.972849369049072,0.7831174731254578
1761381162124866600,7.408866455078125,-17.962308883666992,-6.405009746551514,1.3313285112380981
1761381162141691000,7.42569091796875,-17.26531982421875,-6.535865783691406,1.5536255836486816
1761381162158519300,7.442519287109375,-16.365888595581055,-6.564297199249268,1.3176777362823486
1761381162175346000,7.459345947265625,-15.234482765197754,-6.262200355529785,0.9456400275230408
1761381162192171500,7.476171630859375,-13.863731384277344,-5.753748416900635,0.8001155853271484
1761381162208995800,7.492995849609375,-12.989076614379883,-5.188777923583984,0.828746497631073
1761381162225829000,7.5098291015625,-13.233628273010254,-4.762444496154785,0.8331015110015869
1761381162242654500,7.526654541015625,-13.862736701965332,-4.872056007385254,0.9726352095603943
1761381162259466800,7.543466796875,-13.770723342895508,-4.786181449890137,0.7396473288536072
1761381162276307000,7.560306884765625,-12.914320945739746,-4.496580123901367,0.23349028825759888
1761381162293132300,7.57713232421875,-10.984017372131348,-4.216341018676758,-0.1553230881690979
1761381162309945900,7.59394580078125,-8.613235473632812,-3.3082213401794434,-0.4232023060321808
1761381162326786800,7.610786865234375,-6.374390602111816,-2.458540439605713,-0.8710451722145081
1761381162343602700,7.627602783203125,-3.314758777618408,-0.7567981481552124,-1.625136137008667
1761381162360437200,7.644437255859375,1.9371461868286133,0.280562162399292,-0.8282559514045715
1761381162377263600,7.661263671875,10.352774620056152,2.5034565925598145,-0.10460042953491211
1761381162394091500,7.678091552734375,21.46895980834961,6.200566291809082,1.5049455165863037
1761381162410918400,7.69491845703125,33.69295883178711,6.765340328216553,5.996602535247803
1761381162427744500,7.71174462890625,44.74811553955078,2.302114725112915,9.89163589477539
1761381162444571600,7.728571533203125,50.90105438232422,0.19046556949615479,6.113293170928955
1761381162461396700,7.745396728515625,50.4821662902832,-0.6388195753097534,0.1757218837738037
1761381162478221800,7.762221923828125,44.411285400390625,-0.6853814125061035,-1.6580296754837036
1761381162495052000,7.779052001953125,32.832664489746094,1.3623027801513672,-2.7901611328125
1761381162511875300,7.795875244140625,19.545040130615234,3.554745674133301,-3.58866548538208
1761381162528704800,7.812704833984375,9.055639266967773,4.178454399108887,-2.6992440223693848
1761381162545517600,7.829517578125,2.74373722076416,3.5976412296295166,-1.147958517074585
1761381162562346800,7.8463466796875,-1.9532508850097656,2.3988349437713623,0.06459617614746094
1761381162579181800,7.863181884765625,-7.599555015563965,0.6364389657974243,0.32647013664245605
1761381162631767800,7.915767822265625,-19.072792053222656,-2.280827522277832,-0.6939066648483276
1761381162648592100,7.932592041015625,-19.12796401977539,-2.5098657608032227,-0.38016414642333984
1761381162665419500,7.94941943359375,-18.99468231201172,-2.958796262741089,-0.20008426904678345
1761381162682244000,7.966244140625,-18.688199996948242,-2.79959774017334,-0.4944312572479248
1761381162699080400,7.98308056640625,-18.115402221679688,-2.5892539024353027,-0.8698718547821045
1761381162715898600,7.999898681640625,-17.04334259033203,-2.2784104347229004,-0.9908983707427979
1761381162732727300,8.016727294921875,-15.87267780303955,-2.1862564086914062,-0.4969991445541382
1761381162749551000,8.033551025390626,-14.991317749023438,-2.1512153148651123,0.07852983474731445
1761381162766378000,8.0503779296875,-14.369264602661133,-1.9680094718933105,0.1585787534713745
1761381162783207000,8.06720703125,-13.817144393920898,-1.8908977508544922,-0.026738643646240234
1761381162800031500,8.084031494140625,-13.243663787841797,-1.860304355621338,-0.24052345752716064
1761381162816858400,8.1008583984375,-12.193065643310547,-1.9416358470916748,-0.20309609174728394
1761381162833686500,8.1176865234375,-10.692767143249512,-1.7767765522003174,-0.26186102628707886
1761381162850508300,8.13450830078125,-9.871585845947266,-1.5868887901306152,-0.6567997932434082
1761381162865235000,8.14923486328125,-9.620307922363281,-1.7348079681396484,-1.3540607690811157
1761381162882061000,8.16606103515625,-9.469058990478516,-1.7915613651275635,-1.5662212371826172
1761381162898891300,8.182891357421875,-8.56587028503418,-2.1125783920288086,-1.254378318786621
1761381162915715800,8.1997158203125,-7.227290630340576,-2.0094587802886963,-1.0666037797927856
1761381162932542000,8.2165419921875,-5.943024635314941,-1.1021822690963745,-1.9050462245941162
1761381162949367000,8.233366943359375,-5.904168605804443,0.3018780052661896,-3.2292160987854004
1761381162966195000,8.25019482421875,-5.153839111328125,0.33026331663131714,-3.0764307975769043
1761381162983023400,8.2670234375,-0.6365728378295898,-0.6222007870674133,-1.3799628019332886
1761381162999847000,8.283846923828126,10.519129753112793,-0.2154982089996338,1.773507833480835
1761381163016678100,8.30067822265625,25.233089447021484,0.4564087390899658,6.307066917419434
1761381163033501200,8.317501220703125,29.367515563964844,-1.5718297958374023,11.91759204864502
1761381163050328000,8.334328125,25.662303924560547,-1.7954792976379395,12.702352523803711
1761381163067153000,8.35115283203125,27.098453521728516,0.9531800150871277,10.06985855102539
1761381163083978000,8.36797802734375,34.43358612060547,0.8165298104286194,7.842240333557129
1761381163100806700,8.384806640625,36.651424407958984,0.37246739864349365,3.8801238536834717
1761381163117633000,8.401633056640625,33.814109802246094,1.5252398252487183,1.3407373428344727
1761381163134461000,8.4184609375,29.72612762451172,2.5204367637634277,1.8016057014465332
1761381163151285800,8.43528564453125,24.46867561340332,2.914189338684082,3.148876667022705
1761381163168102100,8.45210205078125,16.412200927734375,4.058917045593262,3.241060256958008
1761381163184940000,8.46893994140625,7.925771713256836,4.414488792419434,1.9896824359893799
1761381163201766100,8.48576611328125,2.058945655822754,4.149321556091309,0.32190513610839844
1761381163218591700,8.502591796875,-2.3711318969726562,3.5114059448242188,-1.0285605192184448
1761381163235420000,8.519419921875,-6.8559112548828125,2.636275053024292,-2.1115617752075195
1761381163252243500,8.536243408203125,-10.652584075927734,1.6871068477630615,-2.434232234954834
1761381163269074000,8.553073974609376,-13.687923431396484,0.9131602048873901,-2.3765785694122314
1761381163285901000,8.569901123046876,-15.144052505493164,0.4652858376502991,-2.1950595378875732
1761381163302727000,8.586726806640625,-14.980831146240234,0.38509219884872437,-2.1458027362823486
1761381163319549400,8.603549560546876,-14.001667022705078,0.23570597171783447,-2.228224277496338
1761381163336381000,8.620380859375,-12.582256317138672,0.06689494848251343,-2.245330810546875
1761381163353206300,8.637206298828126,-11.376445770263672,-0.27828067541122437,-2.3116095066070557
1761381163370033400,8.654033447265626,-10.680399894714355,-0.41309839487075806,-2.5773043632507324
1761381163386859300,8.670859375,-10.993311882019043,-0.6292202472686768,-2.9712095260620117
1761381163403673000,8.687673095703126,-11.531304359436035,-0.7128885984420776,-3.4076695442199707
1761381163420510500,8.704510498046876,-11.802687644958496,-0.5927865505218506,-3.5651931762695312
1761381163437337300,8.72133740234375,-12.127902030944824,-0.7957975268363953,-3.1030325889587402
1761381163454165500,8.73816552734375,-11.910673141479492,-0.9420902729034424,-2.472926616668701
1761381163470991600,8.75499169921875,-11.714286804199219,-0.9281718134880066,-2.14626407623291
1761381163487817200,8.771817138671874,-11.527291297912598,-0.6551820635795593,-2.1550540924072266
1761381163504644900,8.788644775390624,-11.39697265625,-0.35922354459762573,-2.2003188133239746
1761381163521470500,8.805470458984376,-11.079172134399414,-0.22666753828525543,-2.239593029022217
1761381163538295300,8.82229541015625,-10.568471908569336,-0.159551739692688,-2.207498073577881
1761381163555126000,8.8391259765625,-9.917421340942383,-0.14820252358913422,-2.1096081733703613
1761381163571947500,8.855947509765626,-9.092321395874023,-0.15062233805656433,-2.144287347793579
1761381163588776400,8.8727763671875,-8.084868431091309,-0.1459851861000061,-2.271044969558716
1761381163605591600,8.889591552734375,-7.058815002441406,-0.1427253782749176,-2.2680864334106445
1761381163622427000,8.906427001953125,-6.1989312171936035,-0.11751367151737213,-2.1050877571105957
1761381163639256600,8.923256591796875,-4.5826520919799805,0.04642011225223541,-2.2944436073303223
1761381163656084000,8.940083984375,-0.9711132049560547,0.8385956287384033,-2.9751601219177246
1761381163672910600,8.95691064453125,4.648129463195801,1.5872948169708252,-2.820665121078491
1761381163689736400,8.973736328125,12.418438911437988,2.4164113998413086,-0.16071927547454834
1761381163706550500,8.990550537109375,19.795166015625,2.2551915645599365,2.872980833053589
1761381163723390500,9.007390380859375,25.038246154785156,0.0699014663696289,4.379907608032227
1761381163740215600,9.024215576171875,30.00725555419922,-0.07098251581192017,3.7739672660827637
1761381163757042000,9.0410419921875,35.085079193115234,-0.7787438035011292,3.2911970615386963
1761381163773870300,9.057870361328124,35.42633056640625,-0.7026169300079346,0.2722480297088623
1761381163790695700,9.07469580078125,29.928421020507812,1.0432469844818115,-2.8615832328796387
1761381163807524400,9.0915244140625,22.699554443359375,2.7105398178100586,-3.29422664642334
1761381163824349700,9.108349609375,15.499197959899902,4.24568510055542,-1.8242506980895996
1761381163841175000,9.125175048828124,8.311012268066406,5.018043518066406,0.428519606590271
1761381163858001000,9.1420009765625,2.459885597229004,4.970983505249023,1.7031800746917725
1761381163874831400,9.158831298828124,-1.7278971672058105,3.8054351806640625,1.3597103357315063
1761381163891656400,9.175656494140625,-3.7737913131713867,2.8815369606018066,-0.09520673751831055
1761381163908481300,9.192481201171875,-4.842987537384033,1.6821311712265015,-0.9345291256904602
1761381163925309000,9.209308837890624,-6.259768962860107,0.508023738861084,-0.9913514256477356
1761381163942125000,9.226125,-7.557620525360107,-0.0075979530811309814,-0.6586838960647583
1761381163958951700,9.24295166015625,-9.45599365234375,-0.6526035666465759,-0.18624013662338257
1761381163975788800,9.259788818359375,-11.682757377624512,-0.9241340160369873,-0.18473345041275024
1761381163992620500,9.27662060546875,-13.785114288330078,-1.3605161905288696,-0.5958995819091797
1761381164009440800,9.293440673828124,-14.22719669342041,-1.719699501991272,-0.8720524907112122
1761381164026255400,9.31025537109375,-13.362595558166504,-2.0118319988250732,-0.8937497735023499
1761381164043096600,9.3270966796875,-12.451248168945312,-2.3313775062561035,-0.9881280660629272
1761381164059936300,9.343936279296875,-11.905695915222168,-2.615084409713745,-1.0136606693267822
1761381164076747300,9.360747314453125,-11.471185684204102,-2.707533359527588,-1.1104023456573486
1761381164093564700,9.377564697265624,-11.240863800048828,-2.5904712677001953,-1.2664756774902344
1761381164110400300,9.394400146484376,-11.144974708557129,-2.3810999393463135,-1.521573543548584
1761381164127225900,9.411225830078125,-11.102685928344727,-2.1527767181396484,-1.6554102897644043
1761381164144054300,9.42805419921875,-10.654788970947266,-1.9439164400100708,-1.547222375869751
1761381164160880000,9.444880126953125,-10.437173843383789,-1.8970366716384888,-1.035423755645752
1761381164177703200,9.461703125,-9.870185852050781,-2.0088512897491455,-0.5296862125396729
1761381164194534000,9.478533935546874,-9.25725269317627,-1.666885495185852,-0.8402187824249268
1761381164211359200,9.495359130859375,-9.238855361938477,-1.9112122058868408,-1.0702612400054932
1761381164228187000,9.512186767578125,-9.728114128112793,-1.8896862268447876,-1.0732903480529785
1761381164245000200,9.529000244140626,-8.10871696472168,-1.7440115213394165,-1.249419927597046
1761381164261827600,9.54582763671875,-6.436492443084717,-0.640060544013977,-1.3141601085662842
1761381164278666800,9.562666748046874,-5.2993855476379395,0.3542306423187256,-1.649787187576294
1761381164295494700,9.57949462890625,-2.0965166091918945,1.2279417514801025,-2.574467182159424
1761381164312324600,9.59632470703125,3.2480688095092773,1.789341688156128,-2.4985177516937256
1761381164329145300,9.613145263671875,10.312771797180176,1.136111855506897,-0.026734471321105957
1761381164345977300,9.629977294921876,14.371569633483887,-1.6968863010406494,3.7479684352874756
1761381164362799400,9.64679931640625,16.010086059570312,-0.61211097240448,3.0993409156799316
1761381164406967800,9.6909677734375,22.152557373046875,-6.358973979949951,1.2215715646743774
1761381164423794400,9.70779443359375,23.54706573486328,-5.800787925720215,1.1515425443649292
1761381164440619500,9.72461962890625,24.319034576416016,-4.56008243560791,-0.35832512378692627
1761381164457448000,9.741447998046874,23.85718536376953,0.11098575592041016,-2.934715509414673
1761381164474272800,9.758272705078125,19.498146057128906,-0.08739328384399414,-2.633254051208496
1761381164491100400,9.775100341796875,13.513368606567383,0.4607880115509033,-1.9126615524291992
1761381164507927600,9.791927490234375,7.518216133117676,0.35656142234802246,-1.8167529106140137
1761381164524769500,9.80876953125,3.610750198364258,0.6341050863265991,-2.574709415435791
1761381164541575700,9.82557568359375,0.9470729827880859,0.06054341793060303,-4.2383928298950195
1761381164558410500,9.842410400390625,0.43029212951660156,0.4187537431716919,-5.615771770477295
1761381164575233500,9.859233642578126,0.2800445556640625,0.7591788172721863,-5.716270923614502
1761381164592051700,9.8760517578125,-0.05349445343017578,0.12997615337371826,-4.220698833465576
1761381164608886000,9.892885986328125,-0.9390850067138672,-0.1287175416946411,-2.5244803428649902
1761381164625701000,9.909701171875,-2.655302047729492,-0.6611720323562622,-2.0308785438537598
1761381164642538800,9.926538818359376,-4.507542610168457,-0.5936166644096375,-2.9828085899353027
1761381164659345000,9.943344970703125,-6.665853023529053,-0.5292541980743408,-3.9472529888153076
1761381164676192500,9.960192626953125,-8.55517578125,-0.5603070855140686,-3.9697227478027344
1761381164693020000,9.97702001953125,-9.412900924682617,-1.2088639736175537,-3.361914873123169
1761381164709844000,9.993843994140626,-7.529054641723633,-1.5323553085327148,-2.854227066040039
1761381164726674400,10.01067431640625,-7.419430732727051,-1.185020089149475,-2.906587839126587
1761381164743499500,10.02749951171875,-8.721977233886719,-1.5317890644073486,-1.7321680784225464
1761381164760327200,10.0443271484375,-9.172918319702148,-1.2926149368286133,-0.9671880602836609
1761381164777151000,10.06115087890625,-8.851552963256836,-0.5639243125915527,-1.3090943098068237
1761381164793980200,10.077980224609375,-8.8384428024292,-0.23008358478546143,-1.2451751232147217
1761381164810805000,10.094804931640626,-7.867338180541992,0.06305718421936035,-0.8443436622619629
