time,seconds_elapsed,z,y,x
1761417452186580700,0.197580810546875,-1.0287904739379883,-0.8165574073791504,0.36390194296836853
1761417452203402800,0.21440283203125,-1.5624513626098633,-1.2985241413116455,0.3136880397796631
1761417452220227800,0.231227783203125,-0.982696533203125,-0.9728562831878662,1.1408740282058716
1761417452237052700,0.248052734375,0.023149490356445312,-0.0744485855102539,1.0902724266052246
1761417452253878000,0.2648779296875,0.3611259460449219,0.5475890636444092,0.6363561153411865
1761417452270702800,0.281702880859375,-0.13786888122558594,0.7659375667572021,0.7108769416809082
1761417452287545000,0.298545166015625,-0.9364376068115234,0.7635321617126465,0.5047986507415771
1761417452304363000,0.315363037109375,-1.1330814361572266,0.6082007884979248,-0.49012094736099243
1761417452321192000,0.33219189453125,-1.999354362487793,1.5061283111572266,-2.7075729370117188
1761417452338016500,0.3490166015625,-2.041073799133301,1.4214682579040527,-2.2951974868774414
1761417452354808800,0.365808837890625,-1.119959831237793,-0.7701239585876465,0.8234694600105286
1761417452371643600,0.3826435546875,0.15608501434326172,-1.0652028322219849,2.6273796558380127
1761417452388475000,0.399474853515625,0.5277795791625977,-0.6640326976776123,2.462470293045044
1761417452405306400,0.416306396484375,0.444610595703125,-0.3616640567779541,1.536656379699707
1761417452422127900,0.4331279296875,-0.040474891662597656,-1.149045467376709,0.1724153757095337
1761417452438950000,0.449949951171875,-0.524993896484375,-0.7965197563171387,-0.10824179649353027
1761417452455798500,0.466798583984375,-0.95465087890625,-0.4826395511627197,-0.6857014298439026
1761417452472608500,0.4836083984375,-2.019502639770508,-0.7667739391326904,-0.9526940584182739
1761417452489447000,0.500447021484375,-2.8134560585021973,-0.5942862033843994,-1.151343584060669
1761417452506271000,0.51727099609375,-2.2671375274658203,-0.16459310054779053,-1.5310472249984741
1761417452523092000,0.534092041015625,-2.5748910903930664,-0.30649781227111816,-1.8949559926986694
1761417452539913700,0.550913818359375,-3.5157270431518555,-0.3446919918060303,-2.408985137939453
1761417452556733700,0.567733642578125,-3.65878963470459,-0.3144493103027344,-2.5150575637817383
1761417452573567200,0.584567138671875,-3.92136287689209,-0.13479375839233398,-2.482060432434082
1761417452590392600,0.601392578125,-4.882109642028809,-0.23299741744995117,-2.641981840133667
1761417452607200300,0.6182001953125,-5.524735450744629,-0.1800612211227417,-2.8577449321746826
1761417452624029000,0.63502880859375,-5.273614883422852,-0.05586814880371094,-3.5384933948516846
1761417452640853500,0.651853515625,-4.682948589324951,0.09659075736999512,-3.4942238330841064
1761417452657678800,0.668678955078125,-3.774394989013672,0.3616753816604614,-2.821226119995117
1761417452674504000,0.68550390625,-2.186000347137451,0.5497757196426392,-1.389127254486084
1761417452691315700,0.702315673828125,-0.09292984008789062,0.5637514591217041,0.8820755481719971
1761417452708170500,0.71917041015625,3.3975305557250977,1.4873127937316895,0.7786571979522705
1761417452724988400,0.735988525390625,5.840353965759277,2.86590838432312,0.5919568538665771
1761417452741821700,0.75282177734375,9.160956382751465,3.944941997528076,-0.8033368587493896
1761417452758642700,0.769642578125,12.564729690551758,4.048469543457031,-0.6204609870910645
1761417452775467500,0.786467529296875,19.012065887451172,4.096699237823486,0.9698667526245117
1761417452792295000,0.803294921875,26.373477935791016,3.4065139293670654,3.8578734397888184
1761417452809098800,0.8200986328125,31.375133514404297,1.8516197204589844,6.455759525299072
1761417452825938000,0.83693798828125,30.895071029663086,0.9842307567596436,8.359808921813965
1761417452842762200,0.85376220703125,24.90349578857422,1.4967929124832153,8.82087516784668
1761417452859581000,0.870580810546875,17.39156723022461,2.657989501953125,7.589186668395996
1761417452876404500,0.887404541015625,10.758334159851074,3.5265450477600098,5.4845428466796875
1761417452893229300,0.904229248046875,5.800257682800293,3.735257625579834,3.254162549972534
1761417452910036000,0.921035888671875,2.262584686279297,2.704392194747925,1.8745801448822021
1761417452926879000,0.93787890625,-0.8387918472290039,0.4690887928009033,1.128849983215332
1761417452943711000,0.9547109375,-3.5120673179626465,-1.768570899963379,0.28883469104766846
1761417452960550000,0.9715498046875,-6.21138334274292,-4.099357604980469,-0.21500897407531738
1761417452977350400,0.988350341796875,-8.364900588989258,-6.638511657714844,-0.3952227830886841
1761417452994193400,1.005193359375,-9.554366111755371,-8.353067398071289,-1.0177282094955444
1761417453011002600,1.022002685546875,-11.262712478637695,-9.313697814941406,-2.054670810699463
1761417453027843600,1.038843505859375,-13.382540702819824,-10.28165054321289,-3.080784559249878
1761417453044647700,1.055647705078125,-14.909385681152344,-10.89071273803711,-3.75461483001709
1761417453061476900,1.072476806640625,-15.210665702819824,-10.870615005493164,-3.9201250076293945
1761417453078323000,1.089322998046875,-14.318842887878418,-10.636828422546387,-3.5715177059173584
1761417453095126300,1.106126220703125,-13.033586502075195,-10.292217254638672,-3.2567358016967773
1761417453111954700,1.12295458984375,-11.989748001098633,-9.911713600158691,-3.1387298107147217
1761417453128775200,1.139775146484375,-11.053813934326172,-9.57279109954834,-2.714059352874756
1761417453145604600,1.1566044921875,-10.405632972717285,-8.718979835510254,-3.152583599090576
1761417453162429700,1.1734296875,-9.94348430633545,-8.066452026367188,-3.512234926223755
1761417453179254800,1.1902548828125,-9.646600723266602,-7.655170440673828,-3.6147303581237793
1761417453196093000,1.207093017578125,-9.193938255310059,-7.0029706954956055,-3.7224321365356445
1761417453212922600,1.223922607421875,-8.618041038513184,-6.5883564949035645,-3.6107943058013916
1761417453229746400,1.240746337890625,-8.077054977416992,-6.156174182891846,-3.2135682106018066
1761417453250757600,1.261757568359375,-5.65976619720459,-4.806623458862305,-2.164301633834839
1761417453267586800,1.2785869140625,-4.436439514160156,-4.127711772918701,-1.3576598167419434
1761417453284413000,1.295412841796875,-1.942887306213379,-2.835686683654785,-0.5307731628417969
1761417453301236700,1.31223681640625,1.782257080078125,-1.1659150123596191,-0.0390474796295166
1761417453318063000,1.32906298828125,5.836252212524414,0.6554021835327148,0.4967069625854492
1761417453334887400,1.345887451171875,10.598710060119629,3.445312976837158,1.2912559509277344
1761417453351712800,1.362712646484375,18.500411987304688,9.568540573120117,0.9485938549041748
1761417453368526800,1.37952685546875,28.372264862060547,12.499372482299805,5.291536331176758
1761417453385360100,1.396360107421875,34.66342544555664,13.80063533782959,14.837442398071289
1761417453402189600,1.413189453125,32.17761993408203,14.342225074768066,22.53765296936035
1761417453419012600,1.4300126953125,22.20222282409668,14.42287540435791,20.528274536132812
1761417453435834600,1.446834716796875,16.413997650146484,13.828507423400879,12.170539855957031
1761417453452674000,1.463674072265625,15.415210723876953,12.444968223571777,5.758747100830078
1761417453469497600,1.48049755859375,14.277639389038086,10.837465286254883,2.10929012298584
1761417453486330400,1.497330322265625,10.74445915222168,8.303606986999512,0.5049784183502197
1761417453503148800,1.514148681640625,6.52001953125,5.264287948608398,0.5463130474090576
1761417453519972400,1.530972412109375,2.240835189819336,1.9099321365356445,1.6461994647979736
1761417453536805600,1.5478056640625,-2.081686019897461,-1.2786526679992676,2.6850099563598633
1761417453553620700,1.564620849609375,-6.176642417907715,-3.907803535461426,2.63065767288208
1761417453570425600,1.581425537109375,-9.533960342407227,-6.2485761642456055,2.097149133682251
1761417453587266000,1.59826611328125,-11.685914993286133,-8.062517166137695,1.2791138887405396
1761417453604087800,1.615087890625,-12.898853302001953,-8.979116439819336,0.20143979787826538
1761417453620898000,1.63189794921875,-12.743040084838867,-9.272584915161133,-0.3653668463230133
1761417453637726000,1.648725830078125,-11.843687057495117,-9.448707580566406,-0.4835921823978424
1761417453654550000,1.665550048828125,-10.820854187011719,-9.740540504455566,-0.12665918469429016
1761417453671377700,1.682377685546875,-10.26321029663086,-10.374030113220215,0.3497937023639679
1761417453688199000,1.699198974609375,-9.966780662536621,-10.569744110107422,0.17993029952049255
1761417453705026800,1.71602685546875,-10.103296279907227,-10.61311149597168,-0.5076571702957153
1761417453721850000,1.73285009765625,-10.44000244140625,-10.622377395629883,-1.248534917831421
1761417453738674400,1.74967431640625,-10.405162811279297,-10.413501739501953,-1.7750904560089111
1761417453755500500,1.76650048828125,-9.905964851379395,-10.157340049743652,-1.7284674644470215
1761417453772325400,1.783325439453125,-9.395848274230957,-9.77026081085205,-1.505204677581787
1761417453789151200,1.800151123046875,-9.146993637084961,-9.578850746154785,-1.12917160987854
1761417453805976000,1.81697607421875,-9.150364875793457,-9.423751831054688,-0.7629372477531433
1761417453822800100,1.833800048828125,-8.964794158935547,-9.480966567993164,-0.3120982050895691
1761417453839638800,1.850638671875,-8.743332862854004,-9.460882186889648,0.17307792603969574
1761417453856466200,1.867466064453125,-8.404265403747559,-9.156801223754883,0.7313699722290039
1761417453873288400,1.884288330078125,-7.445380210876465,-8.495119094848633,0.7849242687225342
1761417453890113500,1.901113525390625,-5.0202412605285645,-6.544864177703857,0.6286699771881104
1761417453906937000,1.91793701171875,-1.1190757751464844,-2.960448741912842,-0.1984926462173462
1761417453923765000,1.934764892578125,4.62238073348999,0.9608197212219238,-1.1559760570526123
1761417453940600600,1.9516005859375,11.226318359375,5.098939895629883,-0.9171370267868042
1761417453957432600,1.9684326171875,18.13039779663086,8.242583274841309,2.4601263999938965
1761417453974252300,1.985252197265625,22.055681228637695,11.781998634338379,5.998782157897949
1761417453991061200,2.002061279296875,27.433338165283203,15.279664039611816,10.018774032592773
1761417454007902700,2.01890283203125,34.98877716064453,13.259020805358887,13.291318893432617
1761417454024724000,2.035723876953125,39.78913879394531,10.915919303894043,7.121532917022705
1761417454041556200,2.05255615234375,36.90918731689453,10.935331344604492,-1.3983755111694336
1761417454058345000,2.069344970703125,29.880870819091797,10.53171157836914,-3.0879063606262207
1761417454075186200,2.086186279296875,19.85405731201172,9.293275833129883,-2.8824338912963867
1761417454092024300,2.1030244140625,9.563149452209473,7.2469024658203125,-1.4625025987625122
1761417454108825900,2.119825927734375,1.4490060806274414,4.030291557312012,1.2613674402236938
1761417454125663700,2.136663818359375,-4.117959022521973,0.6657438278198242,2.585008144378662
1761417454142486300,2.153486328125,-7.3799543380737305,-2.5808753967285156,2.622105360031128
1761417454159316700,2.170316650390625,-9.389925003051758,-5.360263824462891,1.779968023300171
1761417454176126000,2.1871259765625,-10.663358688354492,-7.574212551116943,0.6641886234283447
1761417454192967700,2.2039677734375,-12.210125923156738,-9.246448516845703,-0.3855060338973999
1761417454209786000,2.2207861328125,-13.004480361938477,-10.23310661315918,-1.214106798171997
1761417454226624500,2.23762451171875,-12.866345405578613,-10.589605331420898,-1.5762951374053955
1761417454243456500,2.25445654296875,-12.634881973266602,-11.036099433898926,-1.2880855798721313
1761417454260244500,2.271244384765625,-12.999154090881348,-11.62545394897461,-1.0256266593933105
1761417454277076200,2.288076171875,-13.320514678955078,-11.744197845458984,-1.4436436891555786
1761417454293903600,2.304903564453125,-13.503030776977539,-11.42576789855957,-2.2553131580352783
1761417454310739500,2.321739501953125,-13.197014808654785,-11.177385330200195,-2.798403024673462
1761417454327565300,2.3385654296875,-12.617654800415039,-10.774633407592773,-3.2340147495269775
1761417454344384500,2.355384521484375,-11.83029556274414,-10.362138748168945,-3.283064126968384
1761417454361219000,2.372218994140625,-10.775476455688477,-9.732165336608887,-3.2643778324127197
1761417454378039300,2.389039306640625,-9.890951156616211,-8.966812133789062,-3.1078333854675293
1761417454394864600,2.40586474609375,-9.537717819213867,-8.416580200195312,-2.9473962783813477
1761417454411700500,2.422700439453125,-9.539329528808594,-7.840601921081543,-2.992506742477417
1761417454428527600,2.439527587890625,-9.722030639648438,-6.941756725311279,-3.1018497943878174
1761417454445357600,2.456357666015625,-9.661840438842773,-6.136071681976318,-2.510639190673828
1761417454462157600,2.473157470703125,-8.10556697845459,-4.691450119018555,-1.4688622951507568
1761417454479005700,2.490005615234375,-5.014266014099121,-1.9851775169372559,-0.7846846580505371
1761417454495830000,2.506830078125,-0.5480108261108398,1.2971630096435547,-0.10291790962219238
1761417454512654800,2.52365478515625,4.709748268127441,6.018681526184082,-1.2759610414505005
1761417454529478700,2.540478759765625,13.077595710754395,13.173232078552246,-2.9538698196411133
1761417454546303200,2.55730322265625,27.35313606262207,18.87293815612793,1.6060965061187744
1761417454563128600,2.574128662109375,42.181800842285156,19.685277938842773,8.520706176757812
1761417454579947000,2.590947021484375,49.952491760253906,17.47604751586914,13.428817749023438
1761417454596753200,2.607753173828125,51.58821105957031,13.899404525756836,14.71079158782959
1761417454613591600,2.624591552734375,45.92896270751953,8.976367950439453,11.136573791503906
1761417454630396000,2.64139599609375,32.919403076171875,5.605504035949707,4.4885125160217285
1761417454647239700,2.65823974609375,19.19247055053711,3.7739524841308594,0.3805193305015564
1761417454664065000,2.67506494140625,8.540367126464844,2.3740904331207275,-0.979838490486145
1761417454680889900,2.691889892578125,1.2785959243774414,-0.2983970642089844,0.616317629814148
1761417454697732400,2.708732421875,-3.564075469970703,-4.335039138793945,3.782405138015747
1761417454714537000,2.725536865234375,-7.561446189880371,-8.383196830749512,6.099133491516113
1761417454731373600,2.74237353515625,-10.700027465820312,-11.133881568908691,6.5828857421875
1761417454748202000,2.759201904296875,-11.746509552001953,-11.705085754394531,4.871347904205322
1761417454794457600,2.80545751953125,-15.823407173156738,-13.288619995117188,1.4920527935028076
1761417454811271000,2.82227099609375,-15.777172088623047,-13.189468383789062,1.224815011024475
1761417454828108300,2.8391083984375,-15.20747184753418,-13.034734725952148,1.1720384359359741
1761417454844926000,2.855926025390625,-14.561768531799316,-12.922969818115234,1.3617773056030273
1761417454861761500,2.872761474609375,-13.62259292602539,-12.338624000549316,1.2431048154830933
1761417454878583000,2.8895830078125,-12.632407188415527,-11.51576042175293,0.9356355667114258
1761417454895408000,2.906408203125,-11.763396263122559,-10.696050643920898,0.6412439346313477
1761417454912236800,2.92323681640625,-10.978858947753906,-9.973405838012695,0.370656818151474
1761417454929064000,2.94006396484375,-10.255330085754395,-9.270499229431152,0.07908344268798828
1761417454945894700,2.956894775390625,-9.705487251281738,-8.636507034301758,-0.13376876711845398
1761417454962709000,2.973708984375,-9.198314666748047,-8.067209243774414,-0.0137881338596344
1761417454979547000,2.990546875,-8.881159782409668,-7.538077354431152,0.21722620725631714
1761417454996368000,3.007367919921875,-8.770696640014648,-7.091484069824219,0.45706966519355774
1761417455013201400,3.024201416015625,-8.738411903381348,-6.7666778564453125,0.5493814945220947
1761417455030020400,3.041020263671875,-8.381900787353516,-6.330959320068359,0.5016494393348694
1761417455051056000,3.06205615234375,-5.202144622802734,-4.754046440124512,0.9489014744758606
1761417455067874800,3.078874755859375,-2.5782575607299805,-3.583057403564453,1.6224644184112549
1761417455084683800,3.095683837890625,1.940556526184082,-1.8879613876342773,1.6265501976013184
1761417455101520000,3.112519775390625,7.555876731872559,0.8570256233215332,1.0569179058074951
1761417455118340400,3.12934033203125,14.852972984313965,4.591147422790527,1.6967047452926636
1761417455135165700,3.146165771484375,24.72225570678711,8.846627235412598,3.6895596981048584
1761417455151990800,3.16299072265625,36.038604736328125,11.03664493560791,7.621500015258789
1761417455168808400,3.179808349609375,46.39641571044922,12.811728477478027,14.384679794311523
1761417455185630700,3.196630615234375,48.070072174072266,11.95018196105957,18.581281661987305
1761417455202475500,3.2134755859375,40.10552978515625,10.978713989257812,9.823808670043945
1761417455219311600,3.2303115234375,29.07274055480957,10.738533020019531,0.008733391761779785
1761417455236129800,3.2471298828125,21.354427337646484,10.672252655029297,-3.7067227363586426
1761417455252945200,3.263945068359375,13.45997142791748,9.059652328491211,-4.331389904022217
1761417455269773300,3.280773193359375,6.308102607727051,6.1266374588012695,-3.2620110511779785
1761417455286577000,3.297576904296875,0.20657062530517578,2.1500723361968994,-0.17134976387023926
1761417455303404300,3.314404296875,-5.495064735412598,-1.6474511623382568,2.194561719894409
1761417455320248000,3.331248046875,-10.045860290527344,-4.607266426086426,2.8247365951538086
1761417455337066000,3.34806591796875,-12.215386390686035,-6.800905704498291,2.523198366165161
1761417455353894100,3.36489404296875,-12.500971794128418,-8.033699035644531,1.8943126201629639
1761417455370716200,3.381716064453125,-12.661184310913086,-8.975894927978516,1.4843738079071045
1761417455387541000,3.398541015625,-12.981441497802734,-9.203826904296875,1.0084997415542603
1761417455404369400,3.415369384765625,-13.29202651977539,-9.230295181274414,0.7639963030815125
1761417455421188400,3.432188232421875,-13.591989517211914,-9.204256057739258,0.5943037271499634
1761417455438030000,3.449030029296875,-14.01469612121582,-9.043362617492676,0.3656754195690155
1761417455454855000,3.46585498046875,-14.245674133300781,-8.841819763183594,0.2087993025779724
1761417455471688000,3.48268798828125,-14.065068244934082,-8.699430465698242,0.18440848588943481
1761417455488526600,3.499526611328125,-13.595113754272461,-8.54610538482666,0.2423114776611328
1761417455505330700,3.51633056640625,-13.180246353149414,-8.379793167114258,0.17307615280151367
1761417455522138000,3.53313818359375,-12.556693077087402,-8.14962100982666,0.044699132442474365
1761417455538980000,3.54997998046875,-11.731985092163086,-7.730694770812988,-0.15807831287384033
1761417455555805000,3.566804931640625,-10.886984825134277,-7.375697135925293,-0.23884424567222595
1761417455572617000,3.583616943359375,-10.185876846313477,-7.025928497314453,-0.1420569121837616
1761417455589414100,3.6004140625,-10.016971588134766,-6.608926773071289,-0.35515058040618896
1761417455606261000,3.617260986328125,-10.18424129486084,-6.064356803894043,-0.9026191830635071
1761417455623091500,3.634091552734375,-10.479901313781738,-5.57905387878418,-1.2674622535705566
1761417455639900400,3.650900390625,-10.39356803894043,-5.118891716003418,-1.3162338733673096
1761417455656729600,3.6677294921875,-9.667929649353027,-4.453592777252197,-1.3551075458526611
1761417455673560600,3.684560546875,-8.201016426086426,-3.283781051635742,-1.4389023780822754
1761417455690383600,3.701383544921875,-6.10202693939209,-1.8353681564331055,-1.087791919708252
1761417455707204400,3.718204345703125,-1.880197525024414,0.976809024810791,-1.9355117082595825
1761417455724041500,3.73504150390625,6.804783821105957,6.000794887542725,-2.459139347076416
1761417455740853800,3.751853759765625,21.484100341796875,9.779667854309082,2.9633491039276123
1761417455757680000,3.76868017578125,35.48906326293945,11.033992767333984,10.319559097290039
1761417455774503700,3.785503662109375,40.02989959716797,11.684185028076172,15.235641479492188
1761417455791329000,3.8023291015625,40.43889617919922,14.20149040222168,16.96280288696289
1761417455808155000,3.81915478515625,39.762123107910156,13.621390342712402,15.30017375946045
1761417455824979700,3.835979736328125,34.75711441040039,12.024877548217773,8.91658878326416
1761417455841806000,3.85280615234375,27.682823181152344,11.11612606048584,4.447168350219727
1761417455858644500,3.86964453125,19.32207679748535,10.160003662109375,2.50571346282959
1761417455875467300,3.88646728515625,10.866569519042969,8.262126922607422,1.7781654596328735
1761417455892292000,3.9032919921875,3.4906234741210938,5.475924491882324,1.738848090171814
1761417455909103900,3.920103759765625,-2.5248022079467773,1.7319602966308594,2.6309733390808105
1761417455925942000,3.93694189453125,-7.626082897186279,-2.0816400051116943,3.229942560195923
1761417455942766800,3.953766845703125,-11.676982879638672,-5.006494998931885,2.9869794845581055
1761417455959609000,3.970609130859375,-14.783280372619629,-6.760851860046387,2.0342700481414795
1761417455976430600,3.9874306640625,-16.20555877685547,-8.637004852294922,1.5752811431884766
1761417455993256000,4.004255859375,-16.146156311035156,-9.969095230102539,1.1849133968353271
1761417456010081300,4.021081298828125,-15.82461166381836,-10.451900482177734,0.9254819750785828
1761417456026903600,4.037903564453125,-15.620939254760742,-10.45411491394043,1.1601669788360596
1761417456043727600,4.0547275390625,-15.924917221069336,-10.168922424316406,0.9845200181007385
1761417456060557000,4.07155712890625,-16.42401885986328,-9.691150665283203,0.49233031272888184
1761417456077385000,4.088385009765625,-16.19756317138672,-9.234150886535645,0.3353632092475891
1761417456094175700,4.10517578125,-14.960306167602539,-8.714802742004395,0.34030503034591675
1761417456111017200,4.122017333984375,-13.468670845031738,-8.106114387512207,0.30250608921051025
1761417456127842300,4.13884228515625,-12.401483535766602,-7.6115570068359375,0.32484662532806396
1761417456144669000,4.1556689453125,-11.854646682739258,-7.149274826049805,0.46883463859558105
1761417456161490400,4.172490478515625,-11.43358039855957,-6.799288749694824,0.7278841733932495
1761417456178317000,4.189317138671875,-10.847183227539062,-6.704562187194824,1.1411046981811523
1761417456195159300,4.2061591796875,-10.11490249633789,-6.8979387283325195,1.431726098060608
1761417456211981300,4.222981201171875,-9.043384552001953,-7.133244514465332,1.6841113567352295
1761417456228777700,4.23977783203125,-7.3887715339660645,-7.415252685546875,1.9340332746505737
1761417456245614600,4.256614501953125,-5.2837653160095215,-6.976688385009766,1.774901270866394
1761417456262456000,4.2734560546875,-3.2212867736816406,-5.825309753417969,1.2247636318206787
1761417456279274200,4.290274169921875,-0.3301429748535156,-4.3194427490234375,0.8017737865447998
1761417456296096300,4.30709619140625,4.240725517272949,-3.776700973510742,2.257502317428589
1761417456312904400,4.323904541015625,10.269909858703613,-2.1032588481903076,3.4435482025146484
1761417456329742600,4.34074267578125,17.444049835205078,-0.22435617446899414,5.654851913452148
1761417456346567700,4.357567626953125,24.860797882080078,0.039032936096191406,9.828572273254395
1761417456363392500,4.374392578125,33.24851989746094,1.7970952987670898,13.630558013916016
1761417456380217600,4.391217529296875,40.12062072753906,5.671782970428467,15.08897590637207
1761417456397059600,4.4080595703125,42.482582092285156,6.442442417144775,16.056310653686523
1761417456413873400,4.424873291015625,35.46532440185547,7.164248466491699,11.563802719116211
1761417456430699800,4.44169970703125,24.154541015625,8.537053108215332,4.901827812194824
1761417456447529200,4.458529296875,15.408164024353027,9.403921127319336,1.0725817680358887
1761417456464361000,4.47536083984375,9.438957214355469,9.494882583618164,-0.23708510398864746
1761417456481164800,4.492164794921875,5.009601593017578,8.5978364944458,-1.0039196014404297
1761417456497984300,4.508984375,1.367833137512207,6.4413580894470215,-0.9734066724777222
1761417456514815000,4.52581494140625,-2.150175094604492,3.6996397972106934,-0.6946406364440918
1761417456531643400,4.542643310546875,-5.221996784210205,1.4198247194290161,-0.7829779386520386
1761417456548484400,4.559484375,-7.4140777587890625,-0.2738187313079834,-1.5076805353164673
1761417456594735400,4.6057353515625,-8.807199478149414,-3.7519736289978027,-3.568467617034912
1761417456611561000,4.62256103515625,-8.356379508972168,-4.627671241760254,-3.912281036376953
1761417456628385300,4.63938525390625,-8.287736892700195,-5.310294151306152,-4.258464813232422
1761417456645210600,4.656210693359375,-9.034578323364258,-5.866771697998047,-4.382152557373047
1761417456662035200,4.67303515625,-10.749444007873535,-6.528210639953613,-4.083592414855957
1761417456678864100,4.689864013671875,-13.07033634185791,-7.185633659362793,-3.823239326477051
1761417456695699000,4.706698974609375,-15.483683586120605,-7.669781684875488,-4.054142475128174
1761417456712518700,4.7235185546875,-16.87116241455078,-7.88215446472168,-4.389949321746826
1761417456729332700,4.740332763671875,-16.753862380981445,-7.866539478302002,-4.543164253234863
1761417456746178800,4.7571787109375,-15.02335262298584,-7.538707733154297,-4.329168319702148
1761417456762996500,4.77399658203125,-12.981346130371094,-7.135997772216797,-3.715188980102539
1761417456779827200,4.7908271484375,-11.404603958129883,-6.49233341217041,-3.121800422668457
1761417456796632000,4.807632080078125,-10.519179344177246,-5.985788822174072,-2.5436103343963623
1761417456813461000,4.8244609375,-10.302682876586914,-5.668752670288086,-1.8493125438690186
1761417456830285600,4.84128564453125,-10.751886367797852,-5.4555535316467285,-1.0104775428771973
1761417456847107800,4.85810791015625,-10.67383861541748,-5.248933792114258,-0.11025333404541016
1761417456863935500,4.874935546875,-9.976343154907227,-4.393274307250977,0.446724534034729
1761417456880743200,4.8917431640625,-8.662705421447754,-2.768280506134033,0.34730780124664307
1761417456897626600,4.908626708984375,-6.531459808349609,-1.1040985584259033,0.40996384620666504
1761417456914424600,4.925424560546875,-0.5979509353637695,2.3889100551605225,0.4382549524307251
1761417456931215400,4.94221533203125,11.499332427978516,7.748952388763428,2.651968002319336
1761417456948071200,4.9590712890625,24.116764068603516,9.637093544006348,11.14132308959961
1761417456964899000,4.975899169921875,34.482276916503906,11.303436279296875,18.626649856567383
1761417456981729000,4.99272900390625,43.51346206665039,12.577951431274414,22.382476806640625
1761417456998550000,5.009550048828125,50.79130554199219,10.678620338439941,22.447040557861328
1761417457015370800,5.026370849609375,44.838260650634766,8.80412769317627,14.388490676879883
1761417457032172300,5.04317236328125,28.545188903808594,8.037151336669922,4.331464767456055
1761417457049008000,5.060008056640625,14.5408935546875,7.693096160888672,-1.080704927444458
1761417457065849900,5.076849853515625,5.865294456481934,6.186763286590576,-1.685215711593628
1761417457082646500,5.093646484375,0.08252525329589844,3.2668938636779785,-0.881292998790741
1761417457099476200,5.110476318359375,-4.008541107177734,-0.11505389213562012,-0.39097750186920166
1761417457116295400,5.12729541015625,-7.080985069274902,-3.4162745475769043,-0.16329967975616455
1761417457133124000,5.1441240234375,-9.024828910827637,-5.41618537902832,-0.7942250967025757
1761417457149948700,5.16094873046875,-10.052451133728027,-6.748630523681641,-1.261731743812561
1761417457166773500,5.1777734375,-11.247693061828613,-7.411736965179443,-1.4323930740356445
1761417457183599900,5.194599853515625,-12.738767623901367,-8.127893447875977,-1.2613340616226196
1761417457200424200,5.211424072265625,-13.863280296325684,-8.819607734680176,-0.9421343803405762
1761417457217249500,5.22824951171875,-14.56901741027832,-9.457904815673828,-0.5648725032806396
1761417457234073600,5.245073486328125,-15.226755142211914,-9.846803665161133,-0.6052811145782471
1761417457250899700,5.261899658203125,-15.646833419799805,-9.917848587036133,-0.9134619832038879
1761417457267723000,5.278722900390625,-15.451210021972656,-9.718681335449219,-1.1241486072540283
1761417457284552200,5.29555224609375,-14.651220321655273,-9.126543045043945,-1.4272305965423584
1761417457301386000,5.312385986328125,-13.778270721435547,-8.609906196594238,-1.6165003776550293
1761417457318202000,5.3292021484375,-12.843816757202148,-8.314504623413086,-1.6865346431732178
1761417457335027200,5.346027099609375,-11.933660507202148,-8.05911636352539,-1.7180501222610474
1761417457351858400,5.3628583984375,-11.20528507232666,-7.836050510406494,-1.8090031147003174
1761417457368686000,5.37968603515625,-10.668718338012695,-7.613665580749512,-1.9206079244613647
1761417457385518000,5.39651806640625,-10.237041473388672,-7.2725605964660645,-2.0004453659057617
1761417457402350000,5.41335009765625,-9.977720260620117,-6.834590435028076,-1.8775755167007446
1761417457419175700,5.43017578125,-9.719661712646484,-6.484395980834961,-1.6001355648040771
1761417457435998500,5.44699853515625,-9.5802001953125,-5.668625354766846,-1.8721404075622559
1761417457452827000,5.463826904296875,-9.396982192993164,-4.906540870666504,-1.854417085647583
1761417457480140800,5.491140869140625,-3.5904316902160645,-1.6870522499084473,-1.2449744939804077
1761417457496981200,5.507981201171875,0.968775749206543,0.4450368881225586,-0.4721040725708008
1761417457513805300,5.524805419921875,11.287593841552734,4.744598388671875,2.8789281845092773
1761417457530629000,5.541629150390625,23.05817222595215,7.901421546936035,10.138114929199219
1761417457547454500,5.558454345703125,32.864959716796875,7.656520843505859,19.64147186279297
1761417457564279000,5.575279052734375,38.24433898925781,9.376753807067871,22.814863204956055
1761417457581105200,5.592105224609375,43.559783935546875,11.327457427978516,19.784923553466797
1761417457597929200,5.60892919921875,44.491676330566406,9.605489730834961,17.139354705810547
1761417457614755800,5.625755859375,35.62104415893555,9.154545783996582,10.643167495727539
1761417457631578400,5.642578369140625,24.29994010925293,9.676401138305664,4.129323482513428
1761417457648383500,5.659383544921875,17.14342498779297,9.268977165222168,1.8949079513549805
1761417457665229600,5.6762294921875,12.413820266723633,7.581518650054932,2.0602762699127197
1761417457682055000,5.693054931640625,6.773216247558594,4.686455726623535,2.2954657077789307
1761417457698893800,5.709893798828125,0.03223419189453125,1.0719051361083984,2.1195385456085205
1761417457715705300,5.726705322265625,-6.244986057281494,-2.509460687637329,1.1301681995391846
1761417457732543700,5.743543701171875,-10.583047866821289,-4.974969387054443,-0.5202391147613525
1761417457749351400,5.760351318359375,-12.898045539855957,-6.4674296379089355,-1.6937313079833984
1761417457766189800,5.77718994140625,-14.044069290161133,-7.559959411621094,-1.7950170040130615
1761417457783007200,5.79400732421875,-14.537359237670898,-8.476358413696289,-1.4070013761520386
1761417457799828200,5.810828125,-15.40015983581543,-9.446582794189453,-1.137115478515625
1761417457816656000,5.82765576171875,-16.555660247802734,-9.831426620483398,-1.3322155475616455
1761417457833479400,5.8444794921875,-17.232011795043945,-9.854646682739258,-1.605283498764038
1761417457850305500,5.861305419921875,-17.329511642456055,-9.733967781066895,-1.7068774700164795
1761417457867129600,5.878129638671875,-16.67336654663086,-9.375377655029297,-1.7571485042572021
1761417457883953000,5.894952880859375,-15.921184539794922,-8.857715606689453,-1.787822961807251
1761417457900781300,5.91178125,-14.8849458694458,-8.143960952758789,-1.8694829940795898
1761417457917604000,5.92860400390625,-13.567562103271484,-7.423518180847168,-1.8448761701583862
1761417457934431200,5.94543115234375,-12.414566993713379,-6.769028663635254,-1.7727423906326294
1761417457951254800,5.9622548828125,-11.428645133972168,-6.373133659362793,-1.533212423324585
1761417457968078300,5.979078369140625,-10.837926864624023,-5.913614749908447,-1.4979839324951172
1761417457984911400,5.995911376953125,-10.686325073242188,-5.450901031494141,-1.52178156375885
1761417458001745700,6.01274560546875,-10.810630798339844,-5.159056663513184,-1.3086931705474854
1761417458018568400,6.029568359375,-10.458089828491211,-4.842447280883789,-1.0049571990966797
1761417458035393500,6.0463935546875,-9.614363670349121,-4.300696849822998,-0.6447923183441162
1761417458052219400,6.063219482421875,-8.660826683044434,-3.62673020362854,-0.5820808410644531
1761417458069021400,6.080021484375,-6.272706508636475,-2.3938698768615723,-0.43297648429870605
1761417458085853200,6.096853271484375,-1.9847826957702637,-0.8838496208190918,-0.17144560813903809
1761417458102681300,6.113681396484375,4.384600639343262,-0.29680776596069336,0.8346278667449951
1761417458119504100,6.130504150390625,14.16297435760498,2.43058443069458,2.220233201980591
1761417458136329700,6.147329833984375,25.02246856689453,5.282963752746582,6.438350200653076
1761417458153154800,6.16415478515625,38.88444519042969,6.707585334777832,15.217767715454102
1761417458169980000,6.18097998046875,54.3709831237793,8.792205810546875,28.142677307128906
1761417458186810400,6.197810302734375,57.87794876098633,7.462674140930176,38.02415466308594
1761417458203641000,6.21464111328125,43.359275817871094,5.372315883636475,25.698196411132812
1761417458220467500,6.231467529296875,26.29761505126953,7.545164585113525,6.677927017211914
1761417458237291800,6.248291748046875,16.661590576171875,6.917241096496582,-0.15019750595092773
1761417458254107600,6.265107666015625,10.428934097290039,5.800507068634033,-1.7740494012832642
1761417458270917600,6.281917724609375,3.281219482421875,2.6151363849639893,-1.271233320236206
1761417458287742000,6.298741943359375,-3.285238742828369,-0.6522130966186523,0.30926966667175293
1761417458304579800,6.315579833984375,-8.682887077331543,-3.7206547260284424,2.068838119506836
1761417458321407500,6.332407470703125,-12.34447956085205,-5.675795555114746,2.047414541244507
1761417458338228500,6.349228515625,-13.211712837219238,-7.128300666809082,1.3421196937561035
1761417458355055000,6.36605517578125,-12.219748497009277,-8.74098014831543,0.8453197479248047
1761417458371895300,6.382895263671875,-11.797375679016113,-10.142114639282227,0.03925204277038574
1761417458388684800,6.399684814453125,-12.803215026855469,-10.698209762573242,-0.8934490084648132
1761417458405543700,6.416543701171875,-14.420591354370117,-10.997206687927246,-1.5236239433288574
1761417458422367500,6.433367431640625,-15.952983856201172,-11.041097640991211,-2.0420889854431152
1761417458439195400,6.4501953125,-16.967039108276367,-11.239217758178711,-2.0817983150482178
1761417458456020500,6.4670205078125,-17.350353240966797,-11.206209182739258,-1.9909497499465942
1761417458472828400,6.483828369140625,-16.9598388671875,-10.988367080688477,-1.811849594116211
1761417458489638700,6.500638671875,-16.063980102539062,-10.379762649536133,-1.944488763809204
1761417458506466000,6.517466064453125,-14.915807723999023,-9.489572525024414,-2.2913928031921387
1761417458546437000,6.55743701171875,-11.398026466369629,-7.550141334533691,-1.8604400157928467
1761417458563263200,6.57426318359375,-10.846439361572266,-7.048081874847412,-1.9550158977508545
1761417458580087000,6.591087158203125,-10.4708251953125,-6.516327381134033,-2.0912492275238037
1761417458596912600,6.60791259765625,-10.224268913269043,-5.994635105133057,-2.103313446044922
1761417458613737200,6.6247373046875,-9.813071250915527,-5.495400428771973,-2.171008825302124
1761417458630559200,6.641559326171875,-9.338953018188477,-4.95590353012085,-2.0245463848114014
1761417458653713000,6.664712890625,-6.511134147644043,-3.473160982131958,-1.6779608726501465
1761417458670538200,6.681538330078125,-4.29042911529541,-2.0906779766082764,-1.8424715995788574
1761417458687379000,6.69837890625,-0.49208736419677734,-0.4777548313140869,-1.8371350765228271
1761417458704187100,6.715187255859375,5.171794891357422,1.0457637310028076,-1.166745662689209
1761417458721011700,6.73201171875,13.442529678344727,4.8701701164245605,0.7108402252197266
1761417458737836500,6.74883642578125,24.744304656982422,8.663298606872559,5.634963035583496
1761417458754658600,6.765658447265625,36.11126708984375,8.70560359954834,11.708192825317383
1761417458771474400,6.782474365234375,46.418296813964844,7.960314750671387,17.24267578125
1761417458788298200,6.79929833984375,55.104393005371094,8.455806732177734,17.880281448364258
1761417458805110000,6.816110107421875,54.317806243896484,5.95274019241333,13.204862594604492
1761417458821948000,6.832947998046875,41.67941665649414,5.297877311706543,6.144899368286133
1761417458838771200,6.849771240234375,26.283340454101562,5.7220139503479,2.377544403076172
1761417458855601400,6.866601318359375,12.356771469116211,5.540302276611328,1.6911075115203857
1761417458872422400,6.88342236328125,3.334585189819336,3.8997600078582764,2.9749603271484375
1761417458889261800,6.90026171875,-2.719517707824707,0.6165275573730469,4.481535911560059
1761417458906088200,6.917088134765625,-8.3429536819458,-3.1694679260253906,4.838020324707031
1761417458922911200,6.9339111328125,-13.042058944702148,-5.869802474975586,3.5484097003936768
1761417458939739100,6.9507392578125,-14.98304271697998,-7.166830539703369,1.6412904262542725
1761417458956555800,6.9675556640625,-14.26162338256836,-7.960245132446289,0.4153980016708374
1761417458973372700,6.98437255859375,-12.84286117553711,-8.658135414123535,0.11231017112731934
1761417458990212000,7.001212158203125,-12.563838958740234,-9.095537185668945,0.25869429111480713
1761417459007020000,7.01802001953125,-13.513537406921387,-9.487494468688965,0.3008124828338623
1761417459023862000,7.034862060546875,-14.957794189453125,-9.601629257202148,-0.22759681940078735
1761417459040686800,7.051686767578125,-16.18498420715332,-9.925878524780273,-0.37395066022872925
1761417459057510100,7.06851025390625,-16.662403106689453,-10.094594955444336,-0.34051084518432617
1761417459074323500,7.085323486328125,-16.507713317871094,-10.056489944458008,-0.2716469466686249
1761417459091148300,7.102148193359375,-15.801678657531738,-9.868888854980469,-0.2896648049354553
1761417459107973400,7.118973388671875,-15.01094913482666,-9.541952133178711,-0.49481239914894104
1761417459124800000,7.135800048828125,-13.970708847045898,-9.085460662841797,-0.877480149269104
1761417459141623800,7.152623779296875,-12.893738746643066,-8.368905067443848,-1.20163893699646
1761417459158448000,7.1694482421875,-11.637986183166504,-7.6059465408325195,-1.3190613985061646
1761417459175259100,7.186259033203125,-10.630077362060547,-6.940985202789307,-1.1988364458084106
1761417459192088600,7.203088623046875,-9.98525333404541,-6.125473976135254,-1.1817365884780884
1761417459208910300,7.219910400390625,-9.857440948486328,-5.387020111083984,-1.3116192817687988
1761417459225737000,7.236737060546875,-10.102008819580078,-4.813338279724121,-1.590675950050354
1761417459242560500,7.253560546875,-9.666214942932129,-4.457255840301514,-1.4767522811889648
1761417459259390700,7.270390625,-8.92420482635498,-3.975595474243164,-1.1420738697052002
1761417459276210200,7.287210205078125,-7.783944129943848,-3.498332977294922,-0.787155032157898
1761417459293036300,7.304036376953125,-5.425532341003418,-2.175813913345337,-0.9047472476959229
1761417459309860400,7.3208603515625,-0.8127660751342773,0.06651973724365234,-0.9025928974151611
1761417459326691000,7.337691162109375,6.235835075378418,0.833340048789978,0.8361930847167969
1761417459343524600,7.354524658203125,15.478086471557617,2.9823617935180664,3.197476625442505
1761417459360341000,7.371341064453125,26.87183380126953,6.525755882263184,6.03506326675415
1761417459377173200,7.38817333984375,39.32466125488281,7.005788803100586,10.292895317077637
1761417459393984300,7.404984375,49.31511306762695,6.293041229248047,14.539183616638184
1761417459410825000,7.421824951171875,56.356658935546875,7.500750541687012,18.564834594726562
1761417459427648500,7.4386484375,49.67111587524414,6.453754901885986,17.691184997558594
1761417459444473300,7.455473388671875,34.34228515625,6.816673755645752,10.79963493347168
1761417459461298400,7.47229833984375,21.669082641601562,7.978490352630615,5.440793037414551
1761417459478123500,7.48912353515625,12.949844360351562,7.384807586669922,3.029780864715576
1761417459494934000,7.50593408203125,6.382169723510742,5.550948143005371,1.7473719120025635
1761417459511775000,7.52277490234375,0.41619873046875,2.820150375366211,1.3031983375549316
1761417459528583000,7.5395830078125,-5.046903133392334,-0.37415242195129395,1.6860852241516113
1761417459545421600,7.556421630859375,-9.607922554016113,-3.26127552986145,1.9836525917053223
1761417459562250500,7.57325048828125,-12.82628345489502,-5.483480453491211,1.6304728984832764
1761417459579072300,7.590072265625,-14.172395706176758,-6.884762763977051,0.6886888742446899
1761417459595898600,7.606898681640625,-13.94443416595459,-7.71307373046875,-0.13605737686157227
1761417459612724500,7.623724365234375,-12.75191593170166,-7.934988021850586,-0.37784022092819214
1761417459629535700,7.64053564453125,-12.279899597167969,-7.70643424987793,-0.43779170513153076
1761417459646371000,7.65737109375,-12.790143966674805,-7.314402103424072,-0.6505035161972046
1761417459663214000,7.674214111328125,-14.319252014160156,-7.42769193649292,-0.7936698794364929
1761417459680037400,7.691037353515625,-16.084863662719727,-7.556243419647217,-1.1376047134399414
1761417459696846000,7.70784619140625,-17.34780502319336,-7.7386980056762695,-1.4177515506744385
1761417459713687600,7.7246875,-17.625465393066406,-7.647727012634277,-1.620052456855774
1761417459730512600,7.7415126953125,-16.867496490478516,-7.522771835327148,-1.5155787467956543
1761417459747321900,7.75832177734375,-15.456125259399414,-7.170864582061768,-1.4663795232772827
1761417459764148700,7.775148681640625,-14.319633483886719,-6.5029191970825195,-1.9756174087524414
1761417459780973600,7.7919736328125,-13.452789306640625,-5.954209327697754,-2.4658915996551514
1761417459797798700,7.808798583984375,-12.583451271057129,-5.448381423950195,-2.800847053527832
1761417459814623500,7.82562353515625,-11.633665084838867,-5.033285140991211,-2.867626190185547
1761417459831449000,7.842448974609375,-11.253868103027344,-4.646079063415527,-2.811105966567993
1761417459848288800,7.859288818359375,-10.921741485595703,-4.385555267333984,-2.6113569736480713
1761417459865093600,7.87609375,-10.156494140625,-4.006732940673828,-2.321162700653076
1761417459881939200,7.892939208984375,-9.05273151397705,-3.62870454788208,-1.6840147972106934
1761417459898749000,7.9097490234375,-7.601387023925781,-2.6950268745422363,-1.308038353919983
1761417459915589400,7.92658935546875,-5.0070624351501465,-0.8113629817962646,-1.5833144187927246
1761417459932412700,7.94341259765625,-0.7143478393554688,1.6586625576019287,-1.5053627490997314
1761417459949210400,7.96021044921875,6.834402084350586,3.476736545562744,-0.5131233930587769
1761417459966047200,7.977047119140625,16.822126388549805,6.450906753540039,0.9517359733581543
1761417459982872000,7.9938720703125,27.51772689819336,8.369190216064453,6.678030014038086
1761417459999700200,8.0107001953125,35.39472198486328,8.845041275024414,11.722671508789062
1761417460016523800,8.027523681640625,41.283042907714844,9.414446830749512,14.849796295166016
1761417460033347000,8.04434716796875,44.85302734375,8.066365242004395,17.747623443603516
1761417460050173700,8.061173583984376,41.129512786865234,5.987369537353516,15.511932373046875
1761417460066987300,8.0779873046875,28.96410369873047,5.31843900680542,8.537260055541992
1761417460083823400,8.0948232421875,17.205829620361328,5.822135925292969,3.4231793880462646
1761417460100648700,8.111648681640625,8.302947044372559,5.803581237792969,1.2572062015533447
1761417460117471200,8.12847119140625,1.4939298629760742,4.827271461486816,1.2294691801071167
1761417460134301400,8.145301513671875,-4.221216201782227,3.3117916584014893,2.098877429962158
1761417460151094800,8.1620947265625,-9.155542373657227,0.7781839370727539,2.894904136657715
1761417460186891800,8.197891845703126,-12.603042602539062,-2.073706865310669,2.157042980194092
1761417460203713500,8.214713623046874,-12.81523323059082,-2.3283700942993164,1.7000386714935303
1761417460220540200,8.2315400390625,-12.304241180419922,-2.1319169998168945,0.7175397872924805
1761417460237336300,8.24833642578125,-11.188562393188477,-1.5243935585021973,-0.01579085737466812
1761417460254177000,8.265177001953125,-10.616436004638672,-0.9831852912902832,-0.31372103095054626
1761417460277302000,8.288302001953125,-10.4563570022583,-1.2468039989471436,-0.2057061642408371
1761417460294137000,8.30513720703125,-11.234293937683105,-2.091247081756592,0.45853179693222046
1761417460310962400,8.32196240234375,-11.965950965881348,-2.42781662940979,0.5453169345855713
1761417460327787500,8.33878759765625,-12.51931095123291,-3.1283037662506104,0.40006864070892334
1761417460344627700,8.355627685546875,-11.334667205810547,-3.926198959350586,0.47272324562072754
1761417460361450000,8.372449951171875,-10.949170112609863,-4.215476989746094,0.04367930814623833
1761417460378274000,8.389274169921874,-10.729565620422363,-3.9854490756988525,0.09126343578100204
1761417460395090000,8.40608984375,-8.993870735168457,-3.4292969703674316,-0.9072526097297668
1761417460411926500,8.422926513671875,-9.039884567260742,-3.4161903858184814,-0.6711010336875916
1761417460428750800,8.439750732421874,-9.780508041381836,-4.3425822257995605,-0.6135889887809753
1761417460445576200,8.456576171875,-10.261724472045898,-4.720521450042725,-0.5482350587844849
1761417460462401000,8.473401123046875,-9.528009414672852,-4.058955192565918,-1.2742040157318115
1761417460479226000,8.49022607421875,-8.703415870666504,-3.9161972999572754,-1.3220665454864502
1761417460496022000,8.50702197265625,-6.771743297576904,-4.107547760009766,-1.2364799976348877
1761417460512865000,8.523864990234374,-4.64909029006958,-3.3315060138702393,-0.9596163034439087
1761417460529684500,8.5406845703125,-2.330807685852051,-1.7556178569793701,-0.7908061146736145
1761417460546514000,8.557513916015624,1.6779460906982422,-1.0343031883239746,-1.2545491456985474
1761417460563337500,8.57433740234375,2.5831680297851562,-0.22237110137939453,-1.7528076171875
1761417460580162300,8.591162353515625,4.040933609008789,0.1932210922241211,-0.30750083923339844
1761417460596973300,8.607973388671875,8.075338363647461,-0.9451357126235962,2.501821994781494
1761417460613801200,8.62480126953125,15.08156681060791,-2.9239883422851562,4.563503742218018
1761417460630623000,8.641623046875,19.557701110839844,-3.9170331954956055,5.781253814697266
1761417460647449900,8.658449951171875,20.851436614990234,-3.775228261947632,5.740440845489502
1761417460664275000,8.67527490234375,20.11713981628418,0.9366389513015747,2.2335853576660156
1761417460681100000,8.69210009765625,18.250152587890625,2.6826183795928955,-0.18082726001739502
1761417460697931300,8.70893115234375,17.066068649291992,3.5512301921844482,-1.8250131607055664
1761417460714749700,8.725749755859376,13.882028579711914,4.399508476257324,-1.8200547695159912
1761417460731575300,8.7425751953125,9.204535484313965,4.379465103149414,-0.21912559866905212
1761417460748399400,8.7593994140625,6.232552528381348,4.075485706329346,1.1050201654434204
1761417460765225200,8.77622509765625,4.896082878112793,3.85674786567688,1.520369052886963
1761417460782049500,8.793049560546875,5.015218734741211,3.295970916748047,0.9048525094985962
1761417460798889000,8.809888916015625,3.915578842163086,2.45070219039917,-0.2926466464996338
1761417460815712300,8.826712158203126,1.676377296447754,2.207688331604004,-2.0127015113830566
1761417460832537300,8.843537353515625,-0.1693286895751953,1.4770007133483887,-1.9986398220062256
1761417460849362400,8.860362548828125,-0.7582807540893555,1.1948710680007935,-1.2371705770492554
1761417460866187300,8.877187255859376,-0.09153938293457031,0.04950645565986633,-0.8630858659744263
