time,seconds_elapsed,z,y,x
1761487616146032000,0.2840322265625,0.5719246864318848,0.5862617492675781,-0.42372846603393555
1761487616162855200,0.300855224609375,0.3702988624572754,0.6704211235046387,-0.5796313285827637
1761487616179680000,0.317679931640625,0.2481856346130371,0.8477886915206909,-0.7903656959533691
1761487616196503600,0.334503662109375,0.04238700866699219,0.8550765514373779,-0.9466514587402344
1761487616213294000,0.351294189453125,-0.19398260116577148,0.7774639129638672,-0.9487061500549316
1761487616230152000,0.36815185546875,-0.7902803421020508,0.35666465759277344,-1.0279884338378906
1761487616246976300,0.384976318359375,0.0782313346862793,0.6803970336914062,-0.6047482490539551
1761487616263782000,0.401781982421875,0.687138557434082,0.4202338457107544,0.0778036117553711
1761487616280626200,0.418626220703125,0.8915138244628906,0.302105188369751,0.39944028854370117
1761487616297431600,0.435431640625,-0.336850643157959,0.17605042457580566,-0.12940168380737305
1761487616314272500,0.4522724609375,-0.8861613273620605,0.734370231628418,-1.1257867813110352
1761487616331092200,0.46909228515625,-0.7858314514160156,1.4372882843017578,-1.4168119430541992
1761487616347921400,0.48592138671875,-0.28263235092163086,0.9440511465072632,-0.7460803985595703
1761487616364747500,0.50274755859375,0.27016162872314453,0.1487271785736084,-0.18091964721679688
1761487616381568800,0.51956884765625,0.5761809349060059,-0.04725050926208496,-0.31520509719848633
1761487616398392600,0.536392578125,0.25179433822631836,0.4430820941925049,-0.8939042091369629
1761487616415217200,0.553217041015625,-0.12185955047607422,0.8525404930114746,-1.625145673751831
1761487616432029400,0.570029541015625,-0.10377311706542969,1.3256263732910156,-2.127410411834717
1761487616448865800,0.58686572265625,-0.6958074569702148,1.3583909273147583,-1.866621971130371
1761487616465680400,0.603680419921875,-0.014665603637695312,1.1966350078582764,-1.3005790710449219
1761487616482512100,0.62051220703125,0.23742103576660156,0.49749755859375,-0.8313455581665039
1761487616499324000,0.637323974609375,0.0033502578735351562,0.8604893684387207,-1.0982961654663086
1761487616516144600,0.65414453125,-0.786038875579834,1.0191011428833008,-1.3083233833312988
1761487616532974800,0.670974853515625,-1.610382080078125,2.1937031745910645,-1.6053524017333984
1761487616549783300,0.687783203125,-2.2857704162597656,2.599050521850586,-1.940065860748291
1761487616566620200,0.7046201171875,-2.3793821334838867,2.385354995727539,-2.314694404602051
1761487616583444500,0.721444580078125,-1.4507722854614258,1.862800121307373,-2.389115333557129
1761487616600259000,0.738259033203125,-1.5568819046020508,1.11812162399292,-1.985731601715088
1761487616617099000,0.75509912109375,-1.0394906997680664,0.8572323322296143,-1.8445940017700195
1761487616633912800,0.771912841796875,-1.4247465133666992,0.49706315994262695,-1.9652671813964844
1761487616650740700,0.78874072265625,-2.316803455352783,0.16611170768737793,-2.023256540298462
1761487616667581700,0.805581787109375,-2.7378196716308594,-0.14973711967468262,-2.072974920272827
1761487616684402400,0.82240234375,-2.160189628601074,-0.3700892925262451,-1.6488831043243408
1761487616701226500,0.8392265625,0.7495183944702148,-0.5870182514190674,-0.14058184623718262
1761487616718034200,0.8560341796875,2.725666046142578,-1.8408546447753906,3.4963488578796387
1761487616734874000,0.8728740234375,3.2388792037963867,-3.6429076194763184,6.6100335121154785
1761487616751698700,0.88969873046875,5.0579023361206055,-3.63332200050354,6.444267749786377
1761487616768518400,0.906518310546875,7.911192893981934,-0.9306766986846924,3.2472355365753174
1761487616785334800,0.923334716796875,15.266980171203613,-0.8683469295501709,4.147754192352295
1761487616802163700,0.940163818359375,24.41033935546875,-2.750910997390747,8.812076568603516
1761487616819001900,0.957001953125,29.852954864501953,-1.5103702545166016,12.61178207397461
1761487616835819300,0.9738193359375,31.50243377685547,2.769454002380371,11.089550018310547
1761487616852643300,0.990643310546875,29.722963333129883,4.640212535858154,6.855302333831787
1761487616869450500,1.007450439453125,24.189525604248047,5.902599334716797,1.8180193901062012
1761487616886292200,1.024292236328125,19.210819244384766,6.75900936126709,-0.7906703948974609
1761487616903114800,1.04111474609375,17.92068862915039,5.947013854980469,0.15317153930664062
1761487616919939800,1.05793994140625,14.060131072998047,4.0476789474487305,1.1177334785461426
1761487616936734700,1.074734619140625,8.903672218322754,2.3980965614318848,0.5438733100891113
1761487616953579300,1.091579345703125,4.747138023376465,-0.0607796311378479,-0.3229193687438965
1761487616970421200,1.108421142578125,1.6937122344970703,-3.090230941772461,-0.7236504554748535
1761487616987213800,1.1252138671875,-0.6084842681884766,-5.6256184577941895,-0.5701131820678711
1761487617004043000,1.14204296875,-5.718629837036133,-8.02726936340332,-0.6603178977966309
1761487617020876500,1.15887646484375,-11.720804214477539,-9.24328899383545,-1.420703411102295
1761487617037679900,1.175679931640625,-14.372137069702148,-9.309892654418945,-2.410956382751465
1761487617054519000,1.19251904296875,-12.002891540527344,-9.600542068481445,-1.942086935043335
1761487617071342000,1.209342041015625,-8.417627334594727,-11.115741729736328,-0.8321385383605957
1761487617088166700,1.226166748046875,-7.5802106857299805,-12.855690002441406,-1.7629714012145996
1761487617104987400,1.2429873046875,-9.183889389038086,-14.021773338317871,-4.6220855712890625
1761487617121818000,1.259818115234375,-11.843378067016602,-15.055902481079102,-7.247248649597168
1761487617138638600,1.276638671875,-12.85116195678711,-15.420358657836914,-9.32586669921875
1761487617155480000,1.29347998046875,-11.986668586730957,-15.838017463684082,-9.793376922607422
1761487617172300500,1.310300537109375,-9.852285385131836,-16.060392379760742,-8.96157455444336
1761487617189108500,1.3271083984375,-9.052932739257812,-17.647502899169922,-7.0522074699401855
1761487617205950700,1.34395068359375,-8.506186485290527,-17.556800842285156,-7.104488849639893
1761487617222770400,1.3607705078125,-9.5015287399292,-17.121183395385742,-7.5097880363464355
1761487617239597600,1.37759765625,-10.926898956298828,-16.10177230834961,-8.497488975524902
1761487617256416800,1.394416748046875,-10.815650939941406,-15.259283065795898,-8.512791633605957
1761487617273249800,1.411249755859375,-9.55195426940918,-14.628705978393555,-7.712238788604736
1761487617290069500,1.428069580078125,-8.020611763000488,-13.878883361816406,-8.416372299194336
1761487617306889000,1.444888916015625,-8.763553619384766,-13.200270652770996,-7.71141242980957
1761487617323721500,1.461721435546875,-8.181713104248047,-12.318126678466797,-8.09062385559082
1761487617340541700,1.478541748046875,-7.950733184814453,-11.190576553344727,-8.317438125610352
1761487617357361200,1.495361083984375,-6.599069595336914,-9.42953872680664,-7.75073766708374
1761487617374193700,1.512193603515625,-5.478054046630859,-7.2616658210754395,-6.255414962768555
1761487617391014100,1.52901416015625,-4.292605400085449,-4.510131359100342,-4.743709564208984
1761487617407817200,1.545817138671875,-2.368269205093384,-0.8883795738220215,-4.37396240234375
1761487617424669200,1.562669189453125,2.691256523132324,3.809443712234497,-2.580024242401123
1761487617441478100,1.57947802734375,12.688631057739258,7.007486343383789,2.5406579971313477
1761487617458297300,1.59629736328125,20.400829315185547,11.092928886413574,5.399255752563477
1761487617475117300,1.613117431640625,23.715133666992188,13.943382263183594,4.273799419403076
1761487617491944400,1.6299443359375,22.725284576416016,19.587390899658203,-1.7028727531433105
1761487617508768500,1.6467685546875,30.86798095703125,22.177383422851562,1.8369264602661133
1761487617525592800,1.6635927734375,40.97869110107422,19.028364181518555,12.693816184997559
1761487617542398700,1.680398681640625,41.66411590576172,16.300336837768555,16.705684661865234
1761487617559237400,1.6972373046875,42.320579528808594,15.127580642700195,14.226967811584473
1761487617576068000,1.714068115234375,51.737586975097656,10.314156532287598,13.264955520629883
1761487617592876300,1.730876220703125,57.33930206298828,3.210413932800293,13.761026382446289
1761487617609709600,1.74770947265625,57.61463165283203,-3.7942285537719727,17.710628509521484
1761487617626540300,1.764540283203125,52.532447814941406,-9.610034942626953,24.390634536743164
1761487617643378700,1.781378662109375,39.654396057128906,-13.68486213684082,26.630800247192383
1761487617660183300,1.798183349609375,25.103761672973633,-14.304534912109375,20.20634651184082
1761487617677022700,1.815022705078125,13.386024475097656,-15.51968765258789,12.680105209350586
1761487617693847300,1.831847412109375,3.097644329071045,-17.72563934326172,6.971738815307617
1761487617710671400,1.84867138671875,-5.968583106994629,-19.50311279296875,3.0662107467651367
1761487617727478800,1.865478759765625,-9.787641525268555,-20.403133392333984,1.255375862121582
1761487617744315100,1.882315185546875,-8.398122787475586,-20.62693977355957,0.09057998657226562
1761487617761147400,1.8991474609375,-6.847799301147461,-21.731481552124023,-0.9720258712768555
1761487617777951000,1.915950927734375,-5.758962631225586,-22.40017318725586,-2.7896132469177246
1761487617794792400,1.93279248046875,-4.884831428527832,-21.887855529785156,-5.487034797668457
1761487617811615200,1.949615234375,-5.960501194000244,-20.659889221191406,-7.907686710357666
1761487617828439800,1.966439697265625,-6.2720417976379395,-19.58547592163086,-8.141281127929688
1761487617845260000,1.983260009765625,-6.087798118591309,-18.33464813232422,-8.386229515075684
1761487617862092500,2.000092529296875,-6.415225028991699,-16.879798889160156,-10.296978950500488
1761487617878926000,2.016926025390625,-4.785583972930908,-16.14537811279297,-12.311796188354492
1761487617895712500,2.03371240234375,-1.7807416915893555,-15.36273193359375,-13.084516525268555
1761487617912543700,2.050543701171875,0.27391862869262695,-14.675834655761719,-12.757925033569336
1761487617929382400,2.06738232421875,0.7502191066741943,-13.85927963256836,-12.130105972290039
1761487617946187500,2.0841875,0.37395811080932617,-12.670842170715332,-11.808042526245117
1761487617963033000,2.101033203125,0.12814640998840332,-11.431297302246094,-11.397205352783203
1761487617979842800,2.1178427734375,0.19282245635986328,-10.502874374389648,-10.65908432006836
1761487617996659000,2.134658935546875,0.23901498317718506,-9.683168411254883,-9.815333366394043
1761487618013487600,2.151487548828125,-0.4099677801132202,-8.675280570983887,-9.680205345153809
1761487618030318300,2.168318359375,-1.0275074243545532,-7.727546215057373,-10.01746940612793
1761487618047139600,2.1851396484375,-1.5493512153625488,-6.398410320281982,-10.558050155639648
1761487618063963400,2.20196337890625,-1.9324935674667358,-5.320939540863037,-10.652716636657715
1761487618080785000,2.218784912109375,-1.942456603050232,-4.000656604766846,-10.7662935256958
1761487618097611500,2.235611572265625,-2.5461013317108154,-2.619175672531128,-11.391386985778809
1761487618114435600,2.252435546875,-2.8319509029388428,-1.7316555976867676,-12.374025344848633
1761487618131279600,2.269279541015625,-1.44789719581604,-1.3527002334594727,-12.897335052490234
1761487618148095000,2.286094970703125,0.9656338691711426,-0.5418387055397034,-12.08239459991455
1761487618164921300,2.30292138671875,2.1910839080810547,1.3807533979415894,-10.26113510131836
1761487618181745700,2.31974560546875,2.2449851036071777,4.4897260665893555,-9.358051300048828
1761487618198575400,2.336575439453125,5.229773998260498,8.196941375732422,-8.484701156616211
1761487618215388400,2.353388427734375,14.066650390625,11.908039093017578,-4.107980728149414
1761487618232217900,2.3702177734375,22.623531341552734,14.804675102233887,2.074334144592285
1761487618249042000,2.3870419921875,28.069591522216797,19.0795955657959,4.078162670135498
1761487618265866200,2.4038662109375,42.33551788330078,23.72677230834961,2.7519359588623047
1761487618282687200,2.420687255859375,61.4236946105957,20.99397850036621,11.55060863494873
1761487618299514000,2.43751416015625,61.687259674072266,12.150898933410645,27.491079330444336
1761487618316336400,2.45433642578125,49.36221694946289,6.684467792510986,38.96019744873047
1761487618333164500,2.47116455078125,47.64018630981445,-1.1223461627960205,42.18804931640625
1761487618349969400,2.487969482421875,53.09136962890625,-11.554691314697266,39.128597259521484
1761487618366806300,2.50480615234375,49.62296676635742,-20.782215118408203,37.31193542480469
1761487618383638800,2.521638671875,35.929351806640625,-24.249515533447266,34.808135986328125
1761487618400457000,2.53845703125,20.642852783203125,-22.291746139526367,30.584531784057617
1761487618417280300,2.5552802734375,9.950864791870117,-18.94769287109375,23.94835090637207
1761487618434110700,2.57211083984375,3.799025058746338,-16.203489303588867,16.487213134765625
1761487618450903300,2.5889033203125,-0.6831707954406738,-14.265414237976074,9.640676498413086
1761487618467735300,2.6057353515625,-2.60208797454834,-12.28593635559082,5.504242420196533
1761487618484567800,2.62256787109375,-2.3560361862182617,-10.988590240478516,4.23068904876709
1761487618501389300,2.639389404296875,-1.9526348114013672,-12.094724655151367,4.2596564292907715
1761487618518192400,2.6561923828125,-3.2828314304351807,-14.164922714233398,4.534017086029053
1761487618535025400,2.673025390625,-6.171797275543213,-16.338775634765625,5.250129222869873
1761487618551857000,2.68985693359375,-8.93856143951416,-16.939594268798828,4.335348129272461
1761487618568690200,2.706690185546875,-10.789884567260742,-16.370580673217773,2.232715368270874
1761487618585509600,2.723509521484375,-10.569738388061523,-15.46434497833252,0.71126389503479
1761487618602334200,2.740334228515625,-9.41293716430664,-15.17746353149414,-0.000637441873550415
1761487618619163000,2.757162841796875,-8.937786102294922,-15.68355655670166,-0.5627444982528687
1761487618635991800,2.77399169921875,-9.677968978881836,-15.649517059326172,-1.6685750484466553
1761487618652824000,2.790823974609375,-10.646774291992188,-15.397130012512207,-2.8931326866149902
1761487618669641700,2.807641845703125,-10.313955307006836,-15.418960571289062,-3.7306177616119385
1761487618686494700,2.82449462890625,-9.009714126586914,-15.150896072387695,-4.462762355804443
1761487618703275300,2.841275146484375,-7.906834125518799,-15.137313842773438,-4.772355556488037
1761487618720110800,2.85811083984375,-7.117294788360596,-14.625101089477539,-5.15362548828125
1761487618736946200,2.8749462890625,-6.613594055175781,-14.112167358398438,-5.083617687225342
1761487618753764000,2.89176416015625,-6.101312160491943,-13.943721771240234,-4.2744903564453125
1761487618770599000,2.908598876953125,-5.8422698974609375,-13.079851150512695,-4.138278961181641
1761487618787412500,2.92541259765625,-6.181583404541016,-11.825573921203613,-4.422762870788574
1761487618804233200,2.942233154296875,-6.672645568847656,-10.310979843139648,-4.517531871795654
1761487618821075200,2.9590751953125,-6.957705974578857,-8.90837287902832,-4.46605110168457
1761487618837885200,2.97588525390625,-7.267947196960449,-7.456613540649414,-4.497441291809082
1761487618854708200,2.992708251953125,-7.969097137451172,-6.19716739654541,-4.733242511749268
1761487618871517400,3.009517333984375,-7.7520670890808105,-4.9164323806762695,-4.685678958892822
1761487618888372200,3.026372314453125,-6.341454029083252,-3.5290684700012207,-4.270068645477295
1761487618905181000,3.043180908203125,-3.5541889667510986,-1.0041303634643555,-3.748624801635742
1761487618922004700,3.060004638671875,-0.30355119705200195,-0.14622783660888672,-2.575314521789551
1761487618938829600,3.07682958984375,4.291040420532227,2.670536994934082,-2.2954602241516113
1761487618955632600,3.093632568359375,7.5489583015441895,4.8549652099609375,-3.4944777488708496
1761487618972466400,3.110466552734375,12.76718521118164,9.142097473144531,-5.397119522094727
1761487618989287700,3.12728759765625,19.7324275970459,12.919092178344727,-6.606369495391846
1761487619006112500,3.144112548828125,27.12970733642578,16.015262603759766,-8.85165023803711
1761487619022935600,3.160935546875,31.110515594482422,15.832496643066406,-10.761739730834961
1761487619039757300,3.17775732421875,36.06963348388672,11.875411987304688,-7.038787841796875
1761487619056586500,3.19458642578125,44.450927734375,5.554596900939941,0.10262012481689453
1761487619073408300,3.211408203125,49.24287033081055,-1.7574896812438965,7.656062126159668
1761487619090231800,3.228231689453125,46.627254486083984,-8.576910972595215,11.775899887084961
1761487619107076400,3.245076416015625,40.51108169555664,-14.972776412963867,14.283916473388672
1761487619123894000,3.26189404296875,31.134719848632812,-17.45122528076172,14.731005668640137
1761487619140718000,3.278718017578125,20.353408813476562,-15.900571823120117,13.369353294372559
1761487619157510700,3.2955107421875,10.907804489135742,-13.137924194335938,11.831174850463867
1761487619174365200,3.312365234375,2.8583149909973145,-10.456256866455078,10.487873077392578
1761487619191191600,3.329191650390625,-3.9266035556793213,-8.016901016235352,8.120583534240723
1761487619208015000,3.34601513671875,-5.972856521606445,-7.018027305603027,5.729524612426758
1761487619224838000,3.362837890625,-2.9418768882751465,-7.669644355773926,4.151552677154541
1761487619241641700,3.379641845703125,-0.7643485069274902,-9.892763137817383,2.929220676422119
1761487619258477800,3.396477783203125,-1.0929713249206543,-12.267962455749512,1.6895480155944824
1761487619275290600,3.41329052734375,-2.7711544036865234,-13.854772567749023,0.5639734268188477
1761487619292118800,3.430118896484375,-4.716604232788086,-13.806867599487305,-0.7899127006530762
1761487619308942000,3.446942138671875,-6.7462968826293945,-12.840330123901367,-2.194524049758911
1761487619325770000,3.46377001953125,-8.511247634887695,-11.78816032409668,-2.912619113922119
1761487619342593500,3.480593505859375,-9.523170471191406,-11.225275993347168,-3.427438735961914
1761487619359415600,3.49741552734375,-10.184890747070312,-11.654592514038086,-3.6509249210357666
1761487619376243000,3.514242919921875,-10.277618408203125,-11.628009796142578,-3.815491199493408
1761487619393065500,3.5310654296875,-9.631582260131836,-11.263021469116211,-3.438706636428833
1761487619409889800,3.547889892578125,-9.219734191894531,-10.548454284667969,-2.9479448795318604
1761487619426727000,3.564726806640625,-8.983966827392578,-10.126164436340332,-2.787266254425049
1761487619443538700,3.58153857421875,-8.968549728393555,-9.696544647216797,-3.2982726097106934
1761487619460359000,3.59835888671875,-8.828108787536621,-9.990429878234863,-3.9205071926116943
1761487619477189400,3.615189453125,-8.391363143920898,-10.173431396484375,-3.99533748626709
1761487619494009900,3.632009765625,-7.073974609375,-10.540565490722656,-3.1198997497558594
1761487619510834200,3.648834228515625,-5.886488437652588,-10.42790699005127,-2.6366593837738037
1761487619527658200,3.665658203125,-5.2381272315979,-10.803240776062012,-2.2115328311920166
1761487619544482600,3.682482666015625,-6.233642578125,-11.09325885772705,-2.2687902450561523
1761487619561306000,3.69930615234375,-8.18514633178711,-11.713743209838867,-2.678682327270508
1761487619578130400,3.71613037109375,-9.3133544921875,-11.521524429321289,-2.1317806243896484
1761487619594979800,3.732979736328125,-8.775750160217285,-11.340744018554688,-0.49007415771484375
1761487619611792600,3.749792724609375,-8.433181762695312,-10.388331413269043,1.1086068153381348
1761487619628616200,3.7666162109375,-8.932251930236816,-9.472906112670898,2.0571999549865723
1761487619645427500,3.783427490234375,-8.690103530883789,-8.068588256835938,2.078164577484131
1761487619662242800,3.800242919921875,-6.152454376220703,-5.243679523468018,2.0239782333374023
1761487619679091500,3.817091552734375,0.7881126403808594,-0.851656436920166,3.2367162704467773
1761487619695912400,3.833912353515625,8.343843460083008,4.736420631408691,5.607905864715576
1761487619712732700,3.850732666015625,17.08148193359375,13.955995559692383,4.948432445526123
1761487619729561000,3.86756103515625,29.764171600341797,22.137691497802734,4.151406288146973
1761487619746374700,3.884374755859375,45.502193450927734,25.079126358032227,9.033174514770508
1761487619763192300,3.9011923828125,61.61261749267578,26.09547233581543,17.902420043945312
1761487619780033300,3.918033203125,65.34162902832031,24.493698120117188,22.24667739868164
1761487619796850200,3.93485009765625,58.24533462524414,20.32916831970215,20.39933204650879
1761487619813672400,3.95167236328125,50.550193786621094,12.22976016998291,17.40699005126953
1761487619830483700,3.968483642578125,41.16834259033203,4.748705863952637,15.040706634521484
1761487619847337000,3.9853369140625,29.326414108276367,-1.2552845478057861,12.656774520874023
1761487619864150000,4.00214990234375,17.721267700195312,-7.0542144775390625,10.306478500366211
1761487619880977000,4.018976806640625,8.184819221496582,-11.779394149780273,7.875461578369141
1761487619897805800,4.035805908203125,2.3728480339050293,-15.330160140991211,4.616575241088867
1761487619914625500,4.05262548828125,-0.6755127906799316,-19.03888702392578,1.4644427299499512
1761487619931446500,4.069446533203125,-1.9185214042663574,-21.79642105102539,-1.0955047607421875
1761487619948260600,4.086260498046875,-1.3339738845825195,-23.69260025024414,-3.1739583015441895
1761487619965084000,4.103083984375,-1.3057260513305664,-25.039884567260742,-4.15438985824585
1761487619981908200,4.119908203125,-3.2131412029266357,-24.916213989257812,-4.267702579498291
1761487619998732300,4.136732177734375,-6.452642917633057,-23.11623764038086,-4.974707126617432
1761487620015556600,4.153556640625,-9.612892150878906,-20.35091781616211,-6.567678928375244
1761487620032380400,4.17038037109375,-10.810853958129883,-18.13730239868164,-8.187616348266602
1761487620049204500,4.18720458984375,-9.979395866394043,-17.47498893737793,-9.139646530151367
1761487620066028800,4.20402880859375,-9.138185501098633,-17.35702896118164,-9.991374969482422
1761487620082870300,4.220870361328125,-8.047130584716797,-17.267959594726562,-11.32911205291748
1761487620099690800,4.237690673828125,-5.385103225708008,-16.543182373046875,-12.420454978942871
1761487620116514600,4.2545146484375,-2.690896511077881,-16.082372665405273,-11.80880355834961
1761487620133328400,4.271328369140625,-1.5667626857757568,-16.125802993774414,-10.087664604187012
1761487620150152400,4.28815234375,-2.1897737979888916,-16.079713821411133,-8.714218139648438
1761487620166960400,4.30496044921875,-3.204270839691162,-15.338906288146973,-8.75255012512207
1761487620183797200,4.32179736328125,-3.77484130859375,-14.786304473876953,-9.019866943359375
1761487620200618800,4.33861865234375,-3.84682035446167,-14.05137825012207,-9.214735984802246
1761487620217448200,4.3554482421875,-4.118460655212402,-13.173920631408691,-9.611265182495117
1761487620234269200,4.372269287109375,-4.5067667961120605,-11.623905181884766,-10.697549819946289
1761487620251110700,4.389110595703125,-4.914819240570068,-10.245162010192871,-11.535577774047852
1761487620267928600,4.405928466796875,-5.469489097595215,-9.087030410766602,-11.526827812194824
1761487620284758800,4.4227587890625,-5.924368858337402,-8.442874908447266,-11.301270484924316
1761487620301579800,4.439579833984375,-5.938803672790527,-7.288212776184082,-11.555089950561523
1761487620318390800,4.456390869140625,-5.260169506072998,-5.691810607910156,-11.468145370483398
1761487620335231500,4.4732314453125,-3.561131000518799,-4.229273319244385,-9.630902290344238
1761487620352052700,4.490052734375,-0.3603668212890625,-2.129248857498169,-5.335605621337891
1761487620368875500,4.50687548828125,-0.09305858612060547,1.2857744693756104,-1.9632682800292969
1761487620385699600,4.523699462890625,3.8208775520324707,5.606028079986572,2.3396835327148438
1761487620402520300,4.540520263671875,14.301935195922852,11.290331840515137,11.168564796447754
1761487620419352000,4.55735205078125,27.55408477783203,15.161741256713867,18.586952209472656
1761487620436154600,4.574154541015625,37.131080627441406,19.304941177368164,21.980066299438477
1761487620452982300,4.590982177734375,46.99372100830078,19.254606246948242,30.943262100219727
1761487620469806600,4.607806640625,55.99557876586914,15.126716613769531,40.521488189697266
1761487620486631000,4.624630859375,55.136070251464844,7.544666767120361,45.10113525390625
1761487620503454500,4.641454345703125,46.05784606933594,0.8767477869987488,39.71917724609375
1761487620520265500,4.658265380859375,41.02195739746094,-4.602025985717773,33.70709991455078
1761487620537102800,4.675102783203125,35.29920959472656,-8.252130508422852,28.678667068481445
1761487620553927400,4.691927490234375,25.46576690673828,-10.067031860351562,23.833036422729492
1761487620570768400,4.708768310546875,13.276566505432129,-10.793869018554688,19.046005249023438
1761487620587588900,4.7255888671875,2.9464120864868164,-10.831399917602539,13.639808654785156
1761487620604415500,4.74241552734375,-4.776920795440674,-10.162202835083008,7.17401123046875
1761487620621236500,4.759236572265625,-7.729890823364258,-10.14597225189209,1.5937585830688477
1761487620638082800,4.776082763671875,-6.3508734703063965,-11.384529113769531,-2.9387876987457275
1761487620654888400,4.792888427734375,-4.5537261962890625,-14.946647644042969,-4.708982467651367
1761487620671703800,4.809703857421875,-5.6885986328125,-18.77165412902832,-5.166240692138672
1761487620688535800,4.826535888671875,-8.325810432434082,-18.94682502746582,-6.816338062286377
1761487620705318700,4.843318603515625,-12.79787826538086,-17.378318786621094,-10.217144012451172
1761487620722160400,4.860160400390625,-17.708187103271484,-15.436317443847656,-13.783336639404297
1761487620739013600,4.877013671875,-19.447837829589844,-13.766176223754883,-15.709444046020508
1761487620755830000,4.893830078125,-17.097644805908203,-13.284026145935059,-15.68858528137207
1761487620772653300,4.9106533203125,-12.598997116088867,-13.227779388427734,-14.823317527770996
1761487620789478000,4.927477783203125,-9.075082778930664,-12.90699577331543,-14.133201599121094
1761487620806302000,4.944302001953125,-6.900203704833984,-11.92398452758789,-13.670326232910156
1761487620823126300,4.961126220703125,-6.156393051147461,-10.749259948730469,-12.523063659667969
1761487620839949600,4.977949462890625,-5.890895366668701,-10.35837173461914,-10.708831787109375
1761487620856774100,4.994774169921875,-4.907712459564209,-10.458982467651367,-8.924958229064941
1761487620873598500,5.011598388671875,-3.3933169841766357,-9.85163688659668,-7.500365734100342
1761487620890422500,5.028422607421875,-2.2094979286193848,-9.145136833190918,-6.1064453125
1761487620907246000,5.04524609375,-1.424121618270874,-8.611394882202148,-4.9690046310424805
1761487620924053200,5.06205322265625,-0.5281486511230469,-8.2156982421875,-4.200672626495361
1761487620940877600,5.078877685546875,-0.36316585540771484,-7.470174312591553,-3.794973850250244
1761487620957708000,5.0957080078125,-0.4103822708129883,-6.622829437255859,-3.797365188598633
1761487620974528800,5.11252880859375,-0.7369308471679688,-5.036626815795898,-4.891081809997559
1761487620991352800,5.129352783203125,-2.0567941665649414,-3.640202045440674,-6.222068786621094
1761487621008177000,5.146177001953125,-4.091931343078613,-2.7873685359954834,-7.318587303161621
1761487621024999400,5.16299951171875,-6.173288345336914,-2.6207809448242188,-7.859882831573486
1761487621039706000,5.1777060546875,-7.835931777954102,-3.4122371673583984,-8.550110816955566
1761487621056535800,5.194535888671875,-7.621462345123291,-3.326111316680908,-9.41204833984375
1761487621073371100,5.21137109375,-7.652514934539795,-3.3517332077026367,-9.564122200012207
1761487621090195500,5.228195556640625,-7.338583946228027,-3.2965054512023926,-8.904162406921387
1761487621107019500,5.24501953125,-6.1308159828186035,-2.59810209274292,-7.605398178100586
1761487621123843600,5.261843505859375,-4.866040229797363,-0.7393698692321777,-6.835166931152344
1761487621140683000,5.27868310546875,-1.670555591583252,2.9916489124298096,-5.773634910583496
1761487621157488400,5.29548828125,2.881728172302246,6.237907886505127,-0.5404596328735352
1761487621174330000,5.312330078125,10.058274269104004,7.931649684906006,5.112204551696777
1761487621191153400,5.3291533203125,22.522411346435547,13.955743789672852,6.232234954833984
1761487621207977500,5.3459775390625,37.53422546386719,10.594985961914062,14.914895057678223
1761487621224802000,5.362802001953125,46.41525650024414,4.775870323181152,24.832447052001953
1761487621241625600,5.37962548828125,48.334266662597656,5.267988204956055,28.858304977416992
1761487621258450200,5.3964501953125,49.680809020996094,2.833252429962158,26.355581283569336
1761487621275274000,5.41327392578125,47.68511199951172,-1.966628909111023,17.778396606445312
1761487621292098000,5.43009814453125,38.35601806640625,-2.579392910003662,10.463537216186523
1761487621308916200,5.446916259765625,25.075870513916016,-1.8653924465179443,7.693721771240234
1761487621325727700,5.463727783203125,10.674154281616211,0.08313876390457153,6.623898506164551
1761487621342572000,5.480572021484375,0.3306293487548828,1.3843594789505005,5.654275894165039
1761487621359394300,5.497394287109375,-4.691691875457764,0.8471283912658691,3.844966411590576
1761487621376218000,5.514218017578125,-6.435448169708252,0.05431240797042847,1.0629782676696777
1761487621393042400,5.53104248046875,-5.253758430480957,0.7756397128105164,-1.4337817430496216
1761487621409851100,5.54785107421875,-3.642451763153076,1.2971915006637573,-1.607529878616333
1761487621426677000,5.564677001953125,-4.369542121887207,0.042550086975097656,-0.03747916221618652
1761487621443481900,5.58148193359375,-8.652360916137695,-2.42623233795166,0.9288301467895508
1761487621460327000,5.598326904296875,-13.057157516479492,-4.00349760055542,0.2825334072113037
1761487621477149200,5.615149169921875,-15.627693176269531,-5.0684356689453125,-0.7321794033050537
1761487621493973200,5.63197314453125,-16.488388061523438,-5.50452995300293,-2.2601494789123535
1761487621510797000,5.648797119140625,-15.007610321044922,-5.739152431488037,-3.725043773651123
1761487621527622700,5.66562255859375,-12.866401672363281,-6.636864185333252,-4.7915940284729
1761487621544444200,5.682444091796875,-10.682579040527344,-7.7576212882995605,-5.928691387176514
1761487621561284900,5.699284912109375,-8.913904190063477,-9.01718521118164,-6.693836212158203
1761487621578091300,5.71609130859375,-7.198657989501953,-9.757342338562012,-7.653119087219238
1761487621594903000,5.732903076171875,-6.025614261627197,-10.242155075073242,-8.463253021240234
1761487621611742000,5.749741943359375,-5.574596405029297,-10.320711135864258,-8.973405838012695
1761487621628564200,5.766564208984375,-4.856810092926025,-10.236428260803223,-8.850542068481445
1761487621645370600,5.78337060546875,-4.522922515869141,-10.121105194091797,-8.298360824584961
1761487621662228000,5.80022802734375,-5.775485515594482,-10.038975715637207,-8.219768524169922
1761487621679037000,5.817036865234375,-8.497663497924805,-9.214893341064453,-9.544507026672363
1761487621695876400,5.83387646484375,-11.606123924255371,-8.140111923217773,-11.38632869720459
1761487621712700000,5.850699951171875,-13.920780181884766,-6.203810691833496,-14.02825927734375
1761487621729524000,5.86752392578125,-14.59636116027832,-5.334932327270508,-15.553642272949219
1761487621746348300,5.884348388671875,-14.32932186126709,-5.292013168334961,-15.474701881408691
1761487621763172000,5.901172119140625,-12.479965209960938,-4.388538837432861,-14.600905418395996
1761487621779996400,5.917996337890625,-11.0948486328125,-2.3109688758850098,-13.409185409545898
1761487621796820200,5.9348203125,-12.498866081237793,-0.9322569966316223,-11.354101181030273
1761487621813644300,5.951644287109375,-11.61780834197998,-0.36911723017692566,-11.339420318603516
1761487621830468000,5.968468017578125,-1.45452880859375,2.78166127204895,-11.823858261108398
1761487621847277600,5.985277587890625,17.6624755859375,7.630400657653809,-6.247149467468262
1761487621864101600,6.0021015625,30.86724853515625,10.080283164978027,2.8140435218811035
1761487621880928800,6.0189287109375,33.245121002197266,16.87748146057129,1.7679791450500488
1761487621897751000,6.0357509765625,36.272674560546875,27.02806854248047,-1.0786628723144531
1761487621914574800,6.052574951171875,55.225379943847656,29.094898223876953,8.50064754486084
1761487621931399400,6.0693994140625,69.24175262451172,24.624887466430664,26.670652389526367
1761487621948222500,6.086222412109375,67.42760467529297,15.81566047668457,49.22807693481445
1761487621965046800,6.103046875,51.69540023803711,3.350478410720825,55.627296447753906
1761487621981873000,6.119872802734375,38.68373107910156,-4.037509918212891,40.27390670776367
1761487621998695400,6.1366953125,28.090702056884766,-9.32287311553955,26.866043090820312
1761487622015517700,6.153517578125,15.769370079040527,-12.184450149536133,17.885177612304688
1761487622032331000,6.1703310546875,3.547304153442383,-14.217582702636719,10.311917304992676
1761487622049169400,6.18716943359375,-3.080321788787842,-15.210118293762207,4.208711624145508
1761487622065990000,6.203989990234375,-4.238449573516846,-15.75271224975586,1.3813204765319824
1761487622082815000,6.22081494140625,-3.525264263153076,-16.69027328491211,0.872032642364502
1761487622099640600,6.237640625,-3.3373167514801025,-17.277524948120117,0.30286669731140137
1761487622116463600,6.254463623046875,-5.771052360534668,-17.083904266357422,-1.527266502380371
1761487622133273300,6.2712734375,-10.612153053283691,-16.626476287841797,-4.313862323760986
1761487622150127400,6.28812744140625,-17.23599624633789,-15.879444122314453,-7.817896842956543
1761487622166949600,6.30494970703125,-21.49286651611328,-14.868982315063477,-10.831352233886719
1761487622183773400,6.3217734375,-20.21591567993164,-15.168338775634766,-11.955451965332031
1761487622200598000,6.338597900390625,-13.966157913208008,-16.158018112182617,-11.785564422607422
1761487622217422000,6.355422119140625,-7.875177383422852,-16.093233108520508,-11.917364120483398
1761487622234246400,6.372246337890625,-4.703431606292725,-15.31315803527832,-11.366453170776367
1761487622251070700,6.38907080078125,-3.8769030570983887,-14.310552597045898,-10.492351531982422
1761487622267894300,6.405894287109375,-4.132869720458984,-13.211624145507812,-9.558633804321289
1761487622284718600,6.422718505859375,-4.852802276611328,-12.412715911865234,-8.561944961547852
1761487622301542700,6.439542724609375,-5.51455020904541,-11.843189239501953,-8.399213790893555
1761487622318367700,6.45636767578125,-5.472461700439453,-11.135130882263184,-8.712324142456055
1761487622335191000,6.47319091796875,-4.6284050941467285,-10.02595043182373,-8.884556770324707
1761487622352018200,6.49001806640625,-4.114551544189453,-8.835488319396973,-8.922284126281738
1761487622368839200,6.506839111328125,-3.78913950920105,-7.221932888031006,-9.630454063415527
1761487622385637600,6.5236376953125,-3.694093704223633,-5.208421230316162,-10.677535057067871
1761487622402465300,6.54046533203125,-4.722556114196777,-3.2380664348602295,-11.607160568237305
1761487622419298800,6.557298828125,-6.823670864105225,-2.1788551807403564,-11.775907516479492
1761487622436121300,6.574121337890625,-8.95673942565918,-1.4276788234710693,-11.805854797363281
1761487622452932400,6.590932373046875,-9.620016098022461,-0.9448570013046265,-11.791871070861816
1761487622469769500,6.60776953125,-7.293601036071777,-0.6569874286651611,-10.472506523132324
1761487622486593500,6.624593505859375,-3.079340934753418,0.6756299138069153,-7.807327747344971
1761487622503417900,6.64141796875,-0.3635993003845215,3.6286115646362305,-6.172369956970215
1761487622520241400,6.658241455078125,1.537705898284912,5.589557647705078,-5.012973785400391
1761487622572829700,6.71082958984375,27.5601806640625,14.221735000610352,4.458643436431885
1761487622589653200,6.7276533203125,27.135704040527344,16.522462844848633,2.476332664489746
1761487622606477800,6.744477783203125,28.62661361694336,17.3916015625,0.38994455337524414
1761487622623301600,6.761301513671875,42.29285430908203,16.826953887939453,4.992112159729004
1761487622640126000,6.7781259765625,52.19999694824219,9.866366386413574,16.994670867919922
1761487622656949000,6.794948974609375,45.28392791748047,5.110439777374268,24.020374298095703
1761487622673774800,6.81177490234375,33.494972229003906,4.400654315948486,27.311670303344727
1761487622690581800,6.828581787109375,32.91992950439453,1.5623773336410522,29.16347312927246
1761487622707422700,6.845422607421875,39.753082275390625,-2.47566819190979,26.960052490234375
1761487622724225500,6.8622255859375,42.23457336425781,-5.8243327140808105,24.909503936767578
1761487622741074400,6.879074462890625,35.79694747924805,-6.639642238616943,23.87221908569336
1761487622757877800,6.895877685546875,23.383121490478516,-6.090152740478516,20.644577026367188
1761487622774718500,6.912718505859375,9.501103401184082,-6.17852783203125,15.26590633392334
1761487622791542300,6.929542236328125,-3.060570240020752,-6.4785003662109375,9.22864818572998
1761487622808366300,6.946366455078125,-11.749263763427734,-7.048098564147949,3.924863815307617
1761487622825157400,6.963157470703125,-13.584224700927734,-9.068931579589844,1.2740410566329956
1761487622842010600,6.9800107421875,-9.273067474365234,-11.052961349487305,0.6523443460464478
1761487622858843000,6.9968427734375,-5.782281875610352,-14.125614166259766,0.5187548398971558
1761487622875662800,7.013662841796875,-5.623499870300293,-19.29197120666504,0.3397395610809326
1761487622892469800,7.0304697265625,-7.834660530090332,-21.90500831604004,-2.7594399452209473
1761487622909294300,7.04729443359375,-9.687255859375,-21.237945556640625,-7.581964492797852
1761487622926124300,7.064124267578125,-11.705811500549316,-19.462329864501953,-10.619590759277344
1761487622942945500,7.080945556640625,-13.117790222167969,-17.984458923339844,-10.42588996887207
1761487622959769600,7.09776953125,-14.457987785339355,-17.090532302856445,-8.59303092956543
1761487622976588300,7.11458837890625,-13.73447322845459,-15.629496574401855,-7.577755928039551
1761487622993417200,7.131417236328125,-11.163994789123535,-14.31527042388916,-7.966120719909668
1761487623010241500,7.148241455078125,-7.994603157043457,-13.50762939453125,-8.57913589477539
1761487623027052800,7.165052734375,-5.203670978546143,-12.211594581604004,-8.518535614013672
1761487623043907600,7.181907470703125,-3.8263983726501465,-10.28605842590332,-7.969352722167969
1761487623060727600,7.1987275390625,-3.372953414916992,-8.763999938964844,-6.401279449462891
1761487623077551400,7.21555126953125,-2.6467599868774414,-7.930457592010498,-4.4607954025268555
1761487623094358800,7.23235888671875,-1.1603951454162598,-7.622405052185059,-3.271956205368042
1761487623111200500,7.249200439453125,-0.017304420471191406,-7.258575916290283,-2.5097239017486572
1761487623128014800,7.266014892578125,-0.7821941375732422,-6.5871052742004395,-2.7918150424957275
1761487623144849400,7.282849365234375,-2.7899770736694336,-6.099839687347412,-3.285909652709961
1761487623161663500,7.29966357421875,-4.138882637023926,-5.2028045654296875,-3.7319533824920654
1761487623178496800,7.316496826171875,-4.595613479614258,-3.8526968955993652,-4.6698126792907715
1761487623195319800,7.33331982421875,-5.687637805938721,-3.0333709716796875,-5.721225738525391
1761487623212141000,7.35014111328125,-7.449473857879639,-3.3016276359558105,-6.268609046936035
1761487623228964900,7.36696484375,-8.043875694274902,-3.6226606369018555,-6.4842329025268555
1761487623245780000,7.383780029296875,-6.708189964294434,-3.6380255222320557,-6.583091735839844
1761487623262612700,7.40061279296875,-5.423693656921387,-2.7683944702148438,-7.0370192527771
1761487623279446500,7.417446533203125,-6.504406929016113,-2.316783905029297,-6.735779762268066
1761487623296265000,7.434264892578125,-7.696833610534668,-2.452585458755493,-6.7646379470825195
1761487623313089300,7.45108935546875,-5.8116559982299805,-1.3288147449493408,-7.153658866882324
1761487623329914400,7.467914306640625,-0.2998523712158203,0.8312289714813232,-5.316347122192383
1761487623346722300,7.484722412109375,7.462176322937012,5.438018321990967,-4.657388687133789
1761487623363572000,7.501572021484375,17.2799072265625,10.307857513427734,-6.884590148925781
1761487623380372500,7.51837255859375,30.088651657104492,13.203506469726562,-3.1053848266601562
1761487623397195000,7.535195068359375,40.49919128417969,11.910120010375977,5.166001319885254
1761487623414019300,7.552019287109375,43.71038055419922,7.986754894256592,10.260344505310059
1761487623430843600,7.56884375,44.69056701660156,8.56977367401123,10.697198867797852
1761487623447667700,7.585667724609375,48.686458587646484,6.320216178894043,13.130060195922852
1761487623464491500,7.602491455078125,49.210838317871094,1.1855416297912598,17.56305503845215
1761487623481315600,7.619315673828125,39.68472671508789,-2.3894176483154297,20.74590492248535
1761487623498140000,7.636139892578125,24.285327911376953,-1.7864181995391846,18.9646053314209
1761487623514964000,7.6529638671875,11.936763763427734,-0.08318138122558594,13.335945129394531
1761487623531807500,7.669807373046875,4.464358806610107,0.3943753242492676,7.317841529846191
1761487623548625700,7.686625732421875,0.24152755737304688,-0.03415536880493164,3.124969482421875
1761487623565450200,7.7034501953125,-3.115861415863037,-1.2254738807678223,1.1052360534667969
1761487623582274000,7.720274169921875,-4.929167747497559,-2.675631523132324,0.0012526214122772217
1761487623599097300,7.737097412109375,-4.92983341217041,-5.2643232345581055,-0.3059539198875427
1761487623615918000,7.75391796875,-4.288495063781738,-8.267356872558594,0.28852927684783936
1761487623632750000,7.77075,-4.946325302124023,-11.678205490112305,1.4854812622070312
1761487623649553700,7.7875537109375,-5.850339412689209,-13.979817390441895,1.567324161529541
1761487623666394000,7.80439404296875,-6.772890090942383,-13.953333854675293,-1.1744558811187744
1761487623683210000,7.8212099609375,-8.761316299438477,-13.416061401367188,-4.905471324920654
1761487623700050200,7.83805029296875,-11.880191802978516,-13.032632827758789,-8.375343322753906
1761487623716862500,7.854862548828125,-13.52505874633789,-12.559663772583008,-10.144831657409668
1761487623733711000,7.871711181640625,-12.570446014404297,-12.259798049926758,-10.577091217041016
1761487623750511000,7.888510986328125,-9.723554611206055,-12.554059982299805,-10.648521423339844
1761487623767342800,7.9053427734375,-6.316793918609619,-13.033246994018555,-10.828937530517578
1761487623784155000,7.92215478515625,-3.732421875,-13.105152130126953,-11.270379066467285
1761487623800994800,7.938994873046875,-2.2920494079589844,-12.364166259765625,-11.846200942993164
1761487623817811000,7.95581103515625,-1.8514750003814697,-11.418834686279297,-11.818596839904785
1761487623834635000,7.972635009765625,-1.769479751586914,-10.618432998657227,-10.860954284667969
1761487623851459300,7.989459228515625,-1.6039495468139648,-9.156856536865234,-9.906354904174805
1761487623868276200,8.006276123046876,-1.9828543663024902,-7.5281500816345215,-9.369474411010742
1761487623885096200,8.02309619140625,-3.0680384635925293,-6.013340950012207,-9.568720817565918
1761487623901917400,8.03991748046875,-4.26993465423584,-4.91802453994751,-10.112597465515137
1761487623918741800,8.05674169921875,-4.106165885925293,-3.8079755306243896,-11.175962448120117
1761487623935564500,8.073564453125,-3.6952927112579346,-2.787564754486084,-11.74128532409668
1761487623952390400,8.090390380859375,-3.3043670654296875,-2.149815320968628,-11.37575912475586
1761487623969213700,8.107213623046874,-3.5405569076538086,-1.584014892578125,-10.824702262878418
1761487623986034700,8.12403466796875,-4.014304161071777,-1.2072367668151855,-11.175796508789062
1761487624002865000,8.140864990234375,-4.050116062164307,0.267650842666626,-12.949780464172363
1761487624019703000,8.157703125,-2.3617396354675293,2.4962265491485596,-13.305935859680176
1761487624036523300,8.174523193359375,4.046061992645264,3.795377492904663,-8.998321533203125
1761487624053331500,8.19133154296875,16.960376739501953,3.3251094818115234,-4.100802898406982
1761487624070171600,8.208171630859376,26.602325439453125,2.742607593536377,-2.869089126586914
1761487624086995700,8.22499560546875,27.396114349365234,5.329465866088867,-8.181497573852539
1761487624103819800,8.24181982421875,34.40139389038086,8.823949813842773,-12.993003845214844
1761487624120644600,8.25864453125,60.56770706176758,3.6266496181488037,-3.875725030899048
1761487624137468000,8.275468017578126,71.52642822265625,-7.510665416717529,14.927610397338867
1761487624154292000,8.2922919921875,56.08404541015625,-10.363956451416016,31.5755615234375
1761487624171099600,8.309099609375,37.0170783996582,-9.823188781738281,37.38972854614258
1761487624187936300,8.325936279296876,29.513879776000977,-11.288450241088867,31.94544792175293
1761487624204765700,8.342765625,21.606964111328125,-11.547919273376465,19.566085815429688
1761487624221591000,8.359591064453125,13.497855186462402,-10.204029083251953,7.897568702697754
1761487624238387200,8.37638720703125,6.950469970703125,-8.658232688903809,1.9881091117858887
1761487624255245800,8.393245849609375,0.9652881622314453,-7.279871463775635,0.4801614284515381
1761487624272057000,8.41005712890625,-5.588970184326172,-6.656997203826904,-0.16216182708740234
1761487624288888000,8.42688818359375,-9.386069297790527,-6.121820449829102,-0.5723848342895508
1761487624305718000,8.443718017578124,-10.4598388671875,-7.224483489990234,0.2019486427307129
1761487624322533400,8.460533447265625,-10.299924850463867,-9.482464790344238,0.7395200729370117
1761487624339351300,8.477351318359375,-8.569855690002441,-10.121526718139648,-0.32108545303344727
1761487624356170800,8.494170654296875,-6.6712236404418945,-8.469103813171387,-2.3215205669403076
1761487624372977200,8.51097705078125,-5.353798866271973,-6.829521179199219,-3.667820692062378
1761487624389815600,8.527815673828124,-5.491304397583008,-5.5240349769592285,-4.225856304168701
1761487624406626600,8.54462646484375,-7.463316440582275,-5.345033168792725,-3.8371150493621826
1761487624423458300,8.561458251953125,-8.860725402832031,-5.086182594299316,-3.9084908962249756
1761487624440287700,8.578287841796875,-9.179572105407715,-5.5283732414245605,-3.531162977218628
1761487624457111800,8.59511181640625,-9.21135139465332,-6.5223565101623535,-3.091522693634033
1761487624473935400,8.611935302734375,-8.829710006713867,-7.630626201629639,-3.5528078079223633
1761487624490760000,8.628760009765625,-8.581746101379395,-8.325043678283691,-4.532113075256348
1761487624507601200,8.64560107421875,-8.006148338317871,-7.775349140167236,-5.9924774169921875
1761487624524421600,8.662421630859376,-7.4371161460876465,-7.295165061950684,-7.2353973388671875
1761487624541241600,8.67924169921875,-7.269834041595459,-7.145194053649902,-7.743549346923828
1761487624558074400,8.696074462890625,-6.899627208709717,-7.368108749389648,-7.226330280303955
1761487624574893600,8.7128935546875,-6.855419158935547,-8.091178894042969,-6.066500663757324
1761487624591718400,8.729718505859376,-7.039721965789795,-8.82015609741211,-5.3148193359375
1761487624608542000,8.7465419921875,-6.827428340911865,-8.847073554992676,-5.032770156860352
1761487624625366000,8.763365966796876,-6.358537197113037,-8.387986183166504,-4.940129280090332
1761487624642214100,8.780214111328124,-5.8056721687316895,-8.158147811889648,-5.030183792114258
1761487624659014400,8.797014404296876,-5.554239749908447,-8.205950736999512,-5.053040981292725
1761487624675838000,8.813837890625,-5.789467811584473,-8.186556816101074,-5.205693244934082
1761487624692662300,8.830662353515624,-6.0596513748168945,-7.699899673461914,-5.318025588989258
1761487624709497300,8.847497314453125,-5.287416934967041,-7.655542373657227,-5.31012487411499
1761487624726310700,8.864310546875,-4.730814456939697,-8.387474060058594,-4.537137985229492
1761487624743134000,8.881134033203125,-3.4607505798339844,-8.640829086303711,-3.514883279800415
1761487624759958500,8.89795849609375,-2.13626766204834,-8.019257545471191,-3.5271522998809814
1761487624776766200,8.91476611328125,-0.36637401580810547,-4.827054977416992,-6.15301513671875
1761487624793607200,8.931607177734374,4.874493598937988,1.5107851028442383,-10.704026222229004
1761487624810430500,8.948430419921875,9.98720645904541,3.16204571723938,-9.824333190917969
1761487624827254800,8.9652548828125,11.966293334960938,2.215353012084961,-5.809607982635498
1761487624844079000,8.9820791015625,15.272732734680176,1.0274581909179688,-2.1284303665161133
1761487624860886300,8.99888623046875,26.057823181152344,0.6772851943969727,1.529738187789917
1761487624877713200,9.015713134765624,33.52949523925781,-2.728886842727661,2.821204900741577
1761487624894537500,9.032537353515625,36.19900894165039,-5.661548137664795,1.8129584789276123
1761487624911361500,9.049361572265624,37.56534957885742,-4.614656448364258,2.699716567993164
1761487624928186000,9.06618603515625,36.09572982788086,-6.3540568351745605,6.2896904945373535
1761487624945009700,9.083009765625,29.72667694091797,-6.740828990936279,6.616096019744873
1761487624961834000,9.099833984375,19.21450424194336,-4.732576370239258,2.7256853580474854
1761487624978657800,9.11665771484375,6.618521690368652,-1.8355218172073364,-1.1559797525405884
1761487624995504400,9.13350439453125,-2.7642016410827637,0.48361051082611084,-1.9735263586044312
1761487625012319500,9.150319580078126,-6.910246849060059,-0.4237011671066284,-2.4111239910125732
1761487625029143600,9.1671435546875,-3.847777843475342,-0.6474330425262451,-2.6127467155456543
1761487625045991000,9.183990966796875,-0.43986988067626953,-0.4559866189956665,-2.3392059803009033
1761487625062791400,9.20079150390625,0.024236679077148438,-0.7322673201560974,-1.6470690965652466
1761487625079612000,9.21761181640625,-1.7022886276245117,-1.5521882772445679,-0.8790100812911987
1761487625096444200,9.234444091796876,-3.9333410263061523,-1.7720907926559448,-0.28426891565322876
1761487625113263900,9.251263916015626,-7.599285125732422,-2.625025749206543,-0.3822179436683655
1761487625130069800,9.26806982421875,-9.463173866271973,-3.126654624938965,-0.24761003255844116
1761487625151153400,9.2891533203125,-7.081501007080078,-3.368584394454956,-1.4744378328323364
1761487625167915000,9.3059150390625,-6.906347274780273,-3.302100419998169,-1.6600079536437988
1761487625184754200,9.322754150390624,-6.055176258087158,-3.6346616744995117,-1.5917847156524658
1761487625201579500,9.33957958984375,-5.540323257446289,-3.9789953231811523,-1.1091535091400146
1761487625218401500,9.356401611328126,-6.455297470092773,-4.256610870361328,-0.25019800662994385
1761487625235233000,9.37323291015625,-6.812215805053711,-2.654620409011841,-1.2880240678787231
1761487625252046600,9.390046630859375,-8.192208290100098,-3.564000129699707,-1.8550355434417725
1761487625268878300,9.40687841796875,-8.941441535949707,-4.28384256362915,-1.594989538192749
1761487625285715000,9.42371484375,-8.783302307128906,-5.070166110992432,-0.5831887722015381
1761487625302548500,9.440548583984375,-8.204020500183105,-5.3604302406311035,0.3785303831100464
1761487625319359700,9.45735986328125,-6.506226539611816,-4.995460510253906,1.0074520111083984
1761487625336180700,9.4741806640625,-6.131745338439941,-3.68479061126709,1.1158509254455566
1761487625352994800,9.490994873046875,-5.171268939971924,-3.033496856689453,0.7598696351051331
1761487625369818400,9.507818359375,-4.816289901733398,-2.94533371925354,0.47312307357788086
1761487625386642400,9.524642333984374,-5.353606224060059,-3.4921388626098633,0.37712955474853516
1761487625403467500,9.541467529296876,-5.083756446838379,-4.008578777313232,0.5683450102806091
1761487625420290300,9.558290283203124,-4.960873603820801,-3.6730921268463135,0.011229753494262695
1761487625437114600,9.575114501953125,-5.594393730163574,-3.3606958389282227,-0.9552578926086426
1761487625453938700,9.591938720703125,-5.717238903045654,-3.200242042541504,-1.1294106245040894
1761487625470763800,9.608763671875,-5.84007453918457,-2.9721808433532715,-0.8792335987091064
1761487625487590100,9.625590087890625,-6.052332878112793,-3.025935173034668,-1.1466045379638672
1761487625504420400,9.64242041015625,-5.3594183921813965,-2.694227695465088,-2.0481863021850586
1761487625521236200,9.659236328125,-3.5556325912475586,-1.0624995231628418,-3.4172701835632324
1761487625538046200,9.676046142578125,0.7941064834594727,1.8124542236328125,-4.524101734161377
1761487625554875600,9.692875732421875,-2.2471771240234375,-1.3001923561096191,-1.668376088142395
1761487625571725000,9.70972509765625,-1.6503705978393555,-1.158477783203125,-1.1146824359893799
1761487625588544500,9.72654443359375,2.692272186279297,1.7142775058746338,-2.074131727218628
1761487625605370400,9.743370361328125,4.412779808044434,1.0727810859680176,-2.97459077835083
1761487625622193400,9.760193359375,6.059299468994141,5.480127811431885,-5.546191215515137
