time,seconds_elapsed,z,y,x
1761487074307900200,0.212900146484375,-1.1100316047668457,0.6326724290847778,-1.0896730422973633
1761487074324725200,0.229725341796875,-1.0207653045654297,0.8876233100891113,-1.356865406036377
1761487074341524700,0.246524658203125,-0.9012002944946289,1.0983259677886963,-1.835531234741211
1761487074358364000,0.263364013671875,-1.0105295181274414,1.140913486480713,-2.119227409362793
1761487074375198700,0.28019873046875,-1.2112655639648438,1.0186975002288818,-2.1154732704162598
1761487074392024300,0.2970244140625,-1.138291358947754,0.9212155938148499,-1.9633581638336182
1761487074408831700,0.313831787109375,-1.1206026077270508,0.9023792147636414,-1.7917797565460205
1761487074425672400,0.33067236328125,-0.3686389923095703,0.8483057022094727,-1.9481728076934814
1761487074442498600,0.34749853515625,0.45650577545166016,0.7535463571548462,-1.7124390602111816
1761487074459328800,0.364328857421875,0.43126583099365234,0.12543991208076477,-1.4812672138214111
1761487074476148000,0.38114794921875,2.9225597381591797,0.05427831411361694,-2.13545823097229
1761487074492973000,0.39797314453125,5.81485652923584,2.095435380935669,-2.0304012298583984
1761487074509782000,0.414781982421875,10.086204528808594,2.4691545963287354,0.18313002586364746
1761487074526623500,0.43162353515625,14.119521141052246,2.3874688148498535,3.1463913917541504
1761487074543447000,0.448447021484375,20.448867797851562,0.8137094974517822,4.843613624572754
1761487074560272100,0.465272216796875,27.290966033935547,2.142181396484375,5.478659629821777
1761487074577091300,0.48209130859375,33.10102462768555,3.000307559967041,5.138351917266846
1761487074593917000,0.4989169921875,25.141246795654297,-3.7611031532287598,4.700822830200195
1761487074610752000,0.515751953125,22.626977920532227,-0.527394711971283,3.648165464401245
1761487074627571700,0.53257177734375,12.265673637390137,0.47581326961517334,1.2163543701171875
1761487074644396500,0.549396484375,3.502383232116699,0.8782563209533691,-1.1422308683395386
1761487074661205000,0.566205078125,-2.43316650390625,-0.9281330108642578,-0.9428004026412964
1761487074678044400,0.58304443359375,-5.906383514404297,-2.738048553466797,0.3231024742126465
1761487074694872300,0.599872314453125,-6.834508419036865,-3.1444194316864014,0.9592738151550293
1761487074711678700,0.6166787109375,-5.633819580078125,-3.4184176921844482,1.9956581592559814
1761487074728507100,0.633507080078125,-4.842377662658691,-5.231768608093262,3.2862532138824463
1761487074745331500,0.65033154296875,-5.744816780090332,-7.121356010437012,2.5484282970428467
1761487074762153200,0.6671533203125,-7.475536823272705,-9.197437286376953,1.343543291091919
1761487074778984400,0.683984375,-8.339371681213379,-11.411149978637695,-1.491576910018921
1761487074795806500,0.700806396484375,-8.96904468536377,-11.775325775146484,-4.769234657287598
1761487074812617500,0.717617431640625,-8.95607852935791,-12.001165390014648,-6.3440961837768555
1761487074829455600,0.73445556640625,-9.443166732788086,-14.339508056640625,-5.232733726501465
1761487074846280400,0.751280517578125,-9.960569381713867,-15.509132385253906,-5.520483016967773
1761487074863119000,0.768119140625,-11.178728103637695,-16.442819595336914,-6.262534141540527
1761487074879948000,0.784947998046875,-12.458427429199219,-17.711009979248047,-6.360599040985107
1761487074896768800,0.801768798828125,-12.401041030883789,-17.627592086791992,-7.5360002517700195
1761487074913589800,0.81858984375,-10.400928497314453,-16.315982818603516,-8.326248168945312
1761487074930406100,0.83540625,-8.210620880126953,-16.481281280517578,-7.585721015930176
1761487074947243300,0.8522431640625,-6.5517048835754395,-16.291635513305664,-6.491457939147949
1761487074964052000,0.869052001953125,-5.82504940032959,-16.113759994506836,-5.671291351318359
1761487074980893000,0.885892822265625,-6.217910289764404,-15.268688201904297,-5.8343987464904785
1761487074997718300,0.90271826171875,-7.250053882598877,-14.080973625183105,-6.433274745941162
1761487075014544400,0.91954443359375,-7.560579299926758,-12.825311660766602,-6.762983798980713
1761487075031364400,0.9363642578125,-7.530637264251709,-11.662222862243652,-6.451785087585449
1761487075048195300,0.9531953125,-6.895754814147949,-10.51618480682373,-5.484681129455566
1761487075065017300,0.970017333984375,-6.03249454498291,-9.1784086227417,-4.317694664001465
1761487075081841200,0.986841064453125,-5.167922496795654,-8.144719123840332,-3.636669158935547
1761487075098666500,1.00366650390625,-4.083619117736816,-7.391958236694336,-3.3716559410095215
1761487075115487500,1.020487548828125,-0.5643200874328613,-5.269299030303955,-2.2554969787597656
1761487075132320800,1.03732080078125,5.445943832397461,-1.5994372367858887,2.1215438842773438
1761487075149124000,1.0541240234375,13.754231452941895,1.5372675657272339,9.380518913269043
1761487075165965800,1.0709658203125,18.660131454467773,4.3900933265686035,14.08586311340332
1761487075182790700,1.087790771484375,20.120595932006836,7.067799091339111,17.720457077026367
1761487075199598600,1.1045986328125,22.75014305114746,8.564491271972656,23.148733139038086
1761487075216423200,1.121423095703125,27.397506713867188,10.720887184143066,28.53812599182129
1761487075233254700,1.138254638671875,33.16157150268555,12.794686317443848,33.58890914916992
1761487075250076400,1.155076416015625,38.43864822387695,12.600167274475098,39.00322341918945
1761487075266901200,1.1719013671875,34.92278289794922,10.495551109313965,39.05902862548828
1761487075283725800,1.188725830078125,29.12370491027832,9.149109840393066,33.66129684448242
1761487075300550700,1.205550537109375,25.151857376098633,6.637393951416016,29.164226531982422
1761487075317375500,1.22237548828125,21.505935668945312,3.6729421615600586,24.742189407348633
1761487075334200800,1.239200927734375,14.820023536682129,-0.2072637677192688,18.72292137145996
1761487075351039200,1.256039306640625,7.950072765350342,-4.3611741065979,11.291004180908203
1761487075367875000,1.272875,1.838747501373291,-8.20543384552002,3.833491802215576
1761487075384686000,1.28968603515625,-3.025899887084961,-11.595804214477539,-1.4961051940917969
1761487075401501200,1.306501220703125,-4.857181072235107,-13.605005264282227,-3.6575794219970703
1761487075418338000,1.323338134765625,-3.661147356033325,-15.164495468139648,-3.8242032527923584
1761487075435159300,1.3401591796875,-1.871084451675415,-17.043088912963867,-4.455299377441406
1761487075451992000,1.356991943359375,-1.8182597160339355,-19.804431915283203,-6.581457138061523
1761487075468813000,1.37381298828125,-3.4210948944091797,-22.069978713989258,-8.924057960510254
1761487075485638400,1.390638427734375,-6.395887851715088,-23.18695831298828,-11.016853332519531
1761487075502461400,1.40746142578125,-7.759886264801025,-23.488468170166016,-12.277753829956055
1761487075519274800,1.424274658203125,-6.670948028564453,-23.91507339477539,-12.362189292907715
1761487075536107500,1.441107421875,-4.76897668838501,-24.264251708984375,-12.23009967803955
1761487075552941300,1.45794140625,-2.923814535140991,-24.260055541992188,-11.956757545471191
1761487075569761800,1.47476171875,-0.9507378339767456,-23.111251831054688,-12.326513290405273
1761487075586586400,1.49158642578125,0.5906364917755127,-21.53317642211914,-11.821806907653809
1761487075603411500,1.508411376953125,1.6348446607589722,-20.019855499267578,-9.951080322265625
1761487075620231400,1.5252314453125,1.1979494094848633,-18.54341697692871,-7.721055030822754
1761487075637065000,1.54206494140625,0.12581327557563782,-17.069618225097656,-5.751454830169678
1761487075653896700,1.558896728515625,-1.5466885566711426,-15.577910423278809,-4.260684967041016
1761487075670702000,1.5757021484375,-3.218763589859009,-14.223306655883789,-4.278545379638672
1761487075687517400,1.592517333984375,-3.518742799758911,-12.92911148071289,-5.112000942230225
1761487075704349700,1.609349609375,-3.364954948425293,-12.131641387939453,-5.167140960693359
1761487075721171200,1.626171142578125,-3.0331501960754395,-11.698328018188477,-4.307408332824707
1761487075737996500,1.64299658203125,-2.184648036956787,-11.33067798614502,-2.444945812225342
1761487075754828800,1.659828857421875,-1.3041937351226807,-10.226664543151855,-1.429985523223877
1761487075771641300,1.676641357421875,-0.9404721260070801,-8.918421745300293,-1.8282122611999512
1761487075788475000,1.693474853515625,0.557952880859375,-6.6488142013549805,-2.481471061706543
1761487075805295600,1.710295654296875,4.346994400024414,-4.189294815063477,2.067101001739502
1761487075822120000,1.727119873046875,7.343362331390381,-2.1554114818573,9.080100059509277
1761487075838936600,1.7439365234375,10.141260147094727,0.17162513732910156,15.463387489318848
1761487075855786200,1.7607861328125,13.131683349609375,0.28166326880455017,20.385324478149414
1761487075872606200,1.777606201171875,17.595306396484375,0.3574112355709076,23.383665084838867
1761487075889416200,1.794416259765625,25.321977615356445,1.0997319221496582,27.842248916625977
1761487075906258000,1.8112578125,33.01571273803711,2.346853256225586,31.724498748779297
1761487075923083000,1.8280830078125,35.190452575683594,3.467754364013672,32.86173629760742
1761487075939907800,1.844907958984375,30.179962158203125,3.752363443374634,30.068805694580078
1761487075956732200,1.861732177734375,21.222721099853516,3.9846270084381104,22.986743927001953
1761487075973557500,1.8785576171875,13.841177940368652,4.210005283355713,15.999250411987305
1761487075990348300,1.895348388671875,10.089948654174805,4.046780586242676,10.906563758850098
1761487076007194600,1.912194580078125,8.809313774108887,3.9634647369384766,6.597247123718262
1761487076024031700,1.92903173828125,8.288057327270508,4.175018310546875,2.7175559997558594
1761487076040851700,1.945851806640625,7.27482795715332,4.347803115844727,-0.1740131378173828
1761487076057685800,1.962685791015625,4.808852195739746,3.682492733001709,-2.379955291748047
1761487076074491400,1.979491455078125,0.9892396926879883,2.222290515899658,-4.416459083557129
1761487076091314200,1.996314208984375,-2.764362096786499,0.9301344156265259,-6.616066932678223
1761487076108155600,2.01315576171875,-5.819485664367676,-0.6374074816703796,-8.012529373168945
1761487076124980500,2.02998046875,-7.142959117889404,-1.4996309280395508,-8.759225845336914
1761487076141801500,2.046801513671875,-7.102617263793945,-1.8313617706298828,-8.800135612487793
1761487076158634000,2.063634033203125,-6.476668834686279,-2.3782763481140137,-8.291988372802734
1761487076175436000,2.08043603515625,-5.042060375213623,-2.4772748947143555,-8.522335052490234
1761487076190150000,2.09514990234375,-4.466433525085449,-2.5828490257263184,-9.028158187866211
1761487076206976800,2.111976806640625,-4.69150447845459,-3.463383197784424,-8.045512199401855
1761487076223816200,2.128816162109375,-5.0119805335998535,-5.011257171630859,-7.030951976776123
1761487076240639700,2.1456396484375,-5.909976959228516,-5.502129554748535,-5.949413299560547
1761487076257454600,2.16245458984375,-5.486636638641357,-6.575697422027588,-5.619757175445557
1761487076274289400,2.179289306640625,-5.940795421600342,-7.559086799621582,-5.958421230316162
1761487076291114000,2.196114013671875,-6.319971561431885,-8.233497619628906,-6.547062873840332
1761487076307938800,2.212938720703125,-6.529984474182129,-9.3156099319458,-7.243908405303955
1761487076324763600,2.229763671875,-7.420464515686035,-10.894390106201172,-7.233822345733643
1761487076341604400,2.246604248046875,-7.73353910446167,-11.66993522644043,-6.937840461730957
1761487076358427000,2.263427001953125,-8.182751655578613,-13.275762557983398,-5.997343063354492
1761487076375235000,2.280235107421875,-8.104172706604004,-13.901996612548828,-5.614060401916504
1761487076392076500,2.29707666015625,-8.61290168762207,-14.312036514282227,-6.083919048309326
1761487076408901600,2.313901611328125,-9.595088958740234,-14.726421356201172,-6.624128341674805
1761487076425730800,2.330730712890625,-10.045414924621582,-15.01794147491455,-6.826793670654297
1761487076442551300,2.34755126953125,-9.654535293579102,-15.248180389404297,-5.73316764831543
1761487076459359500,2.364359375,-9.200779914855957,-14.656941413879395,-3.7836265563964844
1761487076476201000,2.381200927734375,-9.459157943725586,-13.879444122314453,-2.9731972217559814
1761487076493025500,2.398025634765625,-9.297521591186523,-12.567302703857422,-1.3150558471679688
1761487076509813200,2.414813232421875,-6.3616108894348145,-11.679607391357422,4.03880500793457
1761487076526675500,2.431675537109375,-1.8327653408050537,-11.570728302001953,10.925872802734375
1761487076543500000,2.4485,4.340726375579834,-11.772671699523926,18.645532608032227
1761487076560325000,2.4653251953125,8.408823013305664,-10.78009033203125,22.1319580078125
1761487076577151700,2.48215185546875,13.042158126831055,-10.198782920837402,24.0706787109375
1761487076593974500,2.498974609375,21.8751220703125,-8.587092399597168,30.59823226928711
1761487076610787300,2.515787353515625,30.561796188354492,-4.172949314117432,38.183616638183594
1761487076627624000,2.5326240234375,30.502046585083008,-0.9315780401229858,41.636619567871094
1761487076644449300,2.54944921875,22.586652755737305,2.1681931018829346,35.368690490722656
1761487076661274000,2.566274169921875,17.249250411987305,4.2783589363098145,26.538616180419922
1761487076678070300,2.5830703125,17.137540817260742,5.462120056152344,21.259103775024414
1761487076694909700,2.59990966796875,16.856216430664062,8.356239318847656,16.635372161865234
1761487076711734500,2.616734619140625,14.74842643737793,10.611505508422852,15.375177383422852
1761487076728559600,2.6335595703125,10.86229133605957,11.1648588180542,15.197577476501465
1761487076745391400,2.650391357421875,5.069881439208984,11.609821319580078,9.664414405822754
1761487076762208500,2.66720849609375,-0.02857804298400879,11.133188247680664,2.417827606201172
1761487076779034000,2.6840341796875,-2.319410562515259,9.017168045043945,-2.7242937088012695
1761487076795858700,2.700858642578125,-1.632824182510376,6.310402870178223,-5.592062950134277
1761487076812683500,2.71768359375,-0.09013795852661133,4.394031524658203,-7.579961776733398
1761487076829523500,2.7345234375,0.6799027919769287,2.8775713443756104,-9.09183406829834
1761487076846347000,2.751346923828125,0.654376745223999,1.4727826118469238,-10.45518684387207
1761487076863168800,2.768168701171875,0.05784344673156738,0.31137287616729736,-11.810493469238281
1761487076879999700,2.784999755859375,-1.6305443048477173,-0.588623046875,-13.26915168762207
1761487076896804900,2.801804931640625,-3.544110059738159,-1.5610814094543457,-14.438981056213379
1761487076913645800,2.818645751953125,-5.080796241760254,-2.6257786750793457,-15.166810035705566
1761487076930470700,2.835470703125,-5.870535850524902,-3.496924877166748,-15.377252578735352
1761487076947294700,2.852294677734375,-6.4411211013793945,-4.090106964111328,-15.469669342041016
1761487076964121900,2.869121826171875,-6.621523380279541,-4.486883640289307,-15.40613079071045
1761487076980928800,2.8859287109375,-5.978783130645752,-4.494823455810547,-15.019034385681152
1761487076997770000,2.90277001953125,-5.412109851837158,-4.171743869781494,-14.615640640258789
1761487077014591700,2.919591796875,-5.019757270812988,-3.913071632385254,-13.911215782165527
1761487077031422700,2.936422607421875,-5.013640403747559,-3.3985402584075928,-13.339494705200195
1761487077048228000,2.95322802734375,-5.099143028259277,-2.757633686065674,-12.825091361999512
1761487077065069300,2.9700693359375,-5.309240341186523,-2.1111655235290527,-12.276178359985352
1761487077081877800,2.986877685546875,-5.180507659912109,-1.6080938577651978,-11.272997856140137
1761487077098719000,3.003718994140625,-4.651027679443359,-1.057755708694458,-9.69063949584961
1761487077115543600,3.02054345703125,-3.1823744773864746,-0.019447922706604004,-7.616885185241699
1761487077132369200,3.037369140625,-1.4625375270843506,1.2870416641235352,-5.110918998718262
1761487077149179400,3.054179443359375,1.2460007667541504,2.679976463317871,-0.7646083831787109
1761487077166016500,3.0710166015625,4.631217002868652,2.230389356613159,5.835821151733398
1761487077182831400,3.087831298828125,9.643533706665039,2.310737133026123,11.154600143432617
1761487077199639300,3.104639404296875,13.230913162231445,3.2208476066589355,14.340320587158203
1761487077216482000,3.12148193359375,12.63701057434082,1.1463450193405151,18.297531127929688
1761487077233303600,3.138303466796875,13.048615455627441,0.9838155508041382,23.267780303955078
1761487077250129000,3.15512890625,17.170251846313477,1.7593222856521606,29.97699737548828
1761487077266953500,3.171953369140625,22.558216094970703,3.0702052116394043,35.70752716064453
1761487077283778600,3.188778564453125,25.25605010986328,2.5237698554992676,37.111114501953125
1761487077300603000,3.205602783203125,24.614402770996094,0.7186389565467834,33.34172058105469
1761487077317443600,3.222443603515625,20.590673446655273,-0.6471883058547974,28.205551147460938
1761487077334250800,3.239250732421875,12.666879653930664,-2.390866279602051,21.621999740600586
1761487077351094300,3.25609423828125,4.109929084777832,-3.0621418952941895,12.4112548828125
1761487077367915800,3.272915771484375,-2.0657565593719482,-4.503358840942383,4.357274532318115
1761487077384742100,3.2897421875,-5.98840856552124,-6.8761396408081055,-0.8975410461425781
1761487077401564400,3.306564453125,-9.798462867736816,-8.634718894958496,-5.071450233459473
1761487077418390500,3.323390625,-12.936922073364258,-10.630084991455078,-7.970104217529297
1761487077435215000,3.340215087890625,-13.594197273254395,-12.645411491394043,-10.072481155395508
1761487077452038400,3.357038330078125,-12.24472427368164,-13.325780868530273,-12.044567108154297
1761487077468867600,3.37386767578125,-11.146916389465332,-13.373805046081543,-13.329835891723633
1761487077485673500,3.390673583984375,-11.10403823852539,-13.523913383483887,-12.857322692871094
1761487077502514400,3.407514404296875,-12.777690887451172,-14.481548309326172,-11.843835830688477
1761487077519340300,3.42434033203125,-14.281225204467773,-14.171990394592285,-12.24708080291748
1761487077536129300,3.44112939453125,-14.309959411621094,-13.439210891723633,-11.996713638305664
1761487077552987600,3.457987548828125,-12.961233139038086,-12.46749496459961,-10.867560386657715
1761487077569815600,3.474815673828125,-11.00680160522461,-11.678186416625977,-9.472052574157715
1761487077586648300,3.4916484375,-8.874107360839844,-10.938642501831055,-8.45207405090332
1761487077603464000,3.5084638671875,-6.728722095489502,-10.038847923278809,-7.837393760681152
1761487077620285400,3.525285400390625,-5.0647172927856445,-8.60586929321289,-7.810791492462158
1761487077637101800,3.542101806640625,-4.042024612426758,-7.176708221435547,-7.833303928375244
1761487077653922000,3.558922119140625,-3.3429999351501465,-5.950159072875977,-7.570164680480957
1761487077670780400,3.575780517578125,-2.6584718227386475,-4.903661251068115,-6.8428778648376465
1761487077687568000,3.59256787109375,-1.8958699703216553,-4.392061710357666,-5.818621635437012
1761487077731736800,3.63673681640625,1.2815827131271362,-2.8638432025909424,-4.625910758972168
1761487077748562200,3.653562255859375,2.041962146759033,-2.0239148139953613,-4.5231828689575195
1761487077765386200,3.67038623046875,2.018988609313965,-1.221434235572815,-4.394219398498535
1761487077782207200,3.687207275390625,2.219054937362671,-0.2512843608856201,-4.006869316101074
1761487077799036200,3.7040361328125,2.471628427505493,0.9821785688400269,-3.293574810028076
1761487077815861800,3.72086181640625,3.6981592178344727,1.6374564170837402,-2.0240478515625
1761487077832682800,3.737682861328125,6.024805545806885,0.6816575527191162,0.42609500885009766
1761487077849524700,3.754524658203125,9.220418930053711,-1.236051082611084,4.830776214599609
1761487077866332400,3.77133251953125,13.85703182220459,0.7382736206054688,10.139923095703125
1761487077883174100,3.788174072265625,17.36161994934082,2.8843696117401123,19.531402587890625
1761487077899998700,3.804998779296875,14.387632369995117,2.477627754211426,28.60465431213379
1761487077916824000,3.821823974609375,8.854045867919922,0.8369326591491699,34.52043914794922
1761487077933621200,3.838621337890625,7.288307189941406,-0.633364200592041,39.37158203125
1761487077950502000,3.855501953125,10.904948234558105,-1.318871021270752,42.882972717285156
1761487077967297800,3.8722978515625,14.807326316833496,-3.263787269592285,42.240177154541016
1761487077984106800,3.889106689453125,15.67253589630127,-4.768542289733887,37.78989028930664
1761487078000947500,3.905947509765625,12.443037986755371,-5.0626220703125,31.300121307373047
1761487078017772800,3.922772705078125,7.816967964172363,-4.777047157287598,24.737781524658203
1761487078034574300,3.93957421875,5.735631942749023,-5.015497207641602,19.658740997314453
1761487078051422200,3.956422119140625,6.87460994720459,-5.074300765991211,13.255391120910645
1761487078068230100,3.973230224609375,9.313512802124023,-5.4636383056640625,6.720120429992676
1761487078085072000,3.99007177734375,9.112737655639648,-7.712345123291016,1.6902751922607422
1761487078101896700,4.006896728515625,4.609879016876221,-10.959489822387695,-1.785780429840088
1761487078118721800,4.0237216796875,-0.6421493291854858,-13.125496864318848,-4.03008508682251
1761487078135520000,4.04052001953125,-3.620701313018799,-14.328683853149414,-5.004384517669678
1761487078152365600,4.057365478515625,-4.080521583557129,-15.646865844726562,-4.482339382171631
1761487078169184500,4.0741845703125,-4.800234317779541,-18.080032348632812,-4.597050666809082
1761487078186007300,4.09100732421875,-5.876516819000244,-19.777833938598633,-7.130982875823975
1761487078202832100,4.10783203125,-6.068947792053223,-20.48680305480957,-11.139608383178711
1761487078219657000,4.124656982421875,-5.525339126586914,-21.4945011138916,-13.677764892578125
1761487078236481500,4.1414814453125,-4.042784214019775,-22.43279266357422,-14.649333953857422
1761487078253306600,4.158306640625,-2.293322801589966,-23.327228546142578,-14.191253662109375
1761487078270131000,4.175130859375,-1.62681245803833,-23.491580963134766,-13.526981353759766
1761487078286958600,4.19195849609375,-1.55373215675354,-22.59789276123047,-13.323671340942383
1761487078303793200,4.208793212890625,-1.6905481815338135,-21.415557861328125,-12.512760162353516
1761487078320623600,4.22562353515625,-1.7170964479446411,-20.162277221679688,-11.000444412231445
1761487078337449200,4.24244921875,-1.8905093669891357,-18.919891357421875,-9.328182220458984
1761487078354270000,4.25927001953125,-2.2917046546936035,-17.84756851196289,-7.843405246734619
1761487078371089700,4.276089599609375,-2.8488783836364746,-16.941001892089844,-6.76564884185791
1761487078387906000,4.292906005859375,-3.5071604251861572,-16.09749412536621,-6.284429550170898
1761487078404743000,4.309742919921875,-3.9810099601745605,-15.391218185424805,-6.472975254058838
1761487078421568300,4.326568359375,-4.009288787841797,-14.690488815307617,-7.076620101928711
1761487078438377200,4.343377197265625,-3.6453070640563965,-13.801505088806152,-7.386966705322266
1761487078455218400,4.360218505859375,-2.9005420207977295,-12.527435302734375,-7.309451580047607
1761487078472042500,4.37704248046875,-1.9721590280532837,-11.422616958618164,-5.816060543060303
1761487078488867600,4.39386767578125,-1.0824337005615234,-10.227510452270508,-3.1018996238708496
1761487078505691600,4.410691650390625,-0.09661412239074707,-8.167081832885742,-0.21949386596679688
1761487078522517200,4.427517333984375,2.608132839202881,-4.904446125030518,4.0885210037231445
1761487078539338500,4.44433837890625,6.873796463012695,-1.4458637237548828,12.557863235473633
1761487078556167000,4.4611669921875,12.611369132995605,1.9846216440200806,26.20307159423828
1761487078572978400,4.477978515625,18.370464324951172,5.869461536407471,31.00828742980957
1761487078589816800,4.49481689453125,26.25582504272461,8.292166709899902,32.47670364379883
1761487078606641200,4.51164111328125,30.965627670288086,7.85608434677124,41.32174301147461
1761487078623462100,4.528462158203125,32.71821975708008,10.778313636779785,51.336669921875
1761487078640294700,4.545294677734375,30.045743942260742,13.230093002319336,55.66024398803711
1761487078657098800,4.5620986328125,22.23905372619629,12.832368850708008,47.26923370361328
1761487078673927000,4.578927001953125,16.027446746826172,12.110613822937012,32.985897064208984
1761487078690758000,4.5957578125,14.506063461303711,9.653482437133789,20.93738555908203
1761487078707563300,4.612563232421875,12.82116985321045,6.53057336807251,10.04325008392334
1761487078724401400,4.6294013671875,8.80488109588623,2.904766798019409,1.2928733825683594
1761487078741224000,4.646223876953125,2.44905424118042,-2.0231716632843018,-4.315463542938232
1761487078758052900,4.663052978515625,-3.679999828338623,-6.115531921386719,-9.518648147583008
1761487078774875400,4.67987548828125,-7.172491073608398,-8.958243370056152,-13.161170959472656
1761487078791700000,4.696699951171875,-9.875120162963867,-10.534883499145508,-15.731616973876953
1761487078808542700,4.713542724609375,-12.896414756774902,-11.80366325378418,-16.840164184570312
1761487078825364700,4.73036474609375,-16.3165225982666,-13.280496597290039,-17.645076751708984
1761487078842188000,4.74718798828125,-17.93320655822754,-13.709196090698242,-19.10023307800293
1761487078859014000,4.764013916015625,-17.673669815063477,-13.633821487426758,-20.18748664855957
1761487078875838000,4.780837890625,-14.86866283416748,-12.843469619750977,-20.215017318725586
1761487078892659000,4.797658935546875,-10.80772876739502,-11.692834854125977,-18.812793731689453
1761487078909491700,4.81449169921875,-6.776075839996338,-10.207476615905762,-16.803726196289062
1761487078926313000,4.83131298828125,-3.894235610961914,-8.722253799438477,-14.684282302856445
1761487078943137800,4.8481376953125,-2.50156569480896,-7.161377906799316,-13.11540699005127
1761487078959964700,4.864964599609375,-2.0209105014801025,-5.687776565551758,-11.72001838684082
1761487078976766000,4.881765869140625,-1.9074269533157349,-4.550749778747559,-10.06920051574707
1761487078993616100,4.8986162109375,-2.250760078430176,-3.8018102645874023,-8.693598747253418
1761487079010429700,4.9154296875,-2.4269654750823975,-3.0720670223236084,-7.866991996765137
1761487079027268600,4.9322685546875,-2.6073577404022217,-2.4574146270751953,-7.416789531707764
1761487079044069400,4.9490693359375,-2.4636125564575195,-1.9842262268066406,-7.39913272857666
1761487079060911600,4.96591162109375,-2.0648293495178223,-1.584108591079712,-7.3277387619018555
1761487079077735700,4.982735595703125,-1.641103982925415,-1.2057139873504639,-7.311670303344727
1761487079094544400,4.99954443359375,-1.403944969177246,-0.7430689334869385,-7.62894344329834
1761487079111385300,5.01638525390625,-0.7692604064941406,-0.4678631126880646,-7.795892715454102
1761487079128206800,5.033206787109375,-0.0314103364944458,-0.19598335027694702,-7.170565605163574
1761487079145022000,5.05002197265625,0.693584680557251,0.09109131246805191,-6.2597832679748535
1761487079161846500,5.066846435546875,1.788496494293213,0.2967890202999115,-5.323371410369873
1761487079178670800,5.0836708984375,2.2508325576782227,0.874528169631958,-4.368475914001465
1761487079195496200,5.10049609375,2.4056456089019775,1.4666016101837158,-2.4854116439819336
1761487079212323800,5.11732373046875,3.7560653686523438,0.25613921880722046,3.145951271057129
1761487079229142300,5.134142333984375,4.882124423980713,-2.755009651184082,12.33470344543457
1761487079245970200,5.15097021484375,4.257582664489746,-4.814724922180176,20.444438934326172
1761487079262792700,5.167792724609375,3.212475538253784,-4.338766098022461,24.876602172851562
1761487079279622400,5.184622314453125,3.103604793548584,-2.8325376510620117,27.947429656982422
1761487079296462300,5.20146240234375,6.515588760375977,-4.42242431640625,35.442413330078125
1761487079313282800,5.21828271484375,10.166866302490234,-3.9706225395202637,38.81204605102539
1761487079330091500,5.235091552734375,10.55181884765625,1.0236772298812866,33.37034606933594
1761487079346933000,5.25193310546875,10.126583099365234,2.56510066986084,30.06896209716797
1761487079363758000,5.268758056640625,8.879785537719727,1.6187573671340942,31.105819702148438
1761487079380582100,5.28558203125,6.63027811050415,1.218199610710144,30.699787139892578
1761487079397410600,5.30241064453125,3.3536951541900635,1.9225467443466187,22.782947540283203
1761487079414232000,5.319232177734375,1.3103771209716797,2.5870678424835205,11.312274932861328
1761487079431040800,5.336040771484375,1.3358099460601807,2.7557437419891357,1.3488121032714844
1761487079447881200,5.352881103515625,1.4636867046356201,2.9149837493896484,-5.592074394226074
1761487079464691200,5.369691162109375,-0.20802688598632812,2.8398962020874023,-10.453911781311035
1761487079481531100,5.38653125,-2.4648656845092773,1.965376615524292,-12.761124610900879
1761487079498324000,5.403323974609375,-3.8032000064849854,1.1000473499298096,-12.999603271484375
1761487079515180300,5.42018017578125,-4.150458812713623,0.4083493947982788,-12.41383171081543
1761487079532006700,5.437006591796875,-4.0162353515625,-0.1154404878616333,-11.427287101745605
1761487079548829200,5.4538291015625,-3.9777638912200928,-0.3234056830406189,-10.355019569396973
1761487079565652700,5.47065283203125,-3.7808287143707275,-0.08208394050598145,-9.311771392822266
1761487079582484200,5.487484130859375,-3.842862367630005,0.6669869422912598,-8.701128959655762
1761487079599291000,5.504290771484375,-3.880516529083252,1.3497576713562012,-7.97273588180542
1761487079616109000,5.521109130859375,-4.486468315124512,0.9449970722198486,-6.530403137207031
1761487079632941800,5.53794189453125,-4.844431400299072,0.6506149768829346,-5.748841285705566
1761487079649752800,5.5547529296875,-5.029160499572754,0.18870902061462402,-5.201814651489258
1761487079666591000,5.571591064453125,-5.260510444641113,-0.6669251918792725,-4.373804092407227
1761487079683401200,5.588401123046875,-5.427268028259277,-1.5759320259094238,-3.9521334171295166
1761487079700240400,5.605240478515625,-3.4955005645751953,-2.321479558944702,-4.547159194946289
1761487079717064700,5.622064697265625,-2.8518505096435547,-1.8118399381637573,-4.207592010498047
1761487079733890000,5.63889013671875,-2.749464988708496,-1.99152672290802,-3.837660551071167
1761487079750714600,5.655714599609375,-4.387093544006348,-2.2961764335632324,-3.6109955310821533
1761487079767539700,5.672539794921875,-5.664332389831543,-2.6091785430908203,-2.749321699142456
1761487079784381200,5.689381103515625,-5.393099308013916,-3.0730443000793457,-2.4127445220947266
1761487079801227500,5.7062275390625,-5.319479942321777,-2.477848529815674,-1.8973802328109741
1761487079818027500,5.723027587890625,-5.3699164390563965,-2.769247531890869,-1.1202387809753418
1761487079834852900,5.739852783203125,-5.9467267990112305,-2.727904796600342,-0.7224324345588684
1761487079851660300,5.756660400390625,-6.215197563171387,-2.736955165863037,-0.06086200475692749
1761487079868499000,5.7734990234375,-5.68962287902832,-2.7794766426086426,0.7996128797531128
1761487079885330200,5.790330078125,-5.651614189147949,-3.7759742736816406,2.1709134578704834
1761487079902135300,5.80713525390625,-4.0510711669921875,-4.180122375488281,3.3526525497436523
1761487079918976500,5.8239765625,-2.134587287902832,-4.1424736976623535,3.872255802154541
1761487079935767000,5.84076708984375,-0.8852949142456055,-4.540033340454102,4.400363445281982
1761487079952629200,5.857629150390625,-0.22347640991210938,-6.035540580749512,5.941988945007324
1761487079969451000,5.874450927734375,0.023476600646972656,-7.154770374298096,7.173834323883057
1761487079986242600,5.89124267578125,2.672821044921875,-3.3237719535827637,4.634472846984863
1761487080003084300,5.908084228515625,8.704712867736816,4.284074306488037,0.7055360078811646
1761487080019908400,5.924908447265625,15.920513153076172,4.242897033691406,0.8667017221450806
1761487080036750600,5.94175048828125,19.957500457763672,2.7696638107299805,2.3424272537231445
1761487080053575200,5.9585751953125,21.586711883544922,4.470005512237549,1.4854116439819336
1761487080070400300,5.975400146484375,19.582475662231445,6.503358840942383,-0.49002110958099365
1761487080087224000,5.99222412109375,17.413026809692383,8.324027061462402,-2.197305679321289
1761487080104065300,6.009065185546875,13.737059593200684,6.900007247924805,-1.8917144536972046
1761487080120856800,6.02585693359375,7.200803756713867,5.0492262840271,-1.715989589691162
1761487080137685800,6.042685791015625,1.689051628112793,3.485426902770996,-2.3649795055389404
1761487080154509800,6.059509765625,-0.6083583831787109,2.708893060684204,-3.9087862968444824
1761487080171325400,6.076325439453125,0.944911003112793,4.265623092651367,-5.213324546813965
1761487080188159500,6.093159423828125,2.596001625061035,4.581015110015869,-3.4790849685668945
1761487080204985000,6.109985107421875,1.3603363037109375,2.724546432495117,-0.17928236722946167
1761487080221809200,6.12680908203125,-1.1756706237792969,1.0304445028305054,1.9998359680175781
1761487080238634500,6.143634521484375,-4.247234344482422,-0.01870572566986084,2.0370986461639404
1761487080255458800,6.160458740234375,-7.271381378173828,-0.8025120496749878,0.5893035531044006
1761487080272295200,6.177295166015625,-9.157750129699707,-1.3319352865219116,-1.1094553470611572
1761487080291197700,6.19619775390625,-9.721075057983398,-2.1990914344787598,-2.8873424530029297
1761487080308024600,6.213024658203125,-9.223929405212402,-2.6867542266845703,-3.0520129203796387
1761487080324864500,6.229864501953125,-8.82835578918457,-3.1997599601745605,-2.9531257152557373
1761487080341687000,6.24668701171875,-8.804348945617676,-4.0732221603393555,-2.414391040802002
1761487080358512000,6.26351220703125,-8.630122184753418,-4.528670787811279,-2.1747889518737793
1761487080375337000,6.2803369140625,-8.01616382598877,-4.6732354164123535,-2.2362220287323
1761487080392161500,6.29716162109375,-7.387572288513184,-4.5342912673950195,-2.355738639831543
1761487080409002200,6.314002197265625,-7.417910099029541,-4.328539848327637,-2.457174777984619
1761487080425825000,6.330824951171875,-7.580704212188721,-4.160351753234863,-2.5214128494262695
1761487080442634800,6.347634765625,-7.612913131713867,-3.9903481006622314,-2.4205451011657715
1761487080459473200,6.36447314453125,-7.563851356506348,-3.7068777084350586,-2.0470175743103027
1761487080476299500,6.381299560546875,-7.801285266876221,-3.783231258392334,-1.5429489612579346
1761487080493126100,6.398126220703125,-7.9844279289245605,-4.077751159667969,-1.236413598060608
1761487080509949200,6.41494921875,-7.967893600463867,-4.192049503326416,-0.8498104810714722
1761487080526773800,6.431773681640625,-7.963857650756836,-4.197768688201904,-0.4812755882740021
1761487080543578600,6.44857861328125,-8.215344429016113,-4.926109790802002,-0.0049340128898620605
1761487080560426500,6.465426513671875,-7.640869617462158,-4.401637554168701,-0.6917796730995178
1761487080577248800,6.482248779296875,-6.830262184143066,-3.8217275142669678,-1.5407731533050537
1761487080594071300,6.4990712890625,-4.081523418426514,-3.4646682739257812,-2.0528204441070557
1761487080610885400,6.515885498046875,-1.572021484375,-3.0036957263946533,-2.1311700344085693
1761487080627709000,6.532708984375,3.8205738067626953,-2.140537977218628,-1.1627678871154785
1761487080644534000,6.549533935546875,4.719264984130859,0.2930948734283447,-1.5437407493591309
1761487080661359000,6.566359130859375,8.21753215789795,-0.546064019203186,-0.02582418918609619
1761487080678183400,6.583183349609375,16.112668991088867,-1.9457616806030273,0.9064220190048218
1761487080694997000,6.5999970703125,20.340351104736328,-3.9104385375976562,1.9364981651306152
1761487080711833300,6.616833251953125,22.294437408447266,-5.878210067749023,3.466576337814331
1761487080728657700,6.63365771484375,25.738771438598633,-4.742094039916992,2.571824550628662
1761487080745469700,6.6504697265625,26.292692184448242,1.9056177139282227,-1.1129193305969238
1761487080762322700,6.66732275390625,20.1942081451416,1.2654576301574707,-0.7915737628936768
1761487080779146000,6.68414599609375,11.751495361328125,-1.5605443716049194,0.7630367279052734
1761487080795955700,6.700955810546875,3.8846073150634766,-1.4355559349060059,-0.6942158341407776
1761487080812781800,6.71778173828125,1.096308708190918,-0.07653963565826416,-3.1467301845550537
1761487080829607700,6.734607666015625,0.5833072662353516,-0.20088696479797363,-4.670881271362305
1761487080846424300,6.75142431640625,0.7014598846435547,0.510469913482666,-4.496418476104736
1761487080863256600,6.768256591796875,0.16973304748535156,1.3980180025100708,-3.473593235015869
1761487080880081000,6.785080810546875,-0.7156896591186523,1.478554129600525,-2.1925461292266846
1761487080896904700,6.80190478515625,-0.8962078094482422,2.45843768119812,-1.4857850074768066
1761487080913721600,6.8187216796875,-1.0972576141357422,3.4503607749938965,-2.0833141803741455
1761487080930566400,6.83556640625,-2.061735153198242,2.8529138565063477,-2.46464467048645
1761487080947372000,6.8523720703125,-3.2434239387512207,2.3026111125946045,-3.023984670639038
1761487080964204500,6.86920458984375,-3.9813032150268555,2.377542018890381,-3.6692023277282715
1761487080981027000,6.886027099609375,-4.852238655090332,2.6874289512634277,-3.9976742267608643
1761487080997853700,6.902853759765625,-5.709372520446777,2.5534040927886963,-3.5469021797180176
1761487081014693400,6.919693359375,-6.591188430786133,1.7822610139846802,-2.7534730434417725
1761487081031518200,6.936518310546875,-7.15831184387207,0.5762835741043091,-2.1588644981384277
1761487081048343000,6.953343017578125,-7.91467809677124,-0.6043721437454224,-1.7959160804748535
1761487081065168000,6.97016796875,-8.915660858154297,-1.7966277599334717,-1.3305065631866455
1761487081081993200,6.9869931640625,-9.929866790771484,-2.7465083599090576,-1.3135173320770264
1761487081098817300,7.0038173828125,-9.81993293762207,-3.0839791297912598,-1.3170503377914429
1761487081115627000,7.020626953125,-10.610130310058594,-3.2032346725463867,-2.3611960411071777
1761487081132453400,7.037453369140625,-10.903289794921875,-3.030219554901123,-2.7607359886169434
1761487081149278200,7.0542783203125,-10.938668251037598,-2.928481101989746,-3.370013952255249
1761487081166102800,7.071102783203125,-10.747797966003418,-3.346035957336426,-2.899055004119873
1761487081182928000,7.087927978515625,-10.222734451293945,-2.7555177211761475,-3.786177635192871
1761487081199752200,7.104752197265625,-9.464028358459473,-1.7054967880249023,-4.7944231033325195
1761487081216577800,7.121577880859375,-9.970930099487305,-2.1201539039611816,-4.0317182540893555
1761487081233402000,7.138402099609375,-9.858591079711914,-2.5049033164978027,-3.052432060241699
1761487081250234600,7.155234619140625,-8.877954483032227,-2.3973851203918457,-2.302370071411133
1761487081267078000,7.172077880859375,-4.396517753601074,-1.4541034698486328,-2.1565356254577637
1761487081283890700,7.188890625,-3.0391879081726074,-1.4056363105773926,-0.18975067138671875
1761487081300681500,7.205681396484375,0.1735706329345703,-1.9438859224319458,1.4833955764770508
1761487081317527600,7.222527587890625,8.320611953735352,0.9583125114440918,1.8319554328918457
1761487081334350800,7.239350830078125,22.34188461303711,7.016437530517578,4.211053371429443
1761487081351176000,7.256176025390625,31.345001220703125,6.314001560211182,11.583030700683594
1761487081368000500,7.27300048828125,38.236778259277344,4.376434326171875,18.534801483154297
1761487081384825600,7.28982568359375,48.338619232177734,2.629765033721924,22.93111801147461
1761487081401648400,7.3066484375,51.912315368652344,1.4094038009643555,22.711036682128906
1761487081418476500,7.3234765625,39.22005844116211,2.6130340099334717,15.608867645263672
1761487081435298300,7.34029833984375,22.000782012939453,4.1658830642700195,9.218133926391602
1761487081452126000,7.3571259765625,11.933956146240234,4.854974746704102,5.922837257385254
1761487081468949500,7.373949462890625,6.5609588623046875,4.159015655517578,3.671290159225464
1761487081485774300,7.3907744140625,2.7166852951049805,3.122915267944336,1.0734496116638184
1761487081502614500,7.407614501953125,-0.3177766799926758,0.6195712089538574,-0.06972789764404297
1761487081519437600,7.4244375,-2.894710063934326,-2.3792245388031006,-0.20272302627563477
1761487081536260000,7.441260009765625,-6.160313129425049,-4.656634330749512,-1.089916706085205
1761487081553089000,7.458089111328125,-8.90597152709961,-5.731194496154785,-2.625532388687134
1761487081569911800,7.474911865234375,-10.693547248840332,-6.13045597076416,-3.6436126232147217
1761487081586720000,7.491719970703125,-11.996570587158203,-6.059025287628174,-4.418886184692383
1761487081603559700,7.5085595703125,-12.566728591918945,-5.987149238586426,-4.67296838760376
1761487081620373200,7.525373291015625,-12.666752815246582,-6.345170497894287,-4.423159122467041
1761487081637197600,7.542197509765625,-12.999391555786133,-7.0608625411987305,-3.8409311771392822
1761487081654022400,7.5590224609375,-13.484464645385742,-8.083456993103027,-3.2698137760162354
1761487081670847200,7.57584716796875,-13.693060874938965,-8.78091049194336,-3.329425096511841
1761487081687672000,7.592672119140625,-13.568232536315918,-9.029867172241211,-4.177516937255859
1761487081704496600,7.60949658203125,-13.141911506652832,-8.952313423156738,-5.03702449798584
1761487081721308400,7.626308349609375,-12.112117767333984,-8.954559326171875,-5.386804580688477
1761487081738146300,7.643146240234375,-10.675725936889648,-8.697141647338867,-5.359297752380371
1761487081754986800,7.65998681640625,-9.793030738830566,-8.48565673828125,-4.751394271850586
1761487081771809800,7.676809814453125,-9.544344902038574,-8.401529312133789,-3.981853723526001
1761487081788616700,7.69361669921875,-9.332090377807617,-8.277170181274414,-3.5729498863220215
1761487081837026600,7.742026611328125,-10.047450065612793,-7.861364364624023,-3.1553282737731934
1761487081853835300,7.758835205078125,-10.548161506652832,-7.5697503089904785,-3.151538848876953
1761487081870654500,7.775654541015625,-11.07629680633545,-7.531026840209961,-2.940286159515381
1761487081887480000,7.79247998046875,-11.485054969787598,-7.411479473114014,-2.7787845134735107
1761487081904264000,7.809263916015625,-11.679606437683105,-7.369881629943848,-2.5112099647521973
1761487081921142500,7.826142578125,-11.273160934448242,-7.490501880645752,-2.1279189586639404
1761487081937948700,7.84294873046875,-10.265573501586914,-6.987852096557617,-1.7107527256011963
1761487081954779400,7.859779296875,-7.919527530670166,-5.812624931335449,-0.4134085178375244
1761487081971603500,7.876603515625,-2.9163970947265625,-4.539825439453125,2.469115734100342
1761487081988409900,7.893409912109375,6.088714599609375,-1.878308892250061,4.068510055541992
1761487082005255200,7.910255126953125,15.819955825805664,1.7120871543884277,6.443520545959473
1761487082022079200,7.927079345703125,25.225627899169922,4.111777305603027,9.114778518676758
1761487082038902300,7.94390234375,37.55239486694336,4.987456798553467,13.676607131958008
1761487082055728000,7.96072802734375,49.854637145996094,4.669538497924805,20.331401824951172
1761487082072548400,7.97754833984375,55.963356018066406,5.8046722412109375,20.536827087402344
1761487082089346600,7.9943466796875,49.78955078125,8.096468925476074,15.462067604064941
1761487082106184400,8.011184326171875,34.551673889160156,8.263190269470215,11.299712181091309
1761487082123013600,8.028013671875,18.445556640625,8.914386749267578,7.6011152267456055
1761487082139838200,8.044838134765625,8.542987823486328,8.561025619506836,4.531139373779297
1761487082156663300,8.061663330078124,5.240082740783691,6.417298793792725,2.3561887741088867
1761487082173487000,8.078487060546875,4.316061019897461,3.7270755767822266,0.8454508781433105
1761487082190302000,8.095302001953126,2.442185401916504,1.2005860805511475,0.19694852828979492
1761487082207136800,8.11213671875,-1.112874984741211,-1.546128511428833,0.2869150638580322
1761487082223959800,8.128959716796874,-3.077559471130371,-3.6992945671081543,-0.3910953998565674
1761487082240806400,8.145806396484375,-5.460664749145508,-4.622920513153076,-1.3326278924942017
1761487082257617200,8.1626171875,-7.58929443359375,-5.457420349121094,-1.93147611618042
1761487082274449400,8.179449462890625,-10.024768829345703,-5.754542827606201,-2.684109687805176
1761487082291271700,8.196271728515624,-11.298768997192383,-5.667384147644043,-3.2006468772888184
1761487082308098800,8.213098876953126,-11.371830940246582,-6.260463714599609,-3.01175594329834
1761487082324896300,8.229896240234375,-11.397531509399414,-7.474084377288818,-2.1801960468292236
1761487082341753900,8.24675390625,-10.955424308776855,-9.20560073852539,-1.178961992263794
1761487082358579000,8.263578857421875,-10.79385757446289,-9.950273513793945,-0.5357253551483154
1761487082375398700,8.280398681640625,-10.849380493164062,-9.898504257202148,-0.11658072471618652
1761487082392224800,8.297224853515624,-11.07180404663086,-10.124507904052734,-0.338309645652771
1761487082409048600,8.314048583984375,-10.5432767868042,-10.152175903320312,-1.0732662677764893
1761487082425874000,8.3308740234375,-9.10451889038086,-9.612030029296875,-2.242577314376831
1761487082442698000,8.347697998046876,-7.956122398376465,-8.802183151245117,-2.5360584259033203
1761487082459523800,8.36452392578125,-7.8342437744140625,-8.787720680236816,-2.335934638977051
1761487082476347600,8.38134765625,-8.029609680175781,-8.843388557434082,-2.0020453929901123
1761487082493156600,8.398156494140625,-7.5914130210876465,-8.691750526428223,-1.4719858169555664
1761487082509997000,8.4149970703125,-6.934134483337402,-8.616145133972168,-0.6836923360824585
1761487082526822700,8.43182275390625,-6.666102409362793,-8.768712997436523,0.18994271755218506
1761487082543646700,8.448646728515625,-6.6671552658081055,-7.8211259841918945,0.25339993834495544
1761487082560472600,8.46547265625,-7.594005584716797,-6.484348297119141,0.018682681024074554
1761487082585684700,8.490684814453125,-4.225719451904297,-4.662172317504883,-1.1202762126922607
1761487082602508000,8.507508056640624,-3.121798515319824,-3.82254695892334,-2.104104518890381
1761487082619348500,8.524348388671875,-1.7203187942504883,-2.0159080028533936,-3.741028070449829
1761487082636170200,8.541170166015625,5.241161346435547,0.5424418449401855,-5.179569244384766
1761487082652995000,8.5579951171875,3.011002540588379,0.6608853340148926,-4.235357761383057
1761487082669820200,8.574820068359376,1.2452764511108398,1.7652063369750977,-1.5984065532684326
1761487082686641400,8.591641357421874,-1.3579940795898438,2.899533271789551,2.777127265930176
