time,seconds_elapsed,z,y,x
1761487525614858200,0.199858154296875,-2.587648391723633,1.7766294479370117,-1.2729334831237793
1761487525631691000,0.21669091796875,-1.1258478164672852,0.2993950843811035,-1.3849341869354248
1761487525648523800,0.233523681640625,-1.5541696548461914,-1.8222801685333252,-0.48444902896881104
1761487525665344000,0.250343994140625,-1.8208413124084473,-2.6918718814849854,-0.03716747462749481
1761487525682171400,0.26717138671875,-1.1117420196533203,-2.596463203430176,-0.28511208295822144
1761487525698989000,0.283989013671875,-0.7726564407348633,-2.410125255584717,0.26133084297180176
1761487525715817200,0.300817138671875,-0.5818748474121094,-3.460322856903076,0.7834344506263733
1761487525732641300,0.317641357421875,-0.49147605895996094,-4.903421401977539,1.1543834209442139
1761487525749468000,0.334468017578125,-0.502197265625,-4.333250522613525,1.147823452949524
1761487525766287400,0.351287353515625,-0.010355949401855469,-2.72822904586792,0.017031073570251465
1761487525783097900,0.368097900390625,-0.19852256774902344,-1.7982361316680908,-0.8818960189819336
1761487525799934200,0.384934326171875,-0.3822364807128906,-1.7248120307922363,-0.5413155555725098
1761487525816767200,0.401767333984375,-0.2324962615966797,-2.1874630451202393,-0.10057258605957031
1761487525833587000,0.4185869140625,0.34173583984375,-2.28320574760437,-0.2799506187438965
1761487525850395000,0.435394775390625,0.6065645217895508,-1.8851807117462158,-0.8142457008361816
1761487525867225300,0.452225341796875,0.34095096588134766,-1.3297010660171509,-0.9293744564056396
1761487525884053800,0.4690537109375,0.7416086196899414,-1.1046946048736572,-1.5112297534942627
1761487525900865000,0.485864990234375,0.3738679885864258,-1.0956344604492188,-2.1896181106567383
1761487525917701000,0.502701171875,-0.5135383605957031,-1.2232379913330078,-2.5888850688934326
1761487525934519800,0.519519775390625,-0.2966451644897461,-0.04378557205200195,-2.5946359634399414
1761487525951361800,0.53636181640625,-0.7239713668823242,-0.16034841537475586,-2.306701898574829
1761487525968181500,0.553181396484375,-0.9960193634033203,-1.299736499786377,-0.9623417854309082
1761487525984994600,0.56999462890625,0.02009296417236328,-1.969868779182434,0.007757425308227539
1761487526001826800,0.586826904296875,1.165334701538086,-1.808760404586792,0.07511687278747559
1761487526018659600,0.60365966796875,1.1645879745483398,-1.1075317859649658,-0.3490180969238281
1761487526035479300,0.620479248046875,0.47967052459716797,-1.4018445014953613,-0.22498679161071777
1761487526052287000,0.637286865234375,0.6587247848510742,-2.0667128562927246,0.49254775047302246
1761487526069102800,0.654102783203125,3.165989875793457,-2.444817066192627,1.1942124366760254
1761487526085938700,0.670938720703125,6.5399065017700195,-2.935852527618408,2.298565149307251
1761487526102763000,0.687762939453125,9.350113868713379,-4.956369400024414,3.769110679626465
1761487526119588000,0.704588134765625,12.215601921081543,-6.377798080444336,3.990764856338501
1761487526136412000,0.721411865234375,14.29425048828125,-6.485073566436768,4.752864360809326
1761487526153249500,0.73824951171875,13.316872596740723,-4.7625555992126465,7.083420276641846
1761487526170078000,0.755077880859375,10.275176048278809,-1.3096548318862915,8.277070999145508
1761487526186899000,0.77189892578125,8.368736267089844,2.3269569873809814,7.3037824630737305
1761487526203708700,0.788708740234375,8.063310623168945,4.134683132171631,6.562906742095947
1761487526220543200,0.805543212890625,10.616861343383789,4.357019901275635,7.471497535705566
1761487526237380400,0.82238037109375,15.346874237060547,5.425563812255859,8.383504867553711
1761487526254192000,0.839192138671875,14.37155532836914,6.2966179847717285,6.406052112579346
1761487526271025000,0.85602490234375,10.012130737304688,6.15001916885376,1.9582180976867676
1761487526287844600,0.8728447265625,5.567526340484619,6.47240686416626,-2.993710994720459
1761487526304669400,0.88966943359375,1.903538703918457,4.706276893615723,-5.128694534301758
1761487526321486300,0.906486328125,-1.1669645309448242,0.43793177604675293,-3.796609401702881
1761487526338308000,0.92330810546875,-2.551724433898926,-3.452244758605957,-2.6279044151306152
1761487526355128600,0.940128662109375,-3.114875316619873,-5.580250263214111,-2.587005138397217
1761487526371952600,0.95695263671875,-4.347393035888672,-6.713005065917969,-3.3948147296905518
1761487526388781000,0.973781005859375,-6.766929626464844,-7.605282783508301,-3.362278938293457
1761487526405598700,0.9905986328125,-8.780139923095703,-7.679198265075684,-5.218196868896484
1761487526422429000,1.007428955078125,-10.740453720092773,-7.456151485443115,-4.771537780761719
1761487526439267300,1.024267333984375,-10.891719818115234,-8.160776138305664,-2.9997386932373047
1761487526456088600,1.041088623046875,-9.467074394226074,-8.607344627380371,-1.3079785108566284
1761487526472922400,1.05792236328125,-8.823005676269531,-9.155566215515137,0.060849666595458984
1761487526489741000,1.074740966796875,-9.340934753417969,-9.06766128540039,0.04669392108917236
1761487526506557700,1.0915576171875,-10.313017845153809,-8.81629753112793,-0.48907971382141113
1761487526523390000,1.108389892578125,-10.843570709228516,-8.487308502197266,-0.6730774641036987
1761487526540192800,1.12519287109375,-10.72867202758789,-8.26357650756836,-0.7343264818191528
1761487526557021000,1.14202099609375,-9.615148544311523,-8.207086563110352,-0.3807196617126465
1761487526573844700,1.1588447265625,-9.058460235595703,-8.229452133178711,-0.03174149990081787
1761487526590657300,1.1756572265625,-9.372678756713867,-7.977221488952637,-0.020381927490234375
1761487526607494000,1.192493896484375,-9.2868070602417,-7.746769428253174,-0.21204042434692383
1761487526624318200,1.209318115234375,-8.905035972595215,-7.2663469314575195,-0.6298382878303528
1761487526641144800,1.226144775390625,-7.866243362426758,-7.013087272644043,-0.603919506072998
1761487526657980700,1.242980712890625,-5.568027496337891,-6.469194412231445,-0.38355934619903564
1761487526674801000,1.25980078125,-3.6178479194641113,-5.782739162445068,-0.42191237211227417
1761487526691633200,1.276633056640625,-1.5390825271606445,-4.439723014831543,-0.806602954864502
1761487526708449300,1.29344921875,1.8318147659301758,-2.9193766117095947,-0.8633307218551636
1761487526725278700,1.31027880859375,5.69685173034668,-0.710655689239502,-1.4698927402496338
1761487526742101800,1.327101806640625,8.11973762512207,1.2991642951965332,-0.03358197212219238
1761487526758926800,1.3439267578125,9.872076034545898,2.0132079124450684,1.806478500366211
1761487526775748900,1.360748779296875,15.431937217712402,5.47935152053833,1.3672120571136475
1761487526792571400,1.3775712890625,24.45240592956543,7.375219345092773,4.550796031951904
1761487526809400300,1.394400390625,31.47615623474121,6.982818126678467,9.301690101623535
1761487526826211600,1.411211669921875,33.41142272949219,7.7053303718566895,9.453268051147461
1761487526843034400,1.428034423828125,30.459009170532227,8.349092483520508,7.355110168457031
1761487526859856400,1.4448564453125,26.70807647705078,8.825479507446289,4.4049272537231445
1761487526876686300,1.461686279296875,20.660720825195312,9.600072860717773,0.9913653135299683
1761487526893507800,1.4785078125,15.024859428405762,7.553244113922119,0.6816006898880005
1761487526910332400,1.49533251953125,9.769248962402344,4.933807373046875,1.4816964864730835
1761487526927158300,1.512158203125,5.938388824462891,1.5774226188659668,2.3810293674468994
1761487526943990300,1.528990234375,2.5682992935180664,-0.8221068382263184,2.225842237472534
1761487526960820000,1.545820068359375,-0.7742271423339844,-1.7702844142913818,0.4800267219543457
1761487526977646000,1.56264599609375,-4.7752685546875,-2.461587429046631,-1.2812213897705078
1761487526994467800,1.5794677734375,-8.117112159729004,-3.1293697357177734,-1.35603928565979
1761487527011292200,1.596292236328125,-10.438156127929688,-3.6843063831329346,-0.7816365957260132
1761487527028099300,1.613099365234375,-11.746953010559082,-3.887240409851074,-0.5057356953620911
1761487527044926700,1.6299267578125,-12.244919776916504,-4.236926555633545,-0.28246021270751953
1761487527061751800,1.646751708984375,-11.722414016723633,-4.930780410766602,0.03426505625247955
1761487527078575600,1.66357568359375,-10.949226379394531,-5.344297409057617,0.47994720935821533
1761487527095387100,1.68038720703125,-10.742452621459961,-5.958706378936768,0.7970736026763916
1761487527112224000,1.69722412109375,-10.255317687988281,-6.139988899230957,0.7704470157623291
1761487527129051400,1.714051513671875,-9.919811248779297,-6.334160804748535,0.7778346538543701
1761487527145887700,1.7308876953125,-10.131538391113281,-6.459684371948242,0.5189636945724487
1761487527162709800,1.747709716796875,-10.24304485321045,-6.420584678649902,0.08048464357852936
1761487527179535600,1.76453564453125,-9.810802459716797,-6.292825222015381,-0.25298991799354553
1761487527196356400,1.7813564453125,-8.601587295532227,-6.36344575881958,-0.22364911437034607
1761487527221571800,1.80657177734375,-7.57257604598999,-6.61976957321167,0.6516067981719971
1761487527238398500,1.8233984375,-8.036709785461426,-6.708395481109619,0.7278868556022644
1761487527255232500,1.840232421875,-8.376782417297363,-6.703620433807373,0.47283703088760376
1761487527272046300,1.85704638671875,-8.4994535446167,-6.716020584106445,0.2242991328239441
1761487527288870700,1.87387060546875,-8.043927192687988,-6.919022083282471,0.3948916494846344
1761487527305705700,1.890705810546875,-8.244331359863281,-7.244899272918701,0.7230133414268494
1761487527322529800,1.90752978515625,-8.249643325805664,-7.26401424407959,0.8160101771354675
1761487527339354400,1.924354248046875,-7.965547561645508,-7.693364143371582,0.8674588799476624
1761487527356178700,1.9411787109375,-7.530971050262451,-7.782203674316406,0.693478524684906
1761487527373003000,1.9580029296875,-6.333895683288574,-7.7752275466918945,0.6791871786117554
1761487527389827000,1.9748271484375,-4.4565629959106445,-6.899326324462891,0.19135278463363647
1761487527406651600,1.991651611328125,-1.993753433227539,-6.4570465087890625,0.5135154724121094
1761487527423493400,2.008493408203125,1.1289572715759277,-5.100968837738037,0.6224648952484131
1761487527440313900,2.02531396484375,5.5124311447143555,-4.152707099914551,1.5822627544403076
1761487527457138200,2.04213818359375,8.085944175720215,-5.539031505584717,5.337985515594482
1761487527473962500,2.05896240234375,14.2327299118042,-6.126097679138184,8.48660945892334
1761487527490787300,2.075787353515625,25.300294876098633,-4.180749893188477,8.979000091552734
1761487527507611400,2.092611328125,36.491615295410156,0.7542738914489746,7.21948766708374
1761487527524406500,2.109406494140625,46.12215805053711,2.594860315322876,9.905961036682129
1761487527541229600,2.1262294921875,43.99705123901367,1.7653636932373047,16.74542999267578
1761487527558074000,2.14307421875,33.20634460449219,3.6981611251831055,16.83332633972168
1761487527574895400,2.159895263671875,22.806049346923828,6.110700607299805,10.489204406738281
1761487527591716900,2.176716796875,16.360546112060547,5.774855613708496,2.4907565116882324
1761487527608540400,2.19354052734375,12.827003479003906,4.61853551864624,-2.8685567378997803
1761487527625375200,2.210375244140625,9.547689437866211,3.942796230316162,-5.166192531585693
1761487527642200600,2.22720068359375,5.208465576171875,3.306252956390381,-5.5207109451293945
1761487527659025700,2.244025634765625,0.874690055847168,2.998117446899414,-6.056187629699707
1761487527675847700,2.26084765625,-2.619156837463379,2.7788400650024414,-6.623657703399658
1761487527692662800,2.277662841796875,-5.107012748718262,2.8666937351226807,-6.878685474395752
1761487527709500000,2.2945,-7.360215663909912,2.3467140197753906,-6.310070037841797
1761487527726331600,2.31133154296875,-9.808747291564941,1.9969799518585205,-5.616497039794922
1761487527743152600,2.328152587890625,-10.691818237304688,1.582703709602356,-4.675044536590576
1761487527759976700,2.344976806640625,-9.867132186889648,0.6901308298110962,-4.766968727111816
1761487527776795100,2.361795166015625,-8.804292678833008,0.11605370044708252,-5.243690013885498
1761487527793625600,2.37862548828125,-7.686384677886963,-0.3734339475631714,-5.6842522621154785
1761487527810432800,2.395432861328125,-7.820435047149658,-0.9203895926475525,-6.159984588623047
1761487527827260400,2.412260498046875,-8.339683532714844,-1.0857322216033936,-6.773092269897461
1761487527844084700,2.429084716796875,-8.552002906799316,-1.146886944770813,-6.713412761688232
1761487527860909000,2.445908935546875,-8.204686164855957,-1.401409387588501,-6.131232261657715
1761487527877733400,2.4627333984375,-7.556868553161621,-1.650092601776123,-5.485172271728516
1761487527894557700,2.4795576171875,-7.0809102058410645,-1.9762802124023438,-4.870569705963135
1761487527911399400,2.4963994140625,-6.878192901611328,-2.13061261177063,-4.578727722167969
1761487527928203800,2.513203857421875,-7.009291648864746,-2.2555832862854004,-4.488165855407715
1761487527945041000,2.530041015625,-7.541841506958008,-2.5021398067474365,-4.378734588623047
1761487527961873400,2.546873291015625,-7.395277976989746,-2.4350414276123047,-5.529929161071777
1761487527978694400,2.5636943359375,-6.847881317138672,-2.000575065612793,-4.399281978607178
1761487527995509500,2.580509521484375,-6.263083457946777,-3.550736904144287,-2.1855549812316895
1761487528012342300,2.59734228515625,-6.179574966430664,-2.940403938293457,-2.4558043479919434
1761487528029143300,2.614143310546875,-5.912807464599609,-1.9355844259262085,-2.851229429244995
1761487528045963800,2.6309638671875,-3.1896238327026367,-1.5771386623382568,-2.516848564147949
1761487528062801400,2.647801513671875,1.278294563293457,-1.3421635627746582,-1.0749531984329224
1761487528079612700,2.66461279296875,3.740145683288574,-1.7480921745300293,0.9982006549835205
1761487528096454100,2.6814541015625,6.080243110656738,-1.3019452095031738,0.6434743404388428
1761487528113274600,2.698274658203125,10.877664566040039,1.053055763244629,-1.3845586776733398
1761487528130098700,2.7150986328125,19.340042114257812,3.014862537384033,-0.4653719663619995
1761487528146940200,2.731940185546875,23.644390106201172,0.6797146797180176,4.820415019989014
1761487528163750400,2.74875048828125,25.013683319091797,-0.13748884201049805,6.950469017028809
1761487528180579800,2.765579833984375,25.289566040039062,0.3598442077636719,6.93587589263916
1761487528197409800,2.782409912109375,22.43072509765625,-0.5420732498168945,7.900575637817383
1761487528214238500,2.799238525390625,16.68239974975586,-0.06429767608642578,7.024510860443115
1761487528231025200,2.816025146484375,9.370481491088867,1.3411154747009277,5.929878234863281
1761487528247872300,2.832872314453125,3.1024556159973145,1.6120147705078125,6.298649787902832
1761487528264680700,2.8496806640625,-0.011586189270019531,1.486551284790039,5.108547210693359
1761487528281498000,2.866498046875,-1.6407008171081543,2.1670851707458496,2.7307894229888916
1761487528298345500,2.883345458984375,-2.0296764373779297,0.4829835891723633,2.350084066390991
1761487528315166500,2.90016650390625,-1.0551505088806152,-1.1537837982177734,2.4566335678100586
1761487528331990800,2.91699072265625,-0.7510786056518555,-1.8381271362304688,1.5381531715393066
1761487528348815000,2.933815185546875,-0.9563388824462891,-2.2652077674865723,0.5707931518554688
1761487528365639700,2.9506396484375,-1.6369752883911133,-2.946544647216797,0.561326265335083
1761487528382461200,2.967461181640625,-3.4371843338012695,-4.057870388031006,0.8897244930267334
1761487528399294500,2.98429443359375,-5.246210098266602,-3.900977373123169,-0.27202796936035156
1761487528416112600,3.001112548828125,-6.673149108886719,-2.94897723197937,-1.9209665060043335
1761487528432944000,3.017944091796875,-7.805643558502197,-2.031435012817383,-3.270073652267456
1761487528449756400,3.03475634765625,-8.866851806640625,-1.5286271572113037,-4.0607147216796875
1761487528466595300,3.05159521484375,-9.578582763671875,-1.4211299419403076,-4.022858619689941
1761487528483427800,3.068427734375,-8.479574203491211,-1.9250829219818115,-3.5901565551757812
1761487528500248000,3.085248046875,-6.856784820556641,-2.5970447063446045,-2.6660449504852295
1761487528517066000,3.10206591796875,-5.844607830047607,-3.3162424564361572,-1.6477445363998413
1761487528533886500,3.118886474609375,-5.591272354125977,-3.561826705932617,-1.3653355836868286
1761487528550707500,3.13570751953125,-5.566140174865723,-3.237701416015625,-2.2481207847595215
1761487528567540700,3.152540771484375,-5.6500444412231445,-2.9879260063171387,-3.1800639629364014
1761487528584350700,3.169350830078125,-5.752021789550781,-2.7534899711608887,-3.794318675994873
1761487528601186000,3.18618603515625,-5.423070907592773,-2.840433120727539,-3.661764621734619
1761487528618008300,3.20300830078125,-4.807890892028809,-3.0765178203582764,-3.193326950073242
1761487528634843100,3.219843017578125,-4.552189826965332,-3.2436184883117676,-2.6802165508270264
1761487528651650600,3.236650634765625,-5.224311351776123,-3.605698585510254,-2.3901426792144775
1761487528668491800,3.25349169921875,-6.303203582763672,-3.7514548301696777,-2.3119077682495117
1761487528685317600,3.270317626953125,-7.314650535583496,-3.8196043968200684,-2.0852322578430176
1761487528702139000,3.287138916015625,-7.75113582611084,-3.680941581726074,-1.9090168476104736
1761487528718965500,3.303965576171875,-6.785704612731934,-3.6585652828216553,-1.9277509450912476
1761487528769433300,3.354433349609375,-2.4968113899230957,-3.6851730346679688,-1.1826066970825195
1761487528786260500,3.371260498046875,-0.9834041595458984,-3.5959842205047607,-0.8803504109382629
1761487528803072300,3.388072265625,0.6094398498535156,-2.7651824951171875,-1.1033865213394165
1761487528819896000,3.40489599609375,3.013702392578125,-2.6427063941955566,0.30429553985595703
1761487528836720400,3.421720458984375,6.428752899169922,-2.986124277114868,1.8037328720092773
1761487528853546000,3.4385458984375,14.247604370117188,0.8277606964111328,1.3722472190856934
1761487528870364700,3.45536474609375,22.032691955566406,1.123779058456421,5.71734619140625
1761487528887208000,3.4722080078125,24.775859832763672,-1.097668170928955,11.93690299987793
1761487528904031200,3.48903125,22.804790496826172,-2.6351184844970703,14.879262924194336
1761487528920860000,3.50585986328125,24.110355377197266,-1.3539108037948608,14.396897315979004
1761487528937676500,3.522676513671875,22.044666290283203,-0.867621898651123,13.059438705444336
1761487528954507000,3.539507080078125,18.86697769165039,-0.009515523910522461,10.756280899047852
1761487528971330300,3.556330322265625,13.96519947052002,1.7179114818572998,6.848395824432373
1761487528988149200,3.573149169921875,10.079268455505371,2.4961483478546143,3.682251453399658
1761487529004963300,3.58996337890625,7.364684104919434,3.134176731109619,1.2387824058532715
1761487529021790000,3.6067900390625,4.713474273681641,3.6173200607299805,-0.9596328735351562
1761487529038610700,3.623610595703125,1.5932064056396484,3.290727376937866,-2.077190399169922
1761487529055438800,3.64043896484375,-1.3191046714782715,1.9383295774459839,-2.3451924324035645
1761487529072248300,3.657248291015625,-3.271998405456543,0.5477181673049927,-2.5217721462249756
1761487529089085700,3.674085693359375,-4.950043201446533,-0.2624577283859253,-3.1659862995147705
1761487529105927200,3.69092724609375,-5.856118202209473,-0.973888635635376,-4.036406993865967
1761487529122748200,3.707748046875,-5.779327392578125,-1.5787663459777832,-4.372655868530273
1761487529139572700,3.72457275390625,-5.756736755371094,-2.6736862659454346,-4.119999885559082
1761487529156396800,3.741396728515625,-6.2116570472717285,-3.6333248615264893,-3.8092894554138184
1761487529173221400,3.758221435546875,-7.219048500061035,-4.361705780029297,-3.770440101623535
1761487529190043400,3.77504345703125,-7.714277267456055,-5.272459983825684,-3.6738228797912598
1761487529206872300,3.791872314453125,-7.948036193847656,-6.376987934112549,-3.376699447631836
1761487529223694000,3.808694091796875,-8.166688919067383,-7.397505760192871,-3.534010887145996
1761487529240514600,3.8255146484375,-8.61113166809082,-7.944369316101074,-4.275737762451172
1761487529257342500,3.842342529296875,-9.56136703491211,-8.311014175415039,-5.4599714279174805
1761487529274167600,3.85916748046875,-10.541836738586426,-8.881362915039062,-6.1231794357299805
1761487529290962000,3.8759619140625,-10.824691772460938,-9.78857707977295,-5.828907012939453
1761487529307805700,3.8928056640625,-10.920705795288086,-10.891823768615723,-5.094674110412598
1761487529324626400,3.90962646484375,-10.101284980773926,-10.983753204345703,-5.282909393310547
1761487529341448700,3.92644873046875,-10.256742477416992,-10.556371688842773,-6.013406276702881
1761487529358277400,3.94327734375,-11.885824203491211,-10.996183395385742,-6.2035675048828125
1761487529375103000,3.96010302734375,-13.206991195678711,-11.580831527709961,-5.934908866882324
1761487529391940900,3.97694091796875,-12.881007194519043,-11.919633865356445,-5.860237121582031
1761487529408758000,3.993758056640625,-11.862526893615723,-11.727035522460938,-5.845170974731445
1761487529425590800,4.0105908203125,-10.099798202514648,-11.042861938476562,-4.909663200378418
1761487529442395100,4.02739501953125,-9.971158981323242,-10.968704223632812,-2.498767137527466
1761487529459231000,4.04423095703125,-9.111391067504883,-10.419256210327148,-0.347928524017334
1761487529476057300,4.061057373046875,-3.4319496154785156,-8.556034088134766,3.041196346282959
1761487529492870100,4.0778701171875,5.974390029907227,-6.175821304321289,11.156023979187012
1761487529509683500,4.094683349609375,18.731996536254883,-4.021712303161621,19.544269561767578
1761487529526515700,4.111515625,31.10816192626953,1.0570313930511475,22.960651397705078
1761487529543346200,4.12834619140625,41.25844192504883,6.624647617340088,23.826766967773438
1761487529560167400,4.14516748046875,51.916099548339844,11.330220222473145,24.021787643432617
1761487529576992000,4.161991943359375,56.440711975097656,12.809670448303223,25.98381805419922
1761487529593816800,4.17881689453125,47.44447326660156,11.457977294921875,28.117441177368164
1761487529610650000,4.195650146484375,29.601654052734375,10.568626403808594,26.50336265563965
1761487529627482600,4.212482666015625,15.91399097442627,9.66014575958252,20.989648818969727
1761487529644303000,4.22930322265625,11.158437728881836,6.3438401222229,15.526403427124023
1761487529661127200,4.246127197265625,8.597138404846191,2.0290236473083496,10.046009063720703
1761487529677937200,4.262937255859375,4.772454261779785,-1.9332761764526367,3.9294662475585938
1761487529694786300,4.279786376953125,1.1237854957580566,-5.184938430786133,-1.2421646118164062
1761487529711600000,4.29660009765625,-0.9651522636413574,-7.646538734436035,-4.551269054412842
1761487529728429600,4.3134296875,-2.269416332244873,-9.556758880615234,-6.090921878814697
1761487529745227500,4.3302275390625,-3.6151721477508545,-10.631860733032227,-6.844203472137451
1761487529762073900,4.347073974609375,-5.626560211181641,-11.662294387817383,-6.655623435974121
1761487529778880300,4.36388037109375,-7.6293134689331055,-12.58424186706543,-6.257726192474365
1761487529795708200,4.380708251953125,-9.51021957397461,-13.333091735839844,-5.686097145080566
1761487529812532500,4.397532470703125,-11.39254379272461,-14.047039985656738,-5.083337306976318
1761487529829357000,4.414357177734375,-12.944673538208008,-14.743895530700684,-4.689355373382568
1761487529846169600,4.431169677734375,-13.731815338134766,-15.004127502441406,-5.153156280517578
1761487529863005700,4.448005615234375,-12.77633285522461,-14.642864227294922,-5.8175201416015625
1761487529879847000,4.464846923828125,-11.000598907470703,-14.329750061035156,-5.946096420288086
1761487529896638500,4.481638427734375,-9.643472671508789,-14.384599685668945,-5.471516132354736
1761487529913478700,4.498478759765625,-8.796167373657227,-14.31260871887207,-5.022304534912109
1761487529930303000,4.515302978515625,-8.29251480102539,-14.029902458190918,-4.849820137023926
1761487529947124200,4.532124267578125,-7.703783988952637,-13.20488166809082,-5.293123722076416
1761487529963955000,4.548954833984375,-7.31843376159668,-12.418977737426758,-5.592565059661865
1761487529980776000,4.56577587890625,-7.22412633895874,-11.999765396118164,-5.405506134033203
1761487529997600500,4.5826005859375,-7.495820999145508,-11.677643775939941,-5.153331279754639
1761487530014424800,4.5994248046875,-7.886624813079834,-11.219914436340332,-5.098173141479492
1761487530031249200,4.616249267578125,-8.40924072265625,-10.612112998962402,-5.154831409454346
1761487530048073500,4.633073486328125,-8.560930252075195,-10.409104347229004,-5.1048054695129395
1761487530064897800,4.649897705078125,-8.315018653869629,-9.926791191101074,-4.949561595916748
1761487530081723000,4.666722900390625,-7.879514217376709,-9.53386116027832,-4.222537040710449
1761487530098551800,4.6835517578125,-6.910705089569092,-8.925418853759766,-3.036452293395996
1761487530115393300,4.700393310546875,-4.31109619140625,-7.556952476501465,-1.9591155052185059
1761487530132209200,4.717209228515625,2.2239127159118652,-4.8364481925964355,0.3617897033691406
1761487530149026000,4.734026123046875,11.292631149291992,-0.9590773582458496,6.231342315673828
1761487530165856800,4.750856689453125,18.911218643188477,1.424823522567749,17.336238861083984
1761487530182665700,4.767665771484375,25.43109130859375,4.961230754852295,26.42717933654785
1761487530199523000,4.784523193359375,31.741945266723633,10.22823429107666,29.973331451416016
1761487530216326400,4.801326416015625,38.07156753540039,11.218080520629883,33.26020431518555
1761487530233159200,4.8181591796875,37.605255126953125,11.57931900024414,30.479368209838867
1761487530249962800,4.834962646484375,28.684059143066406,12.214798927307129,23.111391067504883
1761487530266800000,4.851800048828125,19.024246215820312,11.194331169128418,16.57538604736328
1761487530283615000,4.868614990234375,13.852083206176758,10.033989906311035,11.107178688049316
1761487530300438800,4.885438720703125,10.36960220336914,7.866867542266846,6.180962562561035
1761487530317263000,4.90226318359375,6.578098297119141,4.9825439453125,1.3988771438598633
1761487530334087400,4.91908740234375,2.6357293128967285,1.7996623516082764,-2.2296738624572754
1761487530350910200,4.93591015625,-1.1068792343139648,-1.2087844610214233,-4.352749824523926
1761487530367741200,4.9527412109375,-4.9391374588012695,-3.4574201107025146,-5.771392822265625
1761487530384574200,4.96957421875,-8.60805606842041,-4.9012932777404785,-6.496661186218262
1761487530401398500,4.9863984375,-11.865945816040039,-6.0171589851379395,-6.7962446212768555
1761487530418209500,5.00320947265625,-14.131932258605957,-7.022713661193848,-6.820330619812012
1761487530435021300,5.020021240234375,-15.129088401794434,-7.604637622833252,-6.900150299072266
1761487530451868000,5.036867919921875,-15.405157089233398,-8.270922660827637,-6.719635009765625
1761487530468682500,5.0536826171875,-15.161613464355469,-8.668249130249023,-6.70013952255249
1761487530485506300,5.07050634765625,-14.220834732055664,-8.869283676147461,-6.778454303741455
1761487530502330600,5.08733056640625,-12.679010391235352,-8.886333465576172,-6.951199531555176
1761487530519155200,5.1041552734375,-11.334587097167969,-8.85049819946289,-7.045938014984131
1761487530535979500,5.1209794921875,-10.330111503601074,-8.665752410888672,-7.258522033691406
1761487530552804000,5.13780419921875,-9.70220947265625,-8.05014419555664,-7.843969345092773
1761487530569645600,5.1546455078125,-9.268516540527344,-7.3636298179626465,-8.213537216186523
1761487530586462000,5.1714619140625,-8.808876037597656,-6.756200790405273,-8.131515502929688
1761487530603293400,5.18829345703125,-8.385294914245605,-6.31606388092041,-7.815208435058594
1761487530620116500,5.205116455078125,-7.744262218475342,-6.195306777954102,-7.11930513381958
1761487530636923000,5.2219228515625,-7.142092704772949,-6.095001220703125,-6.595368385314941
1761487530653770500,5.2387705078125,-6.6979522705078125,-5.717649459838867,-6.52504825592041
1761487530670581500,5.25558154296875,-6.646721839904785,-5.1196746826171875,-6.582928657531738
1761487530687394000,5.27239404296875,-6.550070285797119,-4.5268049240112305,-6.458386421203613
1761487530712624400,5.297624267578125,-5.613359451293945,-3.5935733318328857,-5.056058883666992
1761487530729447200,5.314447265625,-4.2546539306640625,-2.811154365539551,-3.9820940494537354
1761487530746275000,5.331275146484375,-1.1230955123901367,-1.3085979223251343,-2.1519017219543457
1761487530763106600,5.3481064453125,3.6764893531799316,0.2554769515991211,0.8414983749389648
1761487530779937000,5.36493701171875,10.351330757141113,0.2987957000732422,6.976959228515625
1761487530796757800,5.3817578125,17.686187744140625,-0.7535698413848877,15.853190422058105
1761487530813569000,5.398569091796875,23.073776245117188,-0.26887714862823486,21.92005157470703
1761487530830385700,5.4153857421875,26.244749069213867,0.11712539196014404,25.39423370361328
1761487530847231200,5.432231201171875,31.51360321044922,0.6282389163970947,29.952003479003906
1761487530864072200,5.449072265625,34.71384811401367,1.6795283555984497,30.350967407226562
1761487530880880400,5.46588037109375,31.19080352783203,3.2031359672546387,23.90785026550293
1761487530897714700,5.482714599609375,23.47043228149414,2.4396934509277344,16.651165008544922
1761487530914545700,5.499545654296875,16.633853912353516,2.6870245933532715,9.618999481201172
1761487530931366400,5.516366455078125,11.975189208984375,4.0534234046936035,4.1485185623168945
1761487530948188200,5.533188232421875,8.4947509765625,4.420917987823486,1.1551098823547363
1761487530965015800,5.550015869140625,4.525999546051025,3.3532819747924805,-0.32405853271484375
1761487530981822500,5.566822509765625,0.23015928268432617,1.510188341140747,-1.2544941902160645
1761487530998650400,5.583650390625,-3.564441680908203,-0.6722292900085449,-1.9218676090240479
1761487531015474200,5.60047412109375,-7.168091773986816,-2.159398078918457,-3.0098443031311035
1761487531032299000,5.617299072265625,-10.398038864135742,-3.1819496154785156,-3.934950113296509
1761487531049120500,5.63412060546875,-12.441034317016602,-3.477288246154785,-4.693928241729736
1761487531065950500,5.650950439453125,-13.420870780944824,-3.390873908996582,-4.93227481842041
1761487531082754600,5.667754638671875,-13.410154342651367,-3.8625340461730957,-4.184784889221191
1761487531099616300,5.6846162109375,-12.892690658569336,-4.8033833503723145,-2.996258020401001
1761487531116434400,5.701434326171875,-12.890677452087402,-5.962802886962891,-1.9676603078842163
1761487531133258500,5.718258544921875,-13.21670150756836,-6.933520317077637,-1.6194876432418823
1761487531150079200,5.735079345703125,-13.651137351989746,-7.439050674438477,-2.144831418991089
1761487531166904300,5.751904296875,-13.500462532043457,-7.553165435791016,-3.0501394271850586
1761487531183735000,5.768735107421875,-13.144453048706055,-7.990789413452148,-3.438202381134033
1761487531200529000,5.78552880859375,-12.465997695922852,-8.317791938781738,-3.6361327171325684
1761487531217376300,5.802376220703125,-11.99587631225586,-8.690023422241211,-3.5747039318084717
1761487531234191400,5.81919140625,-10.878734588623047,-8.748899459838867,-3.933659315109253
1761487531251009800,5.836009765625,-9.816463470458984,-8.842487335205078,-4.079037666320801
1761487531267836200,5.852836181640625,-9.331038475036621,-9.089973449707031,-4.015554428100586
1761487531284667100,5.869667236328125,-9.293364524841309,-9.326111793518066,-4.060288429260254
1761487531301488400,5.88648828125,-9.32676887512207,-9.17643928527832,-4.182461261749268
1761487531318313000,5.90331298828125,-9.071029663085938,-8.640767097473145,-4.556534290313721
1761487531335137000,5.920136962890625,-8.679750442504883,-7.835216522216797,-4.9390740394592285
1761487531351957000,5.93695703125,-8.633994102478027,-7.0752716064453125,-4.569025993347168
1761487531368807000,5.953806884765625,-8.547980308532715,-6.5668182373046875,-3.134795665740967
1761487531385624000,5.9706240234375,-6.618370532989502,-5.448474407196045,-1.1782736778259277
1761487531402454000,5.9874541015625,-2.4384779930114746,-3.9099912643432617,1.1880016326904297
1761487531419266600,6.0042666015625,3.947244644165039,-2.8992629051208496,5.085191249847412
1761487531436096800,6.0210966796875,12.121847152709961,-1.9468995332717896,12.359323501586914
1761487531452916200,6.037916259765625,19.0242919921875,-1.8959789276123047,20.445682525634766
1761487531469734400,6.054734375,25.841711044311523,0.22392940521240234,25.648012161254883
1761487531486556200,6.07155615234375,35.67917251586914,2.4896116256713867,30.602645874023438
1761487531503380500,6.08838037109375,41.447845458984375,5.694594860076904,30.222156524658203
1761487531520201700,6.10520166015625,40.23639678955078,6.176680564880371,26.42797088623047
1761487531537032400,6.122032470703125,32.118709564208984,6.339776515960693,18.97337532043457
1761487531553855500,6.13885546875,23.906370162963867,7.574010848999023,10.803003311157227
1761487531570692600,6.155692626953125,18.164640426635742,7.9518656730651855,5.477870941162109
1761487531587516400,6.172516357421875,12.453746795654297,7.121364116668701,2.1636810302734375
1761487531604330200,6.189330322265625,6.097801208496094,5.963018417358398,-0.41634607315063477
1761487531621164500,6.20616455078125,0.050103187561035156,4.27731990814209,-1.945817470550537
1761487531637988600,6.222988525390625,-5.635854721069336,2.1993191242218018,-2.5937018394470215
1761487531654795300,6.239795166015625,-10.598827362060547,0.06873464584350586,-2.8268585205078125
1761487531671637500,6.256637451171875,-14.319984436035156,-1.7618322372436523,-3.24062180519104
1761487531688450300,6.2734501953125,-16.094329833984375,-2.4648184776306152,-4.3294196128845215
1761487531705286700,6.29028662109375,-15.574283599853516,-3.093130111694336,-4.881624221801758
1761487531722076000,6.307075927734375,-14.544248580932617,-3.871164321899414,-4.5497846603393555
1761487531738923800,6.323923828125,-13.755413055419922,-4.836747169494629,-3.524232864379883
1761487531755733000,6.34073291015625,-13.846190452575684,-5.612985134124756,-2.673166275024414
1761487531772569900,6.35756982421875,-14.113181114196777,-6.057955741882324,-2.498122453689575
1761487531789394400,6.37439453125,-14.274059295654297,-6.363525867462158,-2.763878345489502
1761487531806218800,6.39121875,-14.061553955078125,-7.002640724182129,-2.804499626159668
1761487531823043000,6.40804296875,-13.212081909179688,-7.376283168792725,-2.612539529800415
1761487531839867400,6.424867431640625,-11.813697814941406,-7.182505130767822,-2.586747646331787
1761487531856709000,6.441709228515625,-10.650331497192383,-6.759263038635254,-2.475679397583008
1761487531873529600,6.458529541015625,-9.878863334655762,-6.4062018394470215,-2.3124840259552
1761487531890354000,6.47535400390625,-9.556055068969727,-6.375631332397461,-1.9063754081726074
1761487531907178200,6.49217822265625,-9.651032447814941,-6.492347717285156,-1.6596931219100952
1761487531923995600,6.50899560546875,-10.10866928100586,-6.564427852630615,-1.5361640453338623
1761487531940827000,6.525826904296875,-10.679723739624023,-6.702296257019043,-1.5296015739440918
1761487531957620500,6.542620361328125,-10.647032737731934,-6.631294250488281,-1.723358392715454
1761487531974457000,6.55945703125,-9.855755805969238,-6.502671718597412,-1.690557837486267
1761487531991288300,6.576288330078125,-8.89381217956543,-6.358160018920898,-1.534420371055603
1761487532008107300,6.593107177734375,-8.290140151977539,-6.266707897186279,-1.5556442737579346
1761487532024938500,6.6099384765625,-7.51943826675415,-6.1796722412109375,-1.6759889125823975
1761487532041759500,6.626759521484375,-5.452038764953613,-5.697880268096924,-1.724137306213379
1761487532058584000,6.643583984375,-1.5648918151855469,-5.034648895263672,-0.3137655258178711
1761487532075408600,6.66040869140625,4.7270402908325195,-5.6283674240112305,3.7921853065490723
1761487532092246000,6.67724609375,11.60697078704834,-5.842837810516357,9.819040298461914
1761487532109070600,6.694070556640625,19.864238739013672,-5.258623123168945,15.741917610168457
1761487532125895200,6.710895263671875,29.35406494140625,-3.811483383178711,21.46213722229004
1761487532142719200,6.72771923828125,37.54113006591797,-2.5050270557403564,27.913423538208008
1761487532159543600,6.74454345703125,39.18649673461914,0.6290593147277832,26.751192092895508
1761487532176368400,6.761368408203125,36.82100296020508,1.7907218933105469,22.167503356933594
1761487532193192700,6.778192626953125,29.74505615234375,1.1014347076416016,16.635581970214844
1761487532209973200,6.79497314453125,21.840200424194336,2.4865331649780273,10.015802383422852
1761487532260475000,6.845474853515625,7.594676971435547,3.0765581130981445,2.8951687812805176
1761487532277299200,6.86229931640625,3.6119022369384766,2.0159366130828857,1.6397137641906738
1761487532294123300,6.879123291015625,-0.6639680862426758,0.7913625240325928,0.5306987762451172
1761487532310948000,6.895947998046875,-5.5674543380737305,-1.5959464311599731,0.25194716453552246
1761487532327772400,6.9127724609375,-9.672040939331055,-3.7039527893066406,-0.7349371910095215
1761487532344614400,6.929614501953125,-13.21359634399414,-3.393153667449951,-3.5236406326293945
1761487532361433600,6.94643359375,-15.112101554870605,-3.4261648654937744,-4.965198516845703
1761487532378261000,6.963260986328125,-15.506464004516602,-2.9975013732910156,-4.831682205200195
1761487532395081700,6.980081787109375,-14.208367347717285,-3.4930858612060547,-3.436549186706543
1761487532411908000,6.996908203125,-12.721115112304688,-3.9694480895996094,-2.154048442840576
1761487532428728300,7.013728271484375,-11.724727630615234,-4.367673397064209,-1.4529447555541992
1761487532445542400,7.03054248046875,-11.390113830566406,-4.858448505401611,-1.3656429052352905
1761487532462357500,7.047357421875,-11.608987808227539,-5.155758380889893,-1.8182599544525146
1761487532479188200,7.064188232421875,-11.885176658630371,-5.30244255065918,-2.3047409057617188
1761487532496018700,7.081018798828125,-11.931233406066895,-5.2684326171875,-2.5353612899780273
1761487532512840400,7.09784033203125,-11.468523025512695,-5.204141139984131,-2.2423665523529053
1761487532529664500,7.11466455078125,-10.66485595703125,-5.096845626831055,-1.7549158334732056
1761487532546506200,7.13150634765625,-10.406646728515625,-5.236429214477539,-1.4381153583526611
1761487532563294200,7.148294189453125,-10.833738327026367,-5.698973178863525,-1.456524133682251
1761487532580151300,7.1651513671875,-11.235620498657227,-6.134118556976318,-1.8342407941818237
1761487532596975600,7.1819755859375,-11.567293167114258,-6.453983783721924,-2.296574592590332
1761487532613799400,7.19879931640625,-11.670745849609375,-6.779417991638184,-2.556096076965332
1761487532630624000,7.2156240234375,-11.655597686767578,-7.002030372619629,-2.801443099975586
1761487532647445800,7.23244580078125,-11.493812561035156,-7.155926704406738,-2.944162368774414
1761487532664276500,7.2492763671875,-11.237125396728516,-7.269453525543213,-3.08791446685791
1761487532681086700,7.266086669921875,-10.551855087280273,-7.3968915939331055,-3.0086913108825684
1761487532697921300,7.28292138671875,-10.00838851928711,-7.386124610900879,-2.71307373046875
1761487532714733600,7.299733642578125,-8.563775062561035,-7.529372215270996,-1.9536826610565186
1761487532731531300,7.31653125,-4.20833158493042,-7.722303867340088,-0.1443042755126953
1761487532748381000,7.333380859375,6.110332489013672,-6.0474395751953125,4.097158432006836
1761487532765204700,7.350204833984375,22.084407806396484,-5.478809356689453,14.13278579711914
1761487532782029800,7.36702978515625,35.665836334228516,-2.701662540435791,24.158464431762695
1761487532798854000,7.38385400390625,43.706214904785156,-0.9656866788864136,34.434043884277344
1761487532815678700,7.4006787109375,41.92536926269531,1.8035802841186523,30.645252227783203
1761487532832519400,7.41751953125,36.93479537963867,6.064847946166992,18.71636962890625
1761487532849341200,7.434341064453125,31.254253387451172,7.11522912979126,11.241613388061523
1761487532866164700,7.451164794921875,24.383506774902344,8.245550155639648,6.258238792419434
1761487532882983700,7.467983642578125,17.45109748840332,9.25652027130127,3.0146520137786865
1761487532899813600,7.484813720703125,11.359864234924316,8.554946899414062,2.4167795181274414
1761487532916642000,7.50164208984375,6.2509307861328125,7.294878959655762,2.5225882530212402
1761487532933445600,7.518445556640625,2.062506675720215,5.661429405212402,1.950434684753418
1761487532950270200,7.535270263671875,-1.2923946380615234,3.8331851959228516,0.33779382705688477
1761487532967100400,7.552100341796875,-3.498560905456543,1.331628441810608,-1.5984115600585938
1761487532983922000,7.568921875,-5.113948822021484,-0.9398417472839355,-3.35440993309021
1761487533000746000,7.58574609375,-6.172531604766846,-3.173128843307495,-4.677978515625
1761487533017557500,7.6025576171875,-6.238861083984375,-4.677425384521484,-5.914683818817139
1761487533034411500,7.61941162109375,-7.486319065093994,-6.255723476409912,-5.61182975769043
1761487533051233000,7.63623291015625,-9.966904640197754,-7.92961311340332,-4.2127299308776855
1761487533068056800,7.653056884765625,-13.603311538696289,-8.922515869140625,-3.443021297454834
1761487533084864800,7.66986474609375,-16.258499145507812,-9.184038162231445,-3.992931365966797
1761487533101705500,7.68670556640625,-17.89594841003418,-9.150097846984863,-5.466437339782715
1761487533118530300,7.7035302734375,-18.93461036682129,-9.894699096679688,-6.531077861785889
1761487533135354000,7.72035400390625,-18.588462829589844,-10.745257377624512,-7.378182411193848
1761487533152162600,7.73716259765625,-16.813377380371094,-10.713212966918945,-8.07805061340332
1761487533169002800,7.754002685546875,-14.478639602661133,-10.186601638793945,-8.142297744750977
1761487533185824000,7.770823974609375,-12.455978393554688,-9.290681838989258,-7.926912784576416
1761487533202656300,7.78765625,-11.486767768859863,-8.493206977844238,-7.269617557525635
1761487533219467800,7.8044677734375,-11.765918731689453,-7.837749481201172,-6.278720855712891
1761487533236292400,7.821292236328125,-12.864466667175293,-7.101247787475586,-5.326159477233887
1761487533253111600,7.838111572265625,-14.25794792175293,-6.2363481521606445,-4.360604763031006
1761487533269935400,7.854935302734375,-13.94465446472168,-5.642965316772461,-2.889064311981201
1761487533286760000,7.871760009765625,-11.65611743927002,-4.72933292388916,-1.548752784729004
1761487533303584000,7.888583984375,-8.001811027526855,-2.8087167739868164,-1.3069393634796143
1761487533320412200,7.905412109375,-1.9345169067382812,0.21016740798950195,-0.44135141372680664
1761487533337246500,7.92224658203125,6.722772121429443,2.7481813430786133,3.7503738403320312
1761487533354054400,7.939054443359375,17.170059204101562,4.453084945678711,10.368329048156738
1761487533370889500,7.955889404296875,26.71907615661621,7.666387557983398,13.650375366210938
1761487533387725800,7.972725830078125,36.10865020751953,8.49213981628418,16.87835693359375
1761487533404527600,7.989527587890625,42.50516128540039,6.882182598114014,20.217931747436523
1761487533421351000,8.006350830078125,42.40220642089844,6.3943939208984375,19.543434143066406
1761487533438178600,8.023178466796875,35.072879791259766,5.06596565246582,16.0360050201416
1761487533454998000,8.039998046875,24.62887954711914,3.6078732013702393,11.004719734191895
1761487533471833000,8.0568330078125,16.178550720214844,3.9456427097320557,5.675754547119141
1761487533488631300,8.07363134765625,11.919137001037598,4.453921318054199,2.201171875
1761487533505476000,8.09047607421875,9.380759239196777,3.150453567504883,1.0149736404418945
1761487533522314200,8.107314208984375,5.75275993347168,0.7011713981628418,0.968440055847168
1761487533539142700,8.124142578125,0.8197307586669922,-2.048398971557617,1.222358226776123
1761487533555963000,8.140962890625,-4.196768760681152,-4.086330413818359,0.6091952323913574
1761487533572790800,8.157790771484375,-8.927406311035156,-4.9058732986450195,-1.189744234085083
1761487533589612000,8.174612060546876,-12.533758163452148,-5.2089362144470215,-2.9170632362365723
1761487533606438000,8.19143798828125,-14.415932655334473,-5.373589515686035,-4.0771918296813965
1761487533623259100,8.208259033203126,-15.762247085571289,-6.095741271972656,-4.2679924964904785
1761487533640071200,8.2250712890625,-16.51264190673828,-6.780076026916504,-4.078535079956055
1761487533656909600,8.24190966796875,-16.853252410888672,-7.282215118408203,-4.082555770874023
1761487533673739500,8.258739501953125,-15.938434600830078,-7.293757438659668,-4.682125091552734
1761487533690539500,8.27553955078125,-14.567138671875,-7.101475715637207,-5.3087568283081055
1761487533707377700,8.292377685546874,-13.515146255493164,-7.054304122924805,-5.673850059509277
1761487533724193800,8.30919384765625,-12.619890213012695,-6.797031402587891,-6.1453351974487305
1761487533741017000,8.32601708984375,-12.027328491210938,-6.189028739929199,-6.671757698059082
1761487533757841400,8.34284130859375,-11.588140487670898,-5.216381072998047,-6.9779052734375
1761487533774665500,8.35966552734375,-10.974489212036133,-4.275134086608887,-6.644702434539795
1761487533791490300,8.376490234375,-10.42025375366211,-3.4169788360595703,-5.950406074523926
1761487533808314600,8.393314697265625,-9.91981315612793,-2.8782498836517334,-4.919593334197998
1761487533825154800,8.41015478515625,-9.566150665283203,-2.3377230167388916,-4.265392303466797
1761487533841972000,8.426971923828125,-9.09709644317627,-1.6246652603149414,-4.2257161140441895
1761487533861180000,8.446179931640625,-8.093278884887695,-0.7644566297531128,-4.006252765655518
1761487533877712100,8.462712158203125,-6.405084609985352,-0.12837904691696167,-3.3867416381835938
1761487533894528500,8.479528564453124,-2.6756629943847656,1.3913394212722778,-3.2302205562591553
1761487533911365400,8.496365478515624,1.401148796081543,3.5608768463134766,-3.9480838775634766
1761487533928189000,8.51318896484375,4.867190361022949,4.293480396270752,-3.2432639598846436
1761487533945014300,8.53001416015625,15.961917877197266,3.0226540565490723,-0.7178635597229004
1761487533961837600,8.546837646484375,26.243385314941406,2.2524962425231934,2.2806549072265625
1761487533978662000,8.563661865234375,32.90990447998047,-1.2970929145812988,4.829793453216553
1761487533995486200,8.580486328125,32.574432373046875,-1.8096232414245605,3.481079339981079
1761487534012311800,8.597311767578125,32.840118408203125,-2.525196075439453,1.969738483428955
1761487534029150200,8.614150146484375,37.927734375,-3.363253116607666,1.0524823665618896
1761487534045970400,8.630970458984375,43.123069763183594,-6.6430583000183105,4.150381565093994
1761487534062797800,8.6477978515625,38.86387252807617,-9.336613655090332,8.81454849243164
1761487534079623200,8.664623046875,29.119060516357422,-9.90602970123291,10.12470817565918
1761487534096448000,8.681447998046876,16.878803253173828,-9.73300552368164,8.111371994018555
1761487534113268500,8.6982685546875,8.615775108337402,-7.438200950622559,5.40994930267334
1761487534130080300,8.715080322265624,3.062898635864258,-4.931596755981445,3.4696462154388428
1761487534146884900,8.731884765625,-1.327667236328125,-4.720949172973633,3.0237855911254883
1761487534163743700,8.74874365234375,-4.759812355041504,-4.3170928955078125,2.835313320159912
1761487534180565500,8.7655654296875,-6.518218040466309,-4.117463111877441,2.8579916954040527
1761487534197394000,8.782393798828124,-7.863544940948486,-5.614464282989502,3.748663902282715
1761487534214202000,8.7992021484375,-9.344171524047852,-5.962253093719482,2.9357075691223145
1761487534231027200,8.816027099609375,-10.290254592895508,-5.521710395812988,1.1722416877746582
1761487534247851500,8.8328515625,-10.768436431884766,-5.493236541748047,-0.19497627019882202
1761487534264675800,8.84967578125,-10.381953239440918,-5.195014953613281,-0.4935806691646576
1761487534281488100,8.866488037109375,-8.356796264648438,-5.407726287841797,-0.2244156002998352
1761487534298324500,8.883324462890625,-9.103316307067871,-7.0063157081604,-0.7157031893730164
1761487534315162600,8.90016259765625,-8.574109077453613,-8.535369873046875,-1.3866090774536133
1761487534331978000,8.91697802734375,-8.448415756225586,-9.569289207458496,-1.7020742893218994
1761487534348812800,8.933812744140624,-8.753220558166504,-10.2086820602417,-1.9789836406707764
1761487534365635800,8.9506357421875,-8.864887237548828,-11.338602066040039,-2.2337467670440674
1761487534382459600,8.967459716796874,-8.805221557617188,-12.868463516235352,-2.8117008209228516
1761487534399282400,8.984282470703125,-7.412030220031738,-13.82491683959961,-2.8320960998535156
1761487534416109800,9.00110986328125,-6.434978008270264,-11.451568603515625,-2.8001952171325684
1761487534432919600,9.01791943359375,-5.471634387969971,-9.243359565734863,-3.1952133178710938
1761487534449743600,9.03474365234375,-5.137368202209473,-7.396872520446777,-3.527672290802002
1761487534466567700,9.051567626953124,-5.025264739990234,-6.519682884216309,-3.3613741397857666
1761487534483392300,9.068392333984375,-5.466472625732422,-6.971492767333984,-2.9428882598876953
1761487534500217300,9.08521728515625,-5.670187473297119,-7.955595970153809,-2.1133391857147217
1761487534517042400,9.10204248046875,-5.957289695739746,-7.655610084533691,-1.9992595911026
1761487534533900000,9.118900146484375,-6.069841384887695,-7.177910804748535,-1.6957558393478394
1761487534550705000,9.135704833984375,-6.461707592010498,-7.392612457275391,-1.7470736503601074
1761487534567510800,9.1525107421875,-6.526867866516113,-7.324051856994629,-1.985811710357666
1761487534584351500,9.1693515625,-4.2367753982543945,-7.092974662780762,-2.01421856880188
1761487534601159400,9.186159423828125,-1.0338091850280762,-5.809606552124023,-2.8058254718780518
1761487534618001400,9.20300146484375,-1.1491708755493164,-5.94998836517334,-2.6141204833984375
1761487534634825500,9.219825439453125,-2.4056320190429688,-4.605033874511719,-1.2826874256134033
1761487534651616000,9.236615966796874,-4.03839635848999,-2.9030508995056152,-0.5066816806793213
1761487534668477000,9.253476806640625,-3.382366180419922,-1.2392396926879883,-2.4197962284088135
1761487534685298700,9.270298583984374,2.5235018730163574,2.2644472122192383,-3.4771676063537598
1761487534702107600,9.287107666015626,7.423765182495117,7.43317985534668,-0.8463068604469299
1761487534718933000,9.30393310546875,12.21605110168457,9.834497451782227,2.8855600357055664
1761487534735754800,9.320754638671875,14.814522743225098,3.0598549842834473,10.044159889221191
1761487534752584700,9.337584716796876,16.969318389892578,-0.4762899875640869,11.807649612426758
1761487534769406000,9.354406005859374,16.738967895507812,2.3124496936798096,3.903270721435547
1761487534786230300,9.371230224609375,14.89992618560791,4.28145170211792,-3.2766289710998535
1761487534803035100,9.38803515625,14.544319152832031,4.41035270690918,-5.578526496887207
1761487534819893500,9.4048935546875,14.176046371459961,2.6563656330108643,-3.731363296508789
1761487534836712700,9.421712646484375,11.646032333374023,0.689618706703186,-0.39838093519210815
1761487534853545700,9.438545654296876,8.434723854064941,-0.07754373550415039,2.2287731170654297
1761487534870350800,9.455350830078125,5.657334327697754,0.3333185911178589,2.503063440322876
1761487534887161000,9.4721611328125,3.7010717391967773,0.5586615800857544,2.0127968788146973
1761487534904002300,9.489002197265625,2.382075309753418,0.04618024826049805,0.9378015995025635
1761487534920829200,9.5058291015625,1.348668098449707,0.15799999237060547,0.13625812530517578
1761487534937651000,9.52265087890625,-0.8334989547729492,-0.2662616968154907,-0.7090137004852295
1761487534954474500,9.539474609375,-1.8943939208984375,0.15566563606262207,-0.4951608180999756
1761487534971298000,9.556298095703125,-4.022224426269531,0.21211206912994385,-0.7937889099121094
1761487534988120800,9.573120849609374,-3.9580307006835938,-0.6878787875175476,-0.9204021692276001
1761487535004948200,9.5899482421875,-3.5819272994995117,-1.5931748151779175,-0.9434531927108765
1761487535021775000,9.606775146484376,-4.2951507568359375,-2.352962017059326,-0.29195165634155273
1761487535038606800,9.62360693359375,-2.9280176162719727,-3.9491324424743652,0.6675745248794556
1761487535055435500,9.640435546875,2.0455522537231445,-4.615971565246582,-1.5240737199783325
1761487535072257500,9.657257568359375,1.2920656204223633,-1.3365685939788818,-4.882440090179443
1761487535089083100,9.674083251953125,-1.5266075134277344,-1.9167661666870117,-3.929556369781494
1761487535105905400,9.690905517578125,-3.369196891784668,-2.375706672668457,-1.771780014038086
