time,seconds_elapsed,z,y,x
1761487525551748400,0.136748291015625,-1.2414308786392212,0.15577064454555511,1.3851369619369507
1761487525568589800,0.15358984375,-1.2524265050888062,-0.05421429127454758,1.3941471576690674
1761487525585413400,0.170413330078125,-0.9592111706733704,0.1612684279680252,1.0771081447601318
1761487525602242600,0.18724267578125,-0.5510004758834839,0.9150761365890503,0.44364088773727417
1761487525619079000,0.204078857421875,0.11743884533643723,1.2551753520965576,-0.15515977144241333
1761487525635885800,0.2208857421875,0.6334672570228577,0.7212791442871094,-0.5357288122177124
1761487525652723700,0.2377236328125,0.6021603941917419,-0.0754418596625328,-0.845132052898407
1761487525669556000,0.254555908203125,0.3836233615875244,-1.0418306589126587,-0.9810495972633362
1761487525686388700,0.271388671875,0.23197607696056366,-1.7944166660308838,-0.8677340745925903
1761487525703195600,0.288195556640625,0.18448130786418915,-1.9312504529953003,-0.5364924073219299
1761487525720029200,0.305029296875,0.21639901399612427,-1.9683605432510376,-0.24526239931583405
1761487525736849200,0.32184912109375,0.06902777403593063,-1.9729419946670532,-0.20861047506332397
1761487525753681000,0.338680908203125,-0.13805554807186127,-1.901318073272705,-0.5141957998275757
1761487525770500000,0.3555,-0.12797626852989197,-1.9938641786575317,-0.9676105380058289
1761487525787322000,0.372322021484375,-0.014508049935102463,-1.890017032623291,-1.300837516784668
1761487525804128500,0.38912841796875,0.0019853119738399982,-1.4217888116836548,-1.4407256841659546
1761487525820972500,0.40597265625,-0.04657847434282303,-0.7994698882102966,-1.4404202699661255
1761487525837791000,0.422791015625,-0.14217889308929443,-0.2223549485206604,-1.306488037109375
1761487525854605800,0.439605712890625,-0.15485434234142303,0.26053401827812195,-1.1482739448547363
1761487525871430400,0.456430419921875,-0.08414668589830399,0.560468852519989,-1.0974193811416626
1761487525888254700,0.473254638671875,0.03176499158143997,0.3260493278503418,-0.9137017130851746
1761487525905055700,0.4900556640625,0.11514809727668762,0.05971207842230797,-0.49067750573158264
1761487525921903600,0.506903564453125,0.19975294172763824,-0.3933972120285034,-0.16401731967926025
1761487525938731300,0.523731201171875,0.4193589985370636,-1.0561859607696533,-0.1511891484260559
1761487525955566000,0.540566162109375,0.6227771043777466,-1.0192286968231201,-0.16493362188339233
1761487525972389400,0.557389404296875,0.644768238067627,-0.28955012559890747,-0.12370020896196365
1761487525989214500,0.57421435546875,0.660192608833313,0.3675881624221802,-0.09789115190505981
1761487526006017800,0.591017822265625,0.8121453523635864,0.4645630121231079,-0.010690141469240189
1761487526022867500,0.607867431640625,1.1217013597488403,0.4005748927593231,0.07101308554410934
1761487526039683300,0.624683349609375,1.1644618511199951,0.6188064813613892,0.17806722223758698
1761487526056498200,0.641498291015625,1.0378600358963013,0.7693848013877869,0.25641068816185
1761487526073322800,0.65832275390625,0.9868528246879578,-0.12782354652881622,0.31581732630729675
1761487526090146800,0.675146728515625,1.1215485334396362,-1.2985467910766602,0.394008070230484
1761487526106970400,0.691970458984375,1.3338242769241333,-2.085952043533325,0.5433646440505981
1761487526123795700,0.708795654296875,2.180025339126587,-2.939025402069092,0.8462010622024536
1761487526140624000,0.725623779296875,2.875800848007202,-3.609144687652588,1.6442965269088745
1761487526157441500,0.742441650390625,2.5899159908294678,-4.257883548736572,1.49906325340271
1761487526174275800,0.75927587890625,1.710117220878601,-4.530940055847168,0.08994990587234497
1761487526191107800,0.77610791015625,0.8636107444763184,-4.445113658905029,-1.5696182250976562
1761487526207935700,0.792935791015625,0.39813143014907837,-3.902359962463379,-2.772564649581909
1761487526224734700,0.809734619140625,-0.11362093687057495,-2.2824978828430176,-2.7794368267059326
1761487526241582800,0.826582763671875,-1.2571606636047363,-0.12308934330940247,-1.2050844430923462
1761487526258387700,0.8433876953125,-2.5751023292541504,1.3127493858337402,0.49785518646240234
1761487526275228400,0.860228515625,-3.286302328109741,1.0041097402572632,1.1898127794265747
1761487526292057300,0.877057373046875,-3.2947018146514893,0.04214970022439957,1.0015136003494263
1761487526308872200,0.8938720703125,-2.8802297115325928,0.22571471333503723,0.4095851480960846
1761487526325672400,0.91067236328125,-2.7181975841522217,1.763109803199768,-0.10644327104091644
1761487526342507300,0.92750732421875,-2.819295883178711,3.318983554840088,-0.08491026610136032
1761487526359338200,0.944338134765625,-2.978426218032837,3.8815903663635254,0.5534439086914062
1761487526376160000,0.961159912109375,-2.836247444152832,3.5805866718292236,1.4234687089920044
1761487526392985600,0.977985595703125,-2.4501805305480957,2.8550314903259277,1.8713856935501099
1761487526409798000,0.9947978515625,-1.4845552444458008,2.4921774864196777,1.9052886962890625
1761487526426634000,1.011634033203125,-0.4411974251270294,2.393064498901367,1.4129313230514526
1761487526443474700,1.028474609375,0.15821409225463867,2.236224889755249,0.9691377282142639
1761487526460296700,1.045296630859375,0.3202461004257202,1.8541287183761597,1.0265589952468872
1761487526477104400,1.0621044921875,0.1670716404914856,1.3889548778533936,1.3611605167388916
1761487526493945000,1.078945068359375,0.009926560334861279,1.1226176023483276,1.4924964904785156
1761487526510750500,1.09575048828125,0.020311269909143448,1.1734721660614014,1.2179125547409058
1761487526527593700,1.11259375,0.12308934330940247,1.3084733486175537,0.7435756921768188
1761487526544404500,1.129404541015625,0.22617286443710327,1.3100005388259888,0.3194825351238251
1761487526561228800,1.146228759765625,0.23258693516254425,1.0816895961761475,0.2324342280626297
1761487526578052400,1.16305224609375,0.14553864300251007,0.7525860071182251,0.2597704529762268
1761487526594878000,1.1798779296875,0.07116580009460449,0.6812674403190613,0.23777928948402405
1761487526611702000,1.196701904296875,0.008857546374201775,0.6366742849349976,0.1010981947183609
1761487526628529700,1.21352978515625,0.0377209298312664,0.7134906053543091,-0.17073683440685272
1761487526645363200,1.23036328125,0.11270463466644287,0.8281805515289307,-0.3927863538265228
1761487526662187800,1.247187744140625,0.14004085958003998,0.7363980412483215,-0.39813143014907837
1761487526678998500,1.26399853515625,0.21884247660636902,0.7428121566772461,-0.35216382145881653
1761487526695837700,1.280837646484375,0.49617528915405273,0.9692904353141785,-0.22082778811454773
1761487526712640300,1.29764013671875,0.7875580191612244,0.6064364910125732,0.09346238523721695
1761487526729475800,1.314475830078125,1.3142765760421753,-0.2070833146572113,0.5331326723098755
1761487526746293500,1.33129345703125,1.28128981590271,-0.9535606503486633,0.4651738703250885
1761487526763119000,1.348119140625,0.7145596146583557,-1.496161699295044,-0.5677992701530457
1761487526779958000,1.3649580078125,0.727998673915863,-2.1087067127227783,-2.0021109580993652
1761487526796766500,1.381766357421875,0.7406741380691528,-2.445904493331909,-2.726902484893799
1761487526813591800,1.398591796875,0.22907446324825287,-1.6074918508529663,-2.9014573097229004
1761487526830415400,1.415415283203125,-0.021380282938480377,0.3171917796134949,-2.786309003829956
1761487526847242000,1.432241943359375,-0.2226603776216507,1.4204144477844238,-2.4686591625213623
1761487526864055800,1.449055908203125,-0.21181751787662506,0.5786421298980713,-2.2072088718414307
1761487526880891400,1.465891357421875,-0.32528573274612427,0.1463022232055664,-1.74356210231781
1761487526897716000,1.482716064453125,-0.48945578932762146,0.018478672951459885,-1.571603536605835
1761487526914539300,1.499539306640625,-0.8132143616676331,0.5694791078567505,-1.5202908515930176
1761487526931382000,1.516382080078125,-1.2154691219329834,1.3087787628173828,-1.1493430137634277
1761487526948186000,1.53318603515625,-1.5202908515930176,1.6684256792068481,-0.43417248129844666
1761487526965015000,1.55001513671875,-1.386358618736267,1.5444200038909912,0.4576907753944397
1761487526981857500,1.566857421875,-0.764345109462738,1.6128369569778442,1.2353222370147705
1761487526998669300,1.58366943359375,-0.1647808998823166,1.574657917022705,1.6992744207382202
1761487527015499300,1.600499267578125,0.11071932315826416,1.1655309200286865,1.8553504943847656
1761487527032308200,1.61730810546875,0.14508049190044403,0.5192354321479797,1.7646369934082031
1761487527049134000,1.634134033203125,0.12339477986097336,0.21884247660636902,1.4831807613372803
1761487527065963000,1.650962890625,0.13988813757896423,0.3248275816440582,1.1879801750183105
1761487527082782000,1.667781982421875,0.15103642642498016,0.5303837656974792,1.0332785844802856
1761487527099606500,1.6846064453125,0.07009678333997726,0.5729916095733643,0.9272934198379517
1761487527116435000,1.70143505859375,-0.05711590126156807,0.3474296033382416,0.9115636348724365
1761487527133266400,1.718266357421875,-0.23655757308006287,-0.022602014243602753,0.9443976879119873
1761487527150097700,1.73509765625,-0.3393356502056122,-0.1927279829978943,0.8619308471679688
1761487527166917000,1.751917236328125,-0.304210901260376,-0.12721268832683563,0.6391177773475647
1761487527183742500,1.768742431640625,-0.18096883594989777,-0.02977968007326126,0.422871470451355
1761487527200554800,1.7855546875,-0.08277224004268646,-0.062460970133543015,0.43417248129844666
1761487527217771800,1.802771728515625,-0.08200865983963013,-0.24862214922904968,0.6542366743087769
1761487527234189600,1.819189453125,-0.13118331134319305,-0.32330042123794556,0.7672467231750488
1761487527251029500,1.836029541015625,-0.1837177276611328,-0.289702832698822,0.7687739133834839
1761487527267842000,1.852842041015625,-0.17302757501602173,-0.22418753802776337,0.6476698517799377
1761487527284676000,1.869676025390625,-0.15454891324043274,-0.14645494520664215,0.5433646440505981
1761487527301502000,1.886501953125,-0.14049901068210602,0.039248090237379074,0.5167919993400574
1761487527318324200,1.90332421875,-0.1840231567621231,0.26343563199043274,0.3985895812511444
1761487527335148300,1.920148193359375,-0.24908030033111572,0.3303253948688507,0.2096794992685318
1761487527351963100,1.936963134765625,-0.34284812211990356,0.313373863697052,-0.010995574295520782
1761487527368797200,1.953797119140625,-0.28099802136421204,0.6249151229858398,-0.27061331272125244
1761487527385621200,1.970621337890625,-0.012064588256180286,1.0329731702804565,-0.5091561675071716
1761487527402445600,1.987445556640625,0.44135013222694397,0.8287914395332336,-0.6041457056999207
1761487527419288000,2.0042880859375,0.7298312783241272,-0.14553864300251007,-0.5997169613838196
1761487527436107800,2.021107666015625,1.0409144163131714,-1.8834502696990967,-0.8432994484901428
1761487527452916700,2.037916748046875,0.9280570149421692,-3.1555771827697754,-1.8913915157318115
1761487527469756700,2.054756591796875,0.5754350423812866,-2.091297149658203,-3.74109148979187
1761487527486582000,2.07158203125,0.1394299864768982,-1.2056952714920044,-5.207473278045654
1761487527503405600,2.088405517578125,0.0003054326225537807,-3.17634654045105,-5.319872856140137
1761487527520220000,2.105219970703125,1.0257954597473145,-6.5199174880981445,-4.081037998199463
1761487527537040400,2.122040283203125,1.8391625881195068,-7.444004058837891,-1.8223637342453003
1761487527553869000,2.138869140625,1.2944234609603882,-4.837594509124756,-0.8080220222473145
1761487527570679000,2.155678955078125,0.17791450023651123,-1.5173892974853516,-1.4819591045379639
1761487527587512600,2.1725126953125,-0.7499898076057434,0.11927144229412079,-2.5080599784851074
1761487527604338400,2.18933837890625,-1.0590876340866089,-0.10476338863372803,-2.7867672443389893
1761487527621159000,2.206158935546875,-0.8349000811576843,-0.9161451458930969,-2.1230621337890625
1761487527638002700,2.223002685546875,-0.394618958234787,-1.1516337394714355,-1.0752755403518677
1761487527654825700,2.23982568359375,-0.07177666574716568,-0.8839219808578491,-0.21533000469207764
1761487527671633000,2.2566328125,0.23121249675750732,-0.29168814420700073,0.3952298164367676
1761487527688473300,2.273473388671875,0.5343543887138367,0.16432274878025055,0.9028588533401489
1761487527705285400,2.290285400390625,0.7681630253791809,0.23839016258716583,1.2814425230026245
1761487527722122000,2.3071220703125,0.7522805333137512,0.21700987219810486,1.3385584354400635
1761487527738946300,2.3239462890625,0.43218716979026794,0.3202461004257202,0.903775155544281
1761487527755780900,2.34078076171875,-0.05513058975338936,0.5082398653030396,0.40851613879203796
1761487527772560600,2.357560546875,-0.42119157314300537,0.8283332586288452,0.20143280923366547
1761487527789420800,2.3744208984375,-0.6272059082984924,0.9376781582832336,0.3000875413417816
1761487527806240300,2.391240234375,-0.7110471725463867,0.693026602268219,0.6214026808738708
1761487527823055000,2.40805517578125,-0.6508769392967224,0.4101960062980652,0.826195240020752
1761487527839878700,2.424878662109375,-0.47311514616012573,0.20845776796340942,0.8150469660758972
1761487527856703000,2.441702880859375,-0.30970868468284607,0.12996158003807068,0.7409795522689819
1761487527873527300,2.45852734375,-0.2590068578720093,0.08689557760953903,0.7257078886032104
1761487527890353000,2.475352783203125,-0.2968805134296417,0.11667526513338089,0.8185594081878662
1761487527907179300,2.49217919921875,-0.35613444447517395,0.27351492643356323,0.9376781582832336
1761487527924010500,2.509010498046875,-0.39706242084503174,0.4735732674598694,1.0167851448059082
1761487527940842500,2.525842529296875,-0.3623957931995392,0.6887505650520325,1.0265589952468872
1761487527957644000,2.54264404296875,-0.27840182185173035,0.6548475623130798,1.0056369304656982
1761487527974488600,2.559488525390625,0.001679879380390048,0.07208210229873657,0.8023715019226074
1761487527991307000,2.57630712890625,0.028557950630784035,0.4957171380519867,0.8979719281196594
1761487528008139000,2.593138916015625,-0.19685132801532745,0.8355109095573425,0.9663888216018677
1761487528024942800,2.60994287109375,-0.23747386038303375,1.0746647119522095,0.817337691783905
1761487528041769200,2.626769287109375,-0.15454891324043274,1.0877982378005981,0.4717406928539276
1761487528058598400,2.643598388671875,-0.19013181328773499,0.8729264140129089,0.4599815309047699
1761487528075415800,2.660415771484375,-0.4671591818332672,1.1507173776626587,0.9257662892341614
1761487528092249300,2.677249267578125,-0.6725626587867737,2.309070587158203,1.326035737991333
1761487528109067500,2.694067626953125,-0.4063780903816223,2.4167356491088867,1.1636983156204224
1761487528125880000,2.710880126953125,0.3266601860523224,1.0542006492614746,1.0277807712554932
1761487528142734300,2.727734375,0.46242499351501465,-0.252287358045578,1.3578007221221924
1761487528159552300,2.74455224609375,0.21853704750537872,0.3793473243713379,1.5221234560012817
1761487528176383700,2.7613837890625,0.6876815557479858,1.4486669301986694,1.279915452003479
1761487528193201700,2.77820166015625,1.4805846214294434,1.6439911127090454,1.4969252347946167
1761487528210029000,2.795029052734375,2.023796558380127,1.0607675313949585,2.026698112487793
1761487528226819000,2.811819091796875,2.4252877235412598,0.1547016203403473,2.3854286670684814
1761487528243666700,2.828666748046875,2.3599252700805664,-0.31031954288482666,1.9112446308135986
1761487528260484400,2.845484375,1.7426458597183228,-0.04734205827116966,0.7622070908546448
1761487528277311000,2.86231103515625,1.1297953128814697,0.14416420459747314,-0.5529857873916626
1761487528294141400,2.879141357421875,0.7506006956100464,0.16798794269561768,-1.7547104358673096
1761487528310960600,2.895960693359375,0.3095559775829315,-0.12690725922584534,-2.350151300430298
1761487528327785000,2.912784912109375,-0.0981965884566307,-0.7605272531509399,-2.2968533039093018
1761487528344609000,2.929609130859375,-0.16233743727207184,-1.300837516784668,-1.923156499862671
1761487528361434600,2.9464345703125,-0.047800205647945404,-1.351233959197998,-1.4593570232391357
1761487528378258000,2.9632578125,-0.04444044828414917,-0.5251913666725159,-0.9906707406044006
1761487528395080000,2.980079833984375,-0.22403483092784882,0.7974845767021179,-0.6453791260719299
1761487528411920000,2.996919921875,-0.3153591752052307,1.6762142181396484,-0.3744603991508484
1761487528428735500,3.013735595703125,-0.2964223623275757,1.4665347337722778,-0.09269879758358002
1761487528445563400,3.0305634765625,-0.20906862616539001,0.5427537560462952,0.07467827945947647
1761487528462399000,3.04739892578125,-0.10522153973579407,-0.4080579876899719,-0.06704246252775192
1761487528479217700,3.0642177734375,-0.04138612002134323,-0.8701775670051575,-0.4735732674598694
1761487528496030200,3.0810302734375,-0.04688390716910362,-0.8028296232223511,-0.7363980412483215
1761487528512866300,3.0978662109375,-0.23900102078914642,-0.3805690407752991,-0.7324274182319641
1761487528529673500,3.114673583984375,-0.5826127529144287,0.11988230794668198,-0.5809328556060791
1761487528546482700,3.131482666015625,-0.9057604670524597,0.3747658133506775,-0.408363401889801
1761487528563329000,3.1483291015625,-1.0099129676818848,0.36331209540367126,-0.25503623485565186
1761487528580148000,3.16514794921875,-0.9045386910438538,0.24159720540046692,-0.182648703455925
1761487528596974600,3.181974609375,-0.6670648455619812,0.22876903414726257,-0.1696678251028061
1761487528613799000,3.198798828125,-0.43127086758613586,0.3019201457500458,-0.05864306539297104
1761487528630643200,3.215643310546875,-0.3214678466320038,0.2246456891298294,0.26282477378845215
1761487528647441000,3.23244091796875,-0.2996293902397156,0.1160643994808197,0.6481280326843262
1761487528664273200,3.249273193359375,-0.3003929853439331,0.17592918872833252,0.880104124546051
1761487528681110000,3.266110107421875,-0.3000875413417816,0.44486260414123535,0.8872817754745483
1761487528697935600,3.282935546875,-0.3715587854385376,0.6511823534965515,0.6772968173027039
1761487528714758700,3.299758544921875,-0.44394633173942566,0.7159340381622314,0.4179845452308655
1761487528731597300,3.316597412109375,-0.43615779280662537,0.6363688707351685,0.32100969552993774
1761487528748408000,3.333407958984375,-0.4179845452308655,0.6354525685310364,0.34025195240974426
1761487528765236700,3.35023681640625,-0.3349068760871887,0.8915578126907349,0.3397938013076782
1761487528782057200,3.36705712890625,-0.07528914511203766,1.0543533563613892,0.44974952936172485
1761487528798863000,3.383863037109375,0.2874121069908142,0.6688974499702454,0.48258355259895325
1761487528815698200,3.4006982421875,0.5209153294563293,0.15225815773010254,0.2525927722454071
1761487528832516400,3.417516357421875,0.17470745742321014,-0.5093088746070862,-0.46731191873550415
1761487528849340700,3.434340576171875,0.1111774742603302,-2.280818223953247,-1.9173532724380493
1761487528866157300,3.4511572265625,0.7895433306694031,-4.030030727386475,-2.8593075275421143
1761487528882992000,3.4679921875,1.2898420095443726,-4.0627121925354,-3.2111659049987793
1761487528899828200,3.484828125,1.549154281616211,-1.7090482711791992,-3.386789560317993
1761487528916632300,3.50163232421875,1.562135100364685,-0.8807149529457092,-3.4414620399475098
1761487528933475300,3.518475341796875,1.6310101747512817,-1.785559058189392,-2.914896249771118
1761487528950284000,3.535283935546875,0.42898011207580566,-1.4016302824020386,-1.8266397714614868
1761487528967125000,3.552125,0.02474004216492176,-1.1423180103302002,-1.282511591911316
1761487528983949300,3.56894921875,-0.05406157299876213,-0.49785518646240234,-1.0937541723251343
1761487529000769500,3.58576953125,-0.09514226019382477,0.23426681756973267,-0.6913467645645142
1761487529017584000,3.602584228515625,-0.21639901399612427,0.5624541640281677,-0.13484850525856018
1761487529034408700,3.61940869140625,-0.33536502718925476,0.7302893996238708,0.39736783504486084
1761487529051220000,3.636219970703125,-0.5462662577629089,0.988379955291748,0.7191411256790161
1761487529068053000,3.653052978515625,-0.860556423664093,1.2695306539535522,0.9668469429016113
1761487529084884700,3.669884765625,-1.1154398918151855,1.2487612962722778,1.1429288387298584
1761487529101709300,3.686709228515625,-1.163851022720337,1.045495867729187,1.1186469793319702
1761487529118544100,3.703544189453125,-1.0196868181228638,0.71318519115448,1.1282681226730347
1761487529135351300,3.720351318359375,-0.8225300312042236,0.4360050559043884,1.263269305229187
1761487529152192800,3.73719287109375,-0.6962336897850037,0.21334469318389893,1.5051720142364502
1761487529169017300,3.754017333984375,-0.6091853380203247,0.10949759185314178,1.7134770154953003
1761487529185841400,3.77084130859375,-0.5022839307785034,0.19288070499897003,1.9495763778686523
1761487529202665000,3.7876650390625,-0.39813143014907837,0.16462817788124084,2.3104450702667236
1761487529219490000,3.804489990234375,-0.3959933817386627,-0.1618792861700058,2.7290403842926025
1761487529236297700,3.821297607421875,-0.4648684561252594,-0.6948592066764832,3.073110342025757
1761487529253143300,3.838143310546875,-0.4778493344783783,-1.2838860750198364,3.1830661296844482
1761487529269962200,3.854962158203125,-0.2964223623275757,-1.5196800231933594,2.9013044834136963
1761487529286767000,3.87176708984375,0.02977968007326126,-1.1916453838348389,2.439643144607544
1761487529303591200,3.888591064453125,0.294437050819397,-0.6374378800392151,2.0036380290985107
1761487529320422700,3.905422607421875,0.36972618103027344,-0.593913733959198,1.6850718259811401
1761487529337246000,3.922245849609375,0.5545129179954529,-0.8924741148948669,1.6723963022232056
1761487529354086100,3.939086181640625,0.7716755270957947,-1.1148290634155273,1.5234979391098022
1761487529370896400,3.955896484375,1.0636690855026245,-1.0062477588653564,0.955545961856842
1761487529387736000,3.972736083984375,1.2108876705169678,-0.835358202457428,0.23457226157188416
1761487529404557000,3.98955712890625,1.3251193761825562,-0.8301658630371094,-0.4772384762763977
1761487529421382100,4.006382080078125,1.543809175491333,-0.9808968901634216,-0.8575021028518677
1761487529438202600,4.02320263671875,1.8087719678878784,-1.0700831413269043,-1.1982121467590332
1761487529455034600,4.04003466796875,2.0199787616729736,-1.2681562900543213,-2.1534526348114014
1761487529471854000,4.05685400390625,2.3467915058135986,-2.0870211124420166,-3.7731618881225586
1761487529488677000,4.073677001953125,2.5028676986694336,-2.93963623046875,-5.067585468292236
1761487529505487600,4.090487548828125,2.0729711055755615,-2.205376148223877,-6.115677356719971
1761487529522317300,4.1073173828125,1.9465221166610718,0.2382374405860901,-6.252664089202881
1761487529539137800,4.1241376953125,2.141388177871704,1.842674970626831,-5.261535167694092
1761487529555963400,4.14096337890625,2.4610233306884766,0.32910364866256714,-3.076775550842285
1761487529572787700,4.15778759765625,2.8466320037841797,-1.860390067100525,0.6354525685310364
1761487529589611500,4.174611572265625,2.5856399536132812,-1.4879150390625,4.475809574127197
1761487529606453200,4.191453369140625,1.5906931161880493,0.3914119005203247,6.091853618621826
1761487529623274500,4.2082744140625,0.394008070230484,1.277471899986267,4.978551864624023
1761487529640098800,4.225098876953125,-0.8582656979560852,1.1275044679641724,3.4187073707580566
1761487529656906800,4.24190673828125,-2.1375701427459717,0.7538077235221863,2.593581199645996
1761487529673743000,4.2587431640625,-2.939025402069092,0.9485210180282593,2.1262691020965576
1761487529690578200,4.275578125,-3.0227138996124268,1.5932892560958862,1.7307339906692505
1761487529707399000,4.29239892578125,-2.6989552974700928,1.9326249361038208,1.627497673034668
1761487529724220700,4.309220703125,-2.1757493019104004,1.5628987550735474,2.0340285301208496
1761487529741039400,4.326039306640625,-1.5315918922424316,0.9605855941772461,2.849838972091675
1761487529757873400,4.342873291015625,-0.8701775670051575,0.44577890634536743,3.813478946685791
1761487529774690300,4.359690185546875,-0.49984049797058105,0.018478672951459885,4.372573375701904
1761487529791504400,4.37650439453125,-0.42470407485961914,-0.3113885521888733,4.302323818206787
1761487529808327400,4.393327392578125,-0.6148358583450317,-0.12339477986097336,3.7901134490966797
1761487529825135400,4.41013525390625,-0.9523389339447021,0.4375322461128235,2.9388725757598877
1761487529841974300,4.426974365234375,-1.2675453424453735,0.8730791807174683,1.8522961139678955
1761487529858804500,4.443804443359375,-1.3281737565994263,0.7808384895324707,0.7238753437995911
1761487529875628300,4.460628173828125,-1.1494957208633423,0.24037547409534454,-0.02367102913558483
1761487529892440000,4.477440185546875,-0.8666650652885437,-0.2629774808883667,-0.3168863356113434
1761487529909277700,4.494277587890625,-0.5560401082038879,-0.554818332195282,-0.3917173445224762
1761487529926099700,4.511099609375,-0.28359419107437134,-0.7113525867462158,-0.39965859055519104
1761487529942922200,4.527922119140625,0.004428773187100887,-0.9724974632263184,-0.408974289894104
1761487529959747600,4.54474755859375,0.36331209540367126,-1.2780828475952148,-0.4098905920982361
1761487529976572000,4.561572021484375,0.7189884185791016,-1.386358618736267,-0.3790418803691864
1761487529993396700,4.578396728515625,0.9663888216018677,-1.2796099185943604,-0.35033121705055237
1761487530010219500,4.595219482421875,1.0787880420684814,-1.190729022026062,-0.45952337980270386
1761487530027045000,4.612045166015625,1.105513334274292,-1.1592695713043213,-0.7867944240570068
1761487530043869400,4.628869384765625,1.0758863687515259,-1.0118982791900635,-1.2887729406356812
1761487530060693800,4.64569384765625,1.0612256526947021,-0.8188648819923401,-1.8923077583312988
1761487530077516300,4.662516357421875,1.009149432182312,-0.4340197443962097,-2.507449150085449
1761487530094360300,4.6793603515625,0.8860600590705872,0.023060163483023643,-3.04546856880188
1761487530111180800,4.696180908203125,0.8880453705787659,0.3969096839427948,-3.4071009159088135
1761487530128005000,4.713005126953125,1.289689302444458,-0.07422012835741043,-3.355788230895996
1761487530144826600,4.72982666015625,2.2269091606140137,-1.612226128578186,-2.4013113975524902
1761487530161655300,4.7466552734375,2.8735101222991943,-2.8046350479125977,-1.0221302509307861
1761487530178473700,4.7634736328125,2.2353086471557617,-2.649017095565796,-0.518471896648407
1761487530195310600,4.780310546875,2.0004310607910156,-1.4926491975784302,-1.3341296911239624
1761487530212112600,4.797112548828125,2.5221099853515625,0.5803219676017761,-1.3817771673202515
1761487530228951000,4.813950927734375,1.9434677362442017,1.564884066581726,-0.0656680166721344
1761487530245755000,4.8307548828125,1.220050573348999,1.3535246849060059,1.0459539890289307
1761487530262603800,4.847603759765625,0.7191411256790161,1.2565498352050781,0.8617781400680542
1761487530279405800,4.86440576171875,0.15836681425571442,1.2614367008209229,0.06520986557006836
1761487530296234800,4.88123486328125,-0.45875978469848633,1.463938593864441,-0.33246341347694397
1761487530313059300,4.898059326171875,-0.8225300312042236,1.8509217500686646,-0.25854870676994324
1761487530329883400,4.91488330078125,-0.7883216142654419,2.306321620941162,0.18295414745807648
1761487530346706700,4.931706787109375,-0.543059229850769,2.5140159130096436,0.9572258591651917
1761487530363532000,4.948531982421875,-0.2295326143503189,2.3127357959747314,1.8713856935501099
1761487530380373500,4.96537353515625,0.1699732542037964,1.705383062362671,2.6024386882781982
1761487530397212000,4.9822119140625,0.3933972120285034,0.9301950335502625,2.9881999492645264
1761487530414014200,4.99901416015625,0.38408151268959045,0.15073099732398987,2.8576276302337646
1761487530430840000,5.015840087890625,0.20311269164085388,-0.46761733293533325,2.3373231887817383
1761487530447673900,5.032673828125,-0.005803219974040985,-0.6279694437980652,1.7227927446365356
1761487530464488400,5.049488525390625,-0.15974126756191254,-0.5639813542366028,1.1140655279159546
1761487530481290800,5.066290771484375,-0.3338378667831421,-0.670577347278595,0.43127086758613586
1761487530498126800,5.083126953125,-0.504574716091156,-0.9216429591178894,-0.18096883594989777
1761487530514951200,5.099951171875,-0.551305890083313,-1.0358747243881226,-0.5432119369506836
1761487530531775500,5.116775390625,-0.4723515510559082,-0.9575312733650208,-0.6681338548660278
1761487530548598800,5.133598876953125,-0.24098633229732513,-0.8237518072128296,-0.6800457239151001
1761487530565427700,5.150427734375,0.08720101416110992,-0.7802276611328125,-0.7052439451217651
1761487530582262300,5.16726220703125,0.39767327904701233,-0.8471173644065857,-0.7918340563774109
1761487530599096800,5.184096923828125,0.6247624158859253,-0.9793696999549866,-0.888961672782898
1761487530615910000,5.200909912109375,0.7267768979072571,-1.0900890827178955,-0.9926560521125793
1761487530632731000,5.21773095703125,0.6885978579521179,-1.2125675678253174,-1.1081095933914185
1761487530649551000,5.234551025390625,0.5874996781349182,-1.2189816236495972,-1.2399036884307861
1761487530666384100,5.251384033203125,0.521984338760376,-1.0329731702804565,-1.4091134071350098
1761487530683203000,5.268203125,0.4567744731903076,-0.7218900322914124,-1.6818647384643555
1761487530700023000,5.28502294921875,0.3735440969467163,-0.40164390206336975,-1.963779091835022
1761487530716832500,5.30183251953125,0.21991148591041565,0.0529925599694252,-2.241875410079956
1761487530733653800,5.31865380859375,0.005650503560900688,0.270766019821167,-2.3988678455352783
1761487530750494200,5.335494140625,-0.2018909603357315,0.22815817594528198,-2.3817636966705322
1761487530767302100,5.35230224609375,-0.11820242553949356,0.11148291081190109,-2.088548183441162
1761487530784142000,5.36914208984375,0.38377609848976135,-0.07376197725534439,-1.5215126276016235
1761487530800962800,5.385962890625,0.4489859640598297,-0.3649919927120209,-0.8475755453109741
1761487530817788400,5.402788330078125,-0.23747386038303375,-0.8768970370292664,-0.4103487432003021
1761487530834611200,5.419611083984375,-0.41630467772483826,-1.067639708518982,-1.1542298793792725
1761487530851439900,5.43643994140625,-0.20143280923366547,-0.3257438838481903,-1.6899586915969849
1761487530868278500,5.453278564453125,-0.8016079068183899,0.7745771408081055,-1.136362075805664
1761487530885099500,5.470099609375,-1.323439598083496,1.6994271278381348,-0.36422839760780334
1761487530901910300,5.48691015625,-1.3003793954849243,2.464841365814209,0.058795779943466187
1761487530918747400,5.503747314453125,-1.1592695713043213,2.462703227996826,0.0656680166721344
1761487530935572000,5.520572021484375,-1.0543533563613892,1.933541178703308,-0.07223481684923172
1761487530952396300,5.537396240234375,-0.983951210975647,1.6113097667694092,0.020616702735424042
1761487530969214500,5.55421435546875,-1.0238101482391357,1.6247488260269165,0.22296582162380219
1761487530986036000,5.571035888671875,-1.1345294713974,1.9263635873794556,0.31459560990333557
1761487531002857000,5.58785693359375,-1.2890783548355103,2.3518311977386475,0.43249258399009705
1761487531019680500,5.604680419921875,-1.313360333442688,2.8964176177978516,0.6672175526618958
1761487531036504800,5.6215048828125,-1.1345294713974,3.3099732398986816,0.9824240207672119
1761487531053318000,5.63831787109375,-0.7206682562828064,3.0360002517700195,1.2788463830947876
1761487531070152700,5.655152587890625,-0.20830504596233368,1.9905043840408325,1.4692835807800293
1761487531086970000,5.67197021484375,0.10048733651638031,0.6711881756782532,1.5887078046798706
1761487531103815200,5.688815185546875,0.12431107461452484,-0.2535090744495392,1.7290540933609009
1761487531120643800,5.705643798828125,0.0012217304902151227,-0.4360050559043884,1.9459112882614136
1761487531137461800,5.722461669921875,-0.2513710558414459,-0.33826664090156555,1.9408715963363647
1761487531154288600,5.73928857421875,-0.561079740524292,-0.3378084897994995,1.6000088453292847
1761487531171102000,5.75610205078125,-0.749531626701355,-0.4879286289215088,1.0850493907928467
1761487531187938800,5.772938720703125,-0.8191702961921692,-0.5960517525672913,0.6006332635879517
1761487531204761600,5.78976171875,-0.7863363027572632,-0.6574437022209167,0.19746218621730804
1761487531221567000,5.80656689453125,-0.7397578358650208,-0.7110471725463867,-0.20082195103168488
1761487531238397000,5.82339697265625,-0.6116288304328918,-0.8611672520637512,-0.5032002329826355
1761487531255222300,5.84022216796875,-0.42867469787597656,-1.1027644872665405,-0.5910121202468872
1761487531272032800,5.85703271484375,-0.2393064647912979,-1.2976305484771729,-0.5044219493865967
1761487531288867000,5.8738671875,-0.029626963660120964,-1.485318899154663,-0.3793473243713379
1761487531305697500,5.890697509765625,0.22342395782470703,-1.8106045722961426,-0.32528573274612427
1761487531322519600,5.90751953125,0.5085453391075134,-2.2200369834899902,-0.25824329257011414
1761487531339343600,5.924343505859375,0.8327620625495911,-2.562885046005249,-0.21639901399612427
1761487531356153900,5.94115380859375,1.2495248317718506,-2.3793201446533203,-0.327271044254303
1761487531373001700,5.958001708984375,1.469894528388977,-1.654223084449768,-0.688903272151947
1761487531389834800,5.974834716796875,1.257924199104309,-1.1876747608184814,-1.2356276512145996
1761487531406677000,5.991677001953125,0.9340129494667053,-1.1352930068969727,-1.5745052099227905
1761487531423478500,6.008478515625,0.9958630800247192,-1.5031867027282715,-1.731955647468567
1761487531440302600,6.025302490234375,1.0800096988677979,-1.6945401430130005,-1.669342041015625
1761487531457105200,6.042105224609375,0.722959041595459,-1.337031364440918,-1.7079792022705078
1761487531473934600,6.0589345703125,0.26908615231513977,-1.0122036933898926,-2.557387351989746
1761487531490762200,6.07576220703125,-0.37461310625076294,-1.1256719827651978,-3.0995302200317383
1761487531507586600,6.092586669921875,-1.160033106803894,-0.6730207800865173,-2.6542093753814697
1761487531524398600,6.109398681640625,-1.4731014966964722,0.6041457056999207,-1.7062993049621582
1761487531541232000,6.126232177734375,-1.4720325469970703,1.948354721069336,-1.037249207496643
1761487531558070300,6.1430703125,-1.2841914892196655,2.372447967529297,-0.873842716217041
1761487531574894600,6.15989453125,-1.0932960510253906,2.2342395782470703,-0.6047565937042236
1761487531591728400,6.176728271484375,-1.0044151544570923,2.2878429889678955,-0.07391469180583954
1761487531608545000,6.193544921875,-0.9344711303710938,2.646879196166992,0.5297728776931763
1761487531625371100,6.21037109375,-0.9230173826217651,2.811049222946167,1.0444267988204956
1761487531642190600,6.227190673828125,-0.9871582388877869,2.847701072692871,1.4107933044433594
1761487531659024400,6.2440244140625,-1.1192578077316284,2.8397598266601562,1.6223053932189941
1761487531675843800,6.26084375,-1.29549241065979,2.6088528633117676,1.5587754249572754
1761487531692668000,6.27766796875,-1.291063666343689,1.986533761024475,1.1843149662017822
1761487531709492700,6.29449267578125,-1.0464121103286743,1.1662944555282593,0.7405213713645935
1761487531726286300,6.311286376953125,-0.702800452709198,0.8385652899742126,0.6032294034957886
1761487531743130600,6.328130615234375,-0.46441030502319336,0.9133962392807007,0.8126034736633301
1761487531759952000,6.344951904296875,-0.43157628178596497,0.9944885969161987,1.0816895961761475
1761487531776774400,6.3617744140625,-0.5691736936569214,0.6194173693656921,1.1104003190994263
1761487531793603000,6.37860302734375,-0.6717990636825562,0.07162395119667053,0.8781188130378723
1761487531810424800,6.3954248046875,-0.6449210047721863,-0.22937989234924316,0.42531493306159973
1761487531827249200,6.412249267578125,-0.49984049797058105,-0.1394299864768982,-0.04612032696604729
1761487531844077000,6.4290771484375,-0.29168814420700073,0.04703662544488907,-0.3286454975605011
1761487531860908500,6.445908447265625,-0.08552113175392151,0.060933809727430344,-0.35185837745666504
1761487531877740300,6.462740234375,0.06230825558304787,-0.14187344908714294,-0.19028452038764954
1761487531894559700,6.479559814453125,0.10262536257505417,-0.4482223689556122,0.010079276748001575
1761487531911384300,6.49638427734375,0.11056660860776901,-0.6973026990890503,0.16111570596694946
1761487531928210000,6.5132099609375,0.08002334833145142,-0.8706356883049011,0.1408044397830963
1761487531945033500,6.530033447265625,0.060933809727430344,-0.8190175890922546,-0.10476338863372803
1761487531961851100,6.54685107421875,0.12950342893600464,-0.6988298296928406,-0.45692721009254456
1761487531978664400,6.56366455078125,0.2356412708759308,-0.6499606370925903,-0.6635523438453674
1761487531995490300,6.580490234375,0.24358251690864563,-0.7872526049613953,-0.6730207800865173
1761487532012307000,6.597306884765625,0.16951510310173035,-0.9825767278671265,-0.6464481353759766
1761487532029142300,6.614142333984375,0.15882496535778046,-1.0751228332519531,-0.7513642311096191
1761487532045964500,6.630964599609375,0.3318525552749634,-1.1162035465240479,-0.8666650652885437
1761487532062794200,6.647794189453125,0.7965682744979858,-1.3489432334899902,-0.7790058851242065
1761487532079634700,6.664634765625,1.084285855293274,-2.4882068634033203,-0.512210488319397
1761487532096445700,6.68144580078125,1.046717643737793,-3.593109369277954,-0.4827362596988678
1761487532113277200,6.698277099609375,0.9045386910438538,-3.8935024738311768,-0.9020952582359314
1761487532130096400,6.715096435546875,0.6508769392967224,-3.2082643508911133,-1.5250251293182373
1761487532146930400,6.731930419921875,-0.2860376536846161,-1.714240550994873,-1.713935136795044
1761487532163741700,6.74874169921875,-1.2169963121414185,0.017562376335263252,-1.851074457168579
1761487532180588500,6.765588623046875,-1.5015068054199219,1.6198619604110718,-1.652390480041504
1761487532197392600,6.782392578125,-1.5693128108978271,2.506685495376587,-1.144303321838379
1761487532214170600,6.799170654296875,-1.51158607006073,1.9770653247833252,-1.032820463180542
1761487532231107000,6.816107177734375,-1.4088079929351807,0.7275404930114746,-1.0758863687515259
1761487532247860700,6.83286083984375,-1.362076759338379,-0.03573561832308769,-0.8823948502540588
1761487532264683000,6.84968310546875,-1.3573426008224487,-0.16249015927314758,-0.697149932384491
1761487532281504000,6.86650390625,-1.3782646656036377,0.35155296325683594,-0.5679519772529602
1761487532298334000,6.883333984375,-1.4903584718704224,1.2973250150680542,-0.21930062770843506
1761487532315156000,6.900156005859375,-1.7392860651016235,2.727360486984253,0.41890084743499756
1761487532331978500,6.916978515625,-1.9750800132751465,3.721085548400879,1.1120802164077759
1761487532348824000,6.933823974609375,-1.55892813205719,3.548210859298706,1.4370604753494263
1761487532365641700,6.950641845703125,-0.835358202457428,2.425440549850464,1.1467467546463013
1761487532382473200,6.96747314453125,-0.2742784917354584,1.179580807685852,0.6834055185317993
1761487532399287600,6.98428759765625,-0.09697485715150833,0.4715879559516907,0.5002986192703247
1761487532416119800,7.001119873046875,-0.24373523890972137,0.26542094349861145,0.5823072791099548
1761487532432923600,7.017923583984375,-0.5629123449325562,0.32421672344207764,0.7509061098098755
1761487532449742800,7.034742919921875,-0.8518515825271606,0.3877467215061188,0.8349000811576843
1761487532466575000,7.0515751953125,-0.949895441532135,0.3602577745914459,0.7929030656814575
1761487532483386600,7.06838671875,-0.8057312369346619,0.2658790946006775,0.6737843751907349
1761487532500222700,7.08522265625,-0.5224425196647644,0.1212567538022995,0.5572618246078491
1761487532517045000,7.102044921875,-0.2782491147518158,-0.16630806028842926,0.5508477091789246
1761487532533876000,7.1188759765625,-0.2064724564552307,-0.6484334468841553,0.7338019013404846
1761487532550717700,7.1357177734375,-0.2664899528026581,-1.078635334968567,0.9608910083770752
1761487532567530500,7.152530517578125,-0.31031954288482666,-1.250288486480713,1.0583239793777466
1761487532584358400,7.1693583984375,-0.26419922709465027,-1.3208433389663696,0.9989174008369446
1761487532601184800,7.186184814453125,-0.16401731967926025,-1.39017653465271,0.8402451276779175
1761487532618003700,7.203003662109375,-0.09193521738052368,-1.492038369178772,0.6204863786697388
1761487532634835200,7.219835205078125,-0.04489859566092491,-1.6099354028701782,0.4072943925857544
1761487532651639300,7.236639404296875,-0.017409659922122955,-1.8420641422271729,0.16752979159355164
1761487532668484900,7.25348486328125,-0.015271631069481373,-2.107179641723633,-0.16768251359462738
1761487532685305600,7.2703056640625,-0.01725694350898266,-2.2069034576416016,-0.6252205967903137
1761487532702129000,7.28712890625,-0.014202617108821869,-1.777923345565796,-1.2037099599838257
1761487532718954200,7.303954345703125,0.04489859566092491,-1.1942415237426758,-1.8500053882598877
1761487532735761400,7.320761474609375,0.3355177342891693,-1.7580702304840088,-2.6708555221557617
1761487532752589000,7.337589111328125,0.9689850211143494,-3.866166114807129,-3.4377968311309814
1761487532769412400,7.354412353515625,0.7812966704368591,-5.841856956481934,-3.6161694526672363
1761487532786238000,7.371238037109375,0.6017022728919983,-4.7276387214660645,-4.096767902374268
1761487532803062000,7.38806201171875,0.24678955972194672,0.7710646390914917,-4.011094093322754
1761487532819886800,7.404886962890625,-0.5815436840057373,4.7725372314453125,-3.826612710952759
1761487532836729300,7.421729248046875,-0.4306600093841553,4.50803279876709,-3.416722059249878
1761487532853546500,7.43854638671875,0.08567385375499725,2.8121180534362793,-1.7229454517364502
1761487532870373400,7.455373291015625,0.5141957998275757,0.5384777188301086,0.14874568581581116
1761487532887174400,7.47217431640625,0.8790351152420044,-1.4511103630065918,1.149953842163086
1761487532904006400,7.48900634765625,0.854905903339386,-1.9880609512329102,1.4746286869049072
1761487532920841200,7.50584130859375,0.4280638098716736,-1.401477575302124,1.3686435222625732
1761487532937653800,7.52265380859375,-0.12919799983501434,-0.3361285924911499,1.1820242404937744
1761487532954471400,7.539471435546875,-0.5206099152565002,0.6423248052597046,1.1498011350631714
1761487532971304400,7.556304443359375,-0.6487388610839844,1.155909776687622,1.3645201921463013
1761487532988130000,7.573130126953125,-0.4106541574001312,1.2580770254135132,1.811673641204834
1761487533004954000,7.5899541015625,0.022449297830462456,0.9517280459403992,2.3971879482269287
1761487533021778400,7.6067783203125,0.6239988207817078,0.2600758671760559,3.1919236183166504
1761487533038619100,7.623619140625,1.1290316581726074,0.0682641938328743,4.078747272491455
1761487533055441200,7.640441162109375,1.2093604803085327,0.37690386176109314,4.460690498352051
1761487533072265000,7.657264892578125,0.8124507665634155,0.8112290501594543,4.1131086349487305
1761487533089089500,7.674089599609375,0.09957103431224823,0.7108944058418274,3.1593949794769287
1761487533105913000,7.6909130859375,-0.6073527932167053,0.38499781489372253,1.9040669202804565
1761487533122738700,7.70773876953125,-1.098183035850525,0.4303545653820038,0.5844452977180481
1761487533139562500,7.7245625,-1.226922869682312,0.6753115057945251,-0.580016553401947
1761487533156383000,7.741383056640625,-1.0393872261047363,0.5673410892486572,-1.228297233581543
1761487533173210000,7.758210205078125,-0.6940956115722656,-0.14340060949325562,-1.2956452369689941
1761487533190023400,7.7750234375,-0.1742493063211441,-1.1032226085662842,-0.8570439219474792
1761487533206859800,7.79185986328125,0.3706424832344055,-1.8765780925750732,-0.23884831368923187
1761487533223645000,7.80864501953125,0.7622070908546448,-2.193922519683838,0.1368338167667389
1761487533240494000,7.825494140625,0.9219483733177185,-1.979050636291504,-0.006261368747800589
1761487533257319400,7.8423193359375,0.7898487448692322,-1.4147639274597168,-0.7809911966323853
1761487533274143700,7.859143798828125,0.2893974184989929,-1.1589640378952026,-1.8507689237594604
1761487533290968000,7.875968017578125,-0.3572034537792206,-1.1485793590545654,-2.5247061252593994
1761487533307791400,7.892791259765625,-0.6354525685310364,-1.2829697132110596,-2.9823968410491943
1761487533324633900,7.9096337890625,-0.327729195356369,-1.338405728340149,-3.2314772605895996
1761487533341448400,7.926448486328125,-0.07941248267889023,-0.8355109095573425,-3.1135802268981934
1761487533358285300,7.943285400390625,-0.2767219543457031,-0.32589662075042725,-2.5355489253997803
1761487533375078400,7.960078369140625,-0.3478877544403076,-0.25671613216400146,-2.2270619869232178
1761487533391929000,7.97692919921875,0.19257527589797974,-0.27870726585388184,-2.03540301322937
1761487533408752600,7.993752685546875,0.7890852093696594,0.6435465216636658,-0.9631817936897278
1761487533425559000,8.01055908203125,1.0674870014190674,1.4798210859298706,0.41141775250434875
1761487533442386000,8.027385986328126,1.2264647483825684,2.2844831943511963,1.408349871635437
1761487533459189200,8.044189208984376,1.3002266883850098,2.5280659198760986,1.5694655179977417
1761487533476035800,8.061035888671874,1.34283447265625,1.9126191139221191,1.0268645286560059
1761487533492860000,8.07785986328125,1.3284791707992554,1.0225883722305298,0.5740606188774109
1761487533509683500,8.094683349609374,1.2680035829544067,0.6377432942390442,0.6803511381149292
1761487533526509600,8.111509521484376,1.2218831777572632,0.9367618560791016,1.1160508394241333
1761487533543347000,8.128346923828126,1.0702359676361084,1.497688889503479,1.712560772895813
1761487533560171300,8.145171142578125,0.8988882303237915,1.7605136632919312,2.395355224609375
1761487533576994300,8.161994384765626,1.0033462047576904,1.4161384105682373,2.722168207168579
1761487533593820000,8.17881982421875,1.1994339227676392,0.5942191481590271,2.6219863891601562
1761487533610649300,8.1956494140625,1.2522737979888916,-0.3813326358795166,2.2177462577819824
1761487533627468800,8.21246875,1.1424707174301147,-0.5677992701530457,1.7356208562850952
1761487533644291600,8.22929150390625,0.8689557909965515,-0.22586742043495178,1.1030699014663696
1761487533661117200,8.2461171875,0.49495357275009155,0.0682641938328743,0.34406983852386475
1761487533677966600,8.262966552734374,0.18677204847335815,-0.1598939746618271,-0.3700316250324249
1761487533694766000,8.27976611328125,0.027488935738801956,-0.5302310585975647,-0.879187822341919
1761487533711569200,8.296569091796876,-0.01542434748262167,-0.6495024561882019,-1.1840095520019531
1761487533728401000,8.31340087890625,0.055283304303884506,-0.5919284224510193,-1.3687963485717773
1761487533745225200,8.33022509765625,0.26679539680480957,-0.5096143484115601,-1.4912748336791992
1761487533762049800,8.3470498046875,0.5821545720100403,-0.48838675022125244,-1.5897767543792725
1761487533778872800,8.363872802734376,0.8384125232696533,-0.560468852519989,-1.649488925933838
1761487533795698200,8.3806982421875,0.9361509680747986,-0.645684540271759,-1.706910252571106
1761487533812521700,8.397521728515626,0.8222246170043945,-0.6203336715698242,-1.7902933359146118
1761487533829356500,8.4143564453125,0.5729916095733643,-0.44486260414123535,-1.9187277555465698
1761487533846155300,8.4311552734375,0.3877467215061188,-0.1085812970995903,-2.1012237071990967
1761487533863282400,8.448282470703125,0.3237585723400116,0.566730260848999,-2.361604928970337
1761487533879813400,8.4648134765625,0.2145664244890213,0.902247965335846,-2.45674729347229
1761487533896632600,8.481632568359375,-0.05161811411380768,0.598647952079773,-2.347707748413086
1761487533913469000,8.498468994140625,-0.2629774808883667,0.13316862285137177,-2.085341215133667
1761487533930292000,8.5152919921875,-0.17241671681404114,0.6484334468841553,-2.121535062789917
1761487533947117300,8.532117431640625,-0.07269296050071716,1.1452195644378662,-2.1733057498931885
1761487533963940600,8.548940673828126,-0.4407392740249634,3.071125030517578,-0.8200865983963013
1761487533980765200,8.56576513671875,-0.9770789742469788,4.539645195007324,0.9801332950592041
1761487533997589200,8.58258935546875,-0.9443976879119873,5.015050888061523,1.6471980810165405
1761487534014414800,8.599414794921875,-0.712574303150177,4.533078193664551,0.9828822016716003
1761487534031254800,8.6162548828125,-0.43997567892074585,2.9472720623016357,0.22678372263908386
1761487534048070700,8.633070556640625,0.3182607889175415,1.3063353300094604,0.8526151776313782
1761487534064901600,8.649901611328126,1.1640037298202515,1.5958853960037231,2.9720120429992676
1761487534081726500,8.6667265625,2.213623046875,1.8069393634796143,4.389524936676025
1761487534098552800,8.683552734375,2.718655824661255,1.638493299484253,4.170224189758301
1761487534115369500,8.700369384765626,2.379014730453491,1.13926362991333,3.3883168697357178
1761487534132185300,8.717185302734375,2.1426098346710205,0.5322163701057434,2.710409164428711
1761487534148988000,8.73398779296875,1.887420892715454,0.14767667651176453,2.4129176139831543
1761487534165846800,8.7508466796875,1.6421585083007812,0.06169738993048668,2.183385133743286
1761487534182666500,8.76766650390625,1.468061923980713,0.1846340149641037,2.04013729095459
1761487534199499300,8.784499267578125,0.997848391532898,0.42409318685531616,2.0560197830200195
1761487534216303400,8.801303466796876,0.3747658133506775,0.5508477091789246,2.1201605796813965
1761487534233130200,8.818130126953125,0.13744467496871948,0.4810563921928406,2.355648994445801
1761487534249954600,8.83495458984375,0.15195272862911224,-0.07284568250179291,2.6193902492523193
1761487534266779000,8.85177880859375,0.2356412708759308,-1.0749701261520386,2.6532931327819824
1761487534283591200,8.868591064453126,0.1563815027475357,-2.6450464725494385,2.4888176918029785
1761487534300427500,8.885427490234376,-0.3321579694747925,-3.456428289413452,2.520888090133667
1761487534317265700,8.902265625,-0.7739662528038025,-3.9771909713745117,2.453540325164795
1761487534334082600,8.91908251953125,-0.8342891931533813,-4.176332950592041,1.9828685522079468
1761487534350915800,8.935915771484375,-0.6569855809211731,-3.6726746559143066,1.2728904485702515
1761487534367739000,8.95273876953125,-0.46105054020881653,-2.68230938911438,0.5267185568809509
1761487534384562700,8.969562744140624,-0.4992296099662781,-1.6294829845428467,0.03145955875515938
1761487534401383700,8.9863837890625,-0.8161159753799438,-0.7762570381164551,-0.2223549485206604
1761487534418212900,9.003212890625,-0.9851729273796082,-0.30833423137664795,-0.49464812874794006
1761487534435022800,9.02002294921875,-1.09024178981781,0.3462078869342804,-0.6776022911071777
1761487534451846400,9.036846435546876,-1.0671815872192383,1.1942415237426758,-0.6189591884613037
1761487534468670700,9.053670654296875,-0.7319692969322205,1.3826935291290283,-0.456163614988327
1761487534485494300,9.070494384765626,-0.5293147563934326,0.9819658994674683,-0.4004221558570862
1761487534502321700,9.08732177734375,-0.6163630485534668,0.44577890634536743,-0.5004513263702393
1761487534519147300,9.104147216796875,-0.7509061098098755,0.3234531581401825,-0.684474527835846
1761487534536003000,9.121003173828125,-0.6046038866043091,0.651945948600769,-0.8727737069129944
1761487534552808000,9.137807861328126,-0.20723603665828705,1.3619240522384644,-1.0517572164535522
1761487534569613800,9.15461376953125,0.0503963828086853,2.33671236038208,-1.0894781351089478
1761487534586454500,9.17145458984375,0.15057829022407532,2.5060746669769287,-0.8349000811576843
1761487534603262500,9.188262451171875,0.5022839307785034,1.1201741695404053,-0.20784689486026764
1761487534620104400,9.2051044921875,1.112691044807434,0.04734205827116966,0.4098905920982361
1761487534636928500,9.221928466796875,1.5349516868591309,0.2955060601234436,0.5088507533073425
1761487534653715700,9.2387158203125,1.6029103994369507,1.2264647483825684,-0.21914790570735931
1761487534670583300,9.255583251953125,1.5804611444473267,1.6853772401809692,-1.5722143650054932
1761487534687401000,9.27240087890625,1.7753270864486694,0.513737678527832,-2.6027441024780273
1761487534704210000,9.2892099609375,1.9570595026016235,-0.5093088746070862,-3.03737473487854
1761487534721036000,9.3060361328125,1.843591332435608,-0.18478673696517944,-3.0856330394744873
1761487534737855700,9.322855712890625,1.0404561758041382,-0.37980547547340393,-3.4206926822662354
1761487534754690000,9.33968994140625,-0.3274237811565399,0.7451028823852539,-3.427717685699463
1761487534771509000,9.356509033203125,-0.7096726894378662,2.1737639904022217,-2.903442621231079
1761487534788333300,9.373333251953126,-0.013897184282541275,1.8860464096069336,-2.7644705772399902
1761487534805140000,9.390139892578125,0.9810495972633362,0.027183502912521362,-2.9665143489837646
1761487534821996500,9.40699658203125,1.7270687818527222,-1.7345519065856934,-2.7391197681427
1761487534838811600,9.423811767578124,2.141388177871704,-1.916131615638733,-1.798081874847412
1761487534855652900,9.44065283203125,2.316706418991089,-0.6221662759780884,-0.470671683549881
1761487534872454000,9.457453857421875,2.2203423976898193,0.1088867336511612,0.42959097027778625
1761487534889260800,9.4742607421875,1.5444200038909912,-0.5216789245605469,0.6183483600616455
1761487534906107000,9.49110693359375,0.6328563690185547,-1.3439035415649414,0.6707300543785095
1761487534922930700,9.5079306640625,0.15851953625679016,-1.9559905529022217,0.5798638463020325
1761487534939755800,9.524755859375,-0.05925392732024193,-1.6074918508529663,0.22052235901355743
1761487534956577500,9.54157763671875,-0.023518312722444534,-0.6417139172554016,-0.15271630883216858
1761487534973401000,9.558401123046876,-0.006872233934700489,0.6209444999694824,-0.29397889971733093
1761487534990222000,9.57522216796875,-0.10506882518529892,1.1717922687530518,-0.5047274231910706
1761487535007053000,9.592052978515625,-0.36651915311813354,0.9766207933425903,-0.5836817622184753
1761487535023880000,9.6088798828125,-0.3831652104854584,1.4285084009170532,-0.5264131426811218
1761487535040707800,9.625707763671874,-0.01710422709584236,2.2314908504486084,-0.5290092825889587
1761487535057540600,9.64254052734375,-0.01817324012517929,1.9436204433441162,0.21991148591041565
1761487535074360600,9.659360595703125,0.2877175211906433,0.27458393573760986,1.0380127429962158
1761487535091186200,9.676186279296875,1.1259773969650269,-0.07299839705228806,1.2754865884780884
1761487535108007000,9.6930068359375,1.3764320611953735,0.33017265796661377,0.685390830039978
