time,seconds_elapsed,z,y,x
1761487616049056500,0.187056396484375,0.4046982228755951,1.1018482446670532,0.4268420934677124
1761487616066122200,0.204122314453125,0.34926220774650574,0.8208501935005188,0.37980547547340393
1761487616082938400,0.2209384765625,0.3448334336280823,0.6563746929168701,0.31154128909111023
1761487616099767300,0.237767333984375,0.33536502718925476,0.5438227653503418,0.29474249482154846
1761487616116601600,0.2546015625,0.27718010544776917,0.4534147381782532,0.3017674386501312
1761487616133416700,0.271416748046875,0.242513507604599,0.4726569950580597,0.3065016269683838
1761487616150235600,0.288235595703125,0.23579397797584534,0.5619960427284241,0.30405816435813904
1761487616167063600,0.3050634765625,0.20662516355514526,0.546571671962738,0.26221391558647156
1761487616183891000,0.321890869140625,0.19547687470912933,0.41493022441864014,0.21670444309711456
1761487616200710700,0.338710693359375,0.1999056488275528,0.20784689486026764,0.1440114825963974
1761487616217535500,0.355535400390625,0.2295326143503189,0.04260785132646561,0.05742133408784866
1761487616234358800,0.37235888671875,0.19944749772548676,0.01160643994808197,-0.06490442901849747
1761487616251184000,0.38918408203125,0.18448130786418915,-0.11133018881082535,-0.1563815027475357
1761487616267999000,0.4059990234375,0.043218716979026794,-0.1007927656173706,-0.12538009881973267
1761487616284831700,0.422831787109375,-0.17989981174468994,-0.09498954564332962,-0.04948008432984352
1761487616301655600,0.439655517578125,-0.2762638032436371,-0.08720101416110992,-0.09636399149894714
1761487616318481000,0.45648095703125,-0.17608191072940826,-0.38728857040405273,-0.38927388191223145
1761487616335287300,0.473287353515625,0.02580905705690384,-0.5703954100608826,-0.6568328738212585
1761487616352116000,0.490115966796875,0.10919216275215149,-0.3550654351711273,-0.8106181621551514
1761487616368951300,0.506951416015625,0.11148291081190109,0.13836097717285156,-0.7629706859588623
1761487616385777200,0.523777099609375,0.0936150997877121,0.43417248129844666,-0.6256787180900574
1761487616402595600,0.540595703125,0.11133018881082535,0.517250120639801,-0.48640143871307373
1761487616419428600,0.5574287109375,0.13240504264831543,0.3397938013076782,-0.35552358627319336
1761487616436248000,0.574248046875,0.20891591906547546,-0.02535090781748295,-0.17928895354270935
1761487616461484000,0.599484130859375,0.3378084897994995,-0.4720461070537567,-0.16065755486488342
1761487616478311200,0.616311279296875,0.3271183371543884,-0.18387043476104736,0.038637228310108185
1761487616495115300,0.633115234375,0.2765692472457886,0.24373523890972137,0.19288070499897003
1761487616511943000,0.64994287109375,0.33246341347694397,0.7987062931060791,0.2483167201280594
1761487616528755000,0.6667548828125,0.31031954288482666,1.1749993562698364,0.20799961686134338
1761487616545584600,0.683584716796875,0.2739730477333069,0.9633345007896423,0.008704829961061478
1761487616562418200,0.700418212890625,0.1814269721508026,0.5552765130996704,-0.23151792585849762
1761487616579225900,0.717225830078125,0.22892175614833832,0.2747366428375244,-0.39064833521842957
1761487616596061700,0.734061767578125,0.36911532282829285,0.4859432876110077,-0.2880229651927948
1761487616612888600,0.750888671875,0.4714352488517761,1.0607675313949585,-0.049785517156124115
1761487616629711400,0.76771142578125,0.6102544069290161,1.1255191564559937,0.25763240456581116
1761487616646524200,0.784524169921875,0.7707592248916626,0.8756753206253052,0.4970915913581848
1761487616663351000,0.80135107421875,1.0152580738067627,0.3344487249851227,0.5595525503158569
1761487616680197000,0.818197021484375,1.4995214939117432,-0.06765332818031311,0.5195409059524536
1761487616697021200,0.835021240234375,1.8950567245483398,-0.37262779474258423,0.5983424782752991
1761487616713818000,0.851818115234375,1.9211711883544922,-0.3828597962856293,0.9269880056381226
1761487616730673700,0.868673583984375,1.4378241300582886,0.19104810059070587,0.9066767692565918
1761487616747494000,0.885493896484375,0.6116288304328918,0.8181012868881226,0.4758640229701996
1761487616764301000,0.902301025390625,0.2217440903186798,0.1713477075099945,-0.30604347586631775
1761487616781138400,0.919138427734375,0.6582072973251343,-1.257924199104309,-0.9579893946647644
1761487616797970000,0.935969970703125,0.7099781036376953,-2.3458752632141113,-0.6305656433105469
1761487616814790100,0.9527900390625,0.050854530185461044,-1.8388570547103882,0.08857546001672745
1761487616831614000,0.969614013671875,-0.9230173826217651,-0.3199406862258911,0.36132678389549255
1761487616848435500,0.986435546875,-1.6612480878829956,1.1943942308425903,0.6252205967903137
1761487616865258200,1.00325830078125,-1.9617937803268433,1.6360498666763306,1.2533427476882935
1761487616882090500,1.020090576171875,-1.657124638557434,1.1273517608642578,1.4465289115905762
1761487616898896400,1.036896484375,-1.5619823932647705,-0.27320948243141174,1.7982345819473267
1761487616915734500,1.053734619140625,-1.931708574295044,-1.5972598791122437,2.5922067165374756
1761487616932535000,1.07053515625,-2.0624337196350098,-1.8909333944320679,2.775466203689575
1761487616949389800,1.087389892578125,-1.8232800960540771,-1.4321736097335815,2.8373162746429443
1761487616966207200,1.104207275390625,-1.665065884590149,-0.3608686327934265,3.517056703567505
1761487616983012900,1.121012939453125,-1.6907222270965576,-0.02168571576476097,4.86309814453125
1761487616999842000,1.137842041015625,-1.9170478582382202,-0.7003570199012756,5.978079795837402
1761487617016665000,1.1546650390625,-2.1986567974090576,-1.2857186794281006,5.737704753875732
1761487617033486600,1.171486572265625,-2.3020455837249756,-1.0276280641555786,4.142735481262207
1761487617050316300,1.18831640625,-2.3046419620513916,-0.3706424832344055,2.3996315002441406
1761487617067137500,1.205137451171875,-2.551584243774414,-0.029474247246980667,1.6067283153533936
1761487617083961600,1.221961669921875,-2.88923978805542,0.19349156320095062,1.8741345405578613
1761487617100772600,1.238772705078125,-2.8593075275421143,0.5364924073219299,2.585487127304077
1761487617117609700,1.255609619140625,-2.383596181869507,0.4317290186882019,2.9431488513946533
1761487617134433800,1.272433837890625,-1.471268892288208,-0.2509129047393799,2.507296323776245
1761487617151265800,1.289265869140625,-0.17852537333965302,-1.0642799139022827,1.8107572793960571
1761487617168095500,1.306095458984375,1.034194827079773,-1.5373951196670532,1.4900530576705933
1761487617184915500,1.32291552734375,1.9602665901184082,-1.886810064315796,1.5628987550735474
1761487617201747700,1.339747802734375,2.444988250732422,-1.873218297958374,1.775479793548584
1761487617218568200,1.356568115234375,2.822044610977173,-1.612226128578186,1.9459112882614136
1761487617235392000,1.37339208984375,2.9964468479156494,-1.2096658945083618,1.4245377779006958
1761487617252211700,1.390211669921875,3.2846224308013916,-1.0858129262924194,0.3423899710178375
1761487617269040400,1.407040283203125,3.3368513584136963,-1.4048373699188232,-0.68325275182724
1761487617285864400,1.423864501953125,3.149010419845581,-1.4833335876464844,-1.5427402257919312
1761487617302688500,1.4406884765625,3.084411382675171,-0.9418014883995056,-2.456136465072632
1761487617319512300,1.45751220703125,3.0169107913970947,-0.39843684434890747,-3.506213903427124
1761487617336336600,1.474336669921875,2.9999592304229736,0.42928555607795715,-4.372420787811279
1761487617353160700,1.49116064453125,3.006678819656372,1.138958215713501,-4.842939853668213
1761487617369984500,1.507984619140625,2.8202121257781982,1.3240504264831543,-4.892114162445068
1761487617386808800,1.524808837890625,2.269364356994629,0.88987797498703,-4.740314483642578
1761487617403629000,1.541629150390625,1.7591391801834106,0.23594669997692108,-4.664872646331787
1761487617420444200,1.558444091796875,1.5780175924301147,-0.44974952936172485,-5.003597259521484
1761487617437307600,1.5753076171875,1.4517213106155396,0.0010690141934901476,-5.077206611633301
1761487617454101000,1.59210107421875,1.095739483833313,1.3306171894073486,-3.9208385944366455
1761487617470931700,1.608931640625,-0.43707409501075745,3.4907894134521484,-1.3565789461135864
1761487617487739400,1.625739501953125,-0.9755517840385437,3.5886805057525635,0.3927863538265228
1761487617504563500,1.6425634765625,-0.4593706727027893,1.7719674110412598,0.7334964275360107
1761487617521397500,1.6593974609375,-0.9729556441307068,0.008399397134780884,1.6446019411087036
1761487617538207500,1.67620751953125,-2.5660922527313232,1.3058772087097168,2.626873254776001
1761487617555040300,1.693040283203125,-2.6928467750549316,4.579198360443115,1.8031214475631714
1761487617571860000,1.70985986328125,-1.6232216358184814,7.047705173492432,1.5726726055145264
1761487617588680700,1.7266806640625,-0.19898934662342072,6.285192489624023,3.732081174850464
1761487617605511200,1.74351123046875,1.4752395153045654,3.6028831005096436,6.323982238769531
1761487617622332200,1.760332275390625,2.601369619369507,2.0564777851104736,8.501564025878906
1761487617639159800,1.777159912109375,2.900999069213867,2.7901270389556885,9.539423942565918
1761487617655974700,1.793974609375,2.869539499282837,4.140291690826416,9.310808181762695
1761487617672822000,1.810822021484375,3.224910259246826,4.425260543823242,8.823490142822266
1761487617689642200,1.827642333984375,3.534160852432251,3.455512046813965,8.736900329589844
1761487617706449700,1.84444970703125,3.4943020343780518,1.5818355083465576,8.372672080993652
1761487617723286500,1.86128662109375,2.8877127170562744,-0.9934195876121521,7.111693382263184
1761487617740118500,1.878118408203125,1.7751743793487549,-3.0602822303771973,5.589569568634033
1761487617756938800,1.894938720703125,0.9718865752220154,-3.559969902038574,4.096920490264893
1761487617773758500,1.911758544921875,0.5729916095733643,-2.1849122047424316,2.867248773574829
1761487617790590700,1.9285908203125,0.4996877610683441,-0.23335053026676178,2.294257164001465
1761487617807411000,1.945410888671875,0.8767443299293518,0.8718574047088623,1.9197967052459717
1761487617824235300,1.9622353515625,1.2246321439743042,1.0387763977050781,1.379333734512329
1761487617841059000,1.97905908203125,1.059393048286438,-0.11759155988693237,0.6441574096679688
1761487617857883100,1.995883056640625,0.735634446144104,-1.182176947593689,-0.2272418737411499
1761487617874694100,2.012694091796875,1.056491494178772,-1.4204144477844238,-1.1691961288452148
1761487617891523300,2.0295234375,1.7675385475158691,-1.3845261335372925,-1.6798794269561768
1761487617908353300,2.046353271484375,2.3747386932373047,-1.1705704927444458,-1.4621059894561768
1761487617925185500,2.063185546875,2.8432722091674805,-0.7502952218055725,-0.935081958770752
1761487617941999000,2.0799990234375,3.2000176906585693,-0.45952337980270386,-0.6061310172080994
1761487617958831600,2.09683154296875,3.4686455726623535,-0.5155702829360962,-0.5155702829360962
1761487617975614500,2.113614501953125,3.70489764213562,-0.5761986374855042,-0.5125159621238708
1761487617992459800,2.130459716796875,3.8424952030181885,-0.5535966157913208,-0.4386012554168701
1761487618009288200,2.1472880859375,3.8763980865478516,-0.2021963894367218,-0.40591996908187866
1761487618026110200,2.164110107421875,3.855323314666748,0.49495357275009155,-0.5997169613838196
1761487618042934300,2.180934326171875,3.835928201675415,1.1242974996566772,-0.9202684760093689
1761487618059748400,2.197748291015625,3.7566685676574707,1.6001615524291992,-1.243721604347229
1761487618076582000,2.214581787109375,3.464064121246338,1.6814066171646118,-1.4895949363708496
1761487618093407000,2.231406982421875,3.109456777572632,1.6557502746582031,-1.6963727474212646
1761487618110230500,2.24823046875,2.8823676109313965,1.8283196687698364,-2.1734585762023926
1761487618127058200,2.26505810546875,3.012329339981079,2.2371411323547363,-2.6366472244262695
1761487618143892200,2.281892333984375,3.290731191635132,2.4251351356506348,-2.4572055339813232
1761487618160716300,2.29871630859375,3.30554461479187,2.4831671714782715,-1.452942967414856
1761487618177540600,2.31554052734375,3.1670308113098145,2.4051291942596436,-0.35842517018318176
1761487618194367000,2.332366943359375,3.0586023330688477,1.697136402130127,-0.059406645596027374
1761487618211188500,2.3491884765625,2.972470283508301,0.5302310585975647,-0.0933096632361412
1761487618228012800,2.3660126953125,2.1502456665039062,0.997848391532898,0.6491970419883728
1761487618244834000,2.382833984375,0.9532552361488342,4.22367525100708,1.4272866249084473
1761487618261657600,2.39965771484375,0.6388123035430908,5.959143161773682,1.8686367273330688
1761487618278485000,2.416485107421875,0.9854783415794373,2.875342607498169,3.975358247756958
1761487618295309600,2.4333095703125,0.04642575979232788,1.1455250978469849,7.5273871421813965
1761487618312133000,2.450133056640625,-1.3214542865753174,3.597843647003174,8.07731819152832
1761487618328957400,2.46695751953125,-1.679421305656433,7.4942474365234375,5.8331522941589355
1761487618345760800,2.4837607421875,-0.8431467413902283,8.971625328063965,5.521916389465332
1761487618362584600,2.50058447265625,1.1977540254592896,7.222870826721191,7.154453754425049
1761487618379430000,2.517429931640625,2.6865854263305664,5.081635475158691,8.720865249633789
1761487618396253400,2.53425341796875,2.4136812686920166,3.7534615993499756,8.334797859191895
1761487618413077500,2.551077392578125,1.4805846214294434,3.8182132244110107,6.208376407623291
1761487618429901800,2.56790185546875,1.3103059530258179,4.9955034255981445,4.002236366271973
1761487618446718700,2.58471875,1.5596916675567627,5.837275505065918,2.4744625091552734
1761487618463539500,2.60153955078125,1.8264870643615723,5.069876194000244,1.7478381395339966
1761487618480360200,2.618360107421875,1.8348864316940308,2.4888176918029785,1.750434398651123
1761487618497184300,2.635184326171875,1.4269812107086182,-0.08918632566928864,2.2953262329101562
1761487618514003200,2.652003173828125,1.1154398918151855,-1.0891727209091187,2.766761302947998
1761487618530834700,2.668834716796875,0.922711968421936,0.11652254313230515,2.9211575984954834
1761487618547639800,2.685639892578125,0.761443555355072,2.110692024230957,2.8064677715301514
1761487618564480800,2.702480712890625,0.7565566301345825,2.919935941696167,2.390162944793701
1761487618581304800,2.719304931640625,0.6924157738685608,2.0341813564300537,1.5488488674163818
1761487618598129000,2.73612890625,0.5338962078094482,0.41004329919815063,0.8301658630371094
1761487618614953500,2.752953369140625,0.42730024456977844,-0.29733866453170776,0.49754974246025085
1761487618631793700,2.769793701171875,0.5690209865570068,-0.10461067408323288,0.2635883390903473
1761487618648615200,2.786615234375,0.7571674585342407,0.28038713335990906,-0.23319780826568604
1761487618665439000,2.80343896484375,0.8888089060783386,0.14340060949325562,-0.9340129494667053
1761487618682252300,2.820252197265625,1.0601565837860107,-0.4964807331562042,-1.3602441549301147
1761487618699077400,2.837077392578125,1.432020902633667,-1.2767083644866943,-1.409724235534668
1761487618715915300,2.853915283203125,2.0021109580993652,-1.9381227493286133,-1.337336778640747
1761487618732735200,2.8707353515625,2.62412428855896,-2.4573581218719482,-1.3716979026794434
1761487618749559300,2.887559326171875,2.9714012145996094,-2.5636487007141113,-1.3625348806381226
1761487618766386700,2.90438671875,3.009427547454834,-2.3994786739349365,-1.2577714920043945
1761487618783189000,2.92118896484375,3.023630142211914,-1.9935587644577026,-1.1937834024429321
1761487618800007700,2.938007568359375,2.9657506942749023,-1.644449234008789,-1.275639295578003
1761487618816857900,2.95485791015625,2.764012575149536,-1.3608551025390625,-1.4530956745147705
1761487618833677000,2.971677001953125,2.4685065746307373,-0.998153805732727,-1.6688838005065918
1761487618850487300,2.9884873046875,2.22171688079834,-0.1508837193250656,-2.0612120628356934
1761487618867324000,3.005323974609375,2.02929425239563,1.0370965003967285,-2.7353017330169678
1761487618884160000,3.022159912109375,1.8916969299316406,1.7339409589767456,-3.4600934982299805
1761487618900949000,3.038948974609375,2.0835087299346924,1.5054774284362793,-3.4914002418518066
1761487618917770500,3.0557705078125,1.597107172012329,1.7812830209732056,-3.3906075954437256
1761487618934624300,3.072624267578125,0.8617781400680542,1.6267341375350952,-3.032335042953491
1761487618951431400,3.089431396484375,1.100015640258789,1.9938641786575317,-2.7656924724578857
1761487618968258600,3.106258544921875,1.8361082077026367,3.7704129219055176,-2.4906504154205322
1761487618985082600,3.12308251953125,2.2736403942108154,4.913036346435547,-1.6003142595291138
1761487619001907000,3.139906982421875,1.6284140348434448,3.9634463787078857,0.07696902006864548
1761487619018730800,3.156730712890625,1.6672040224075317,1.5628987550735474,1.3904820680618286
1761487619035554800,3.173554931640625,2.5842654705047607,0.37980547547340393,1.832595705986023
1761487619052379000,3.19037890625,3.6158640384674072,1.2586878538131714,2.465299367904663
1761487619069203000,3.207202880859375,4.065918922424316,2.5254695415496826,3.774688959121704
1761487619086027300,3.22402734375,4.544074058532715,3.818976879119873,4.664566993713379
1761487619102855400,3.24085546875,5.61721134185791,4.359439849853516,5.308724403381348
1761487619119686000,3.257685791015625,6.291148662567139,4.047745704650879,6.034737586975098
1761487619136513000,3.274512939453125,6.150343894958496,3.17161226272583,6.198144435882568
1761487619153329400,3.291329345703125,5.667302131652832,2.598926067352295,5.7129645347595215
1761487619170169300,3.30816943359375,4.919145107269287,2.486985206604004,4.981911659240723
1761487619186985700,3.32498583984375,3.8657078742980957,2.2655465602874756,3.9048032760620117
1761487619203809500,3.3418095703125,2.7427849769592285,1.5318973064422607,2.376113176345825
1761487619220633600,3.358633544921875,1.6369661092758179,0.26572638750076294,1.3504703044891357
1761487619237453300,3.375453369140625,0.7672467231750488,-0.7422012686729431,1.2695306539535522
1761487619254282800,3.39228271484375,0.3556762933731079,-0.35842517018318176,1.5308283567428589
1761487619271071000,3.409071044921875,0.4456261992454529,1.476919412612915,1.8203784227371216
1761487619287913700,3.425913818359375,0.5818491578102112,3.238654851913452,2.051743745803833
1761487619304737500,3.442737548828125,0.6160575747489929,3.7478110790252686,2.0952677726745605
1761487619321565400,3.4595654296875,0.5190827250480652,3.084105968475342,1.8429805040359497
1761487619338388200,3.47638818359375,0.3039054572582245,1.958128571510315,1.3959797620773315
1761487619355212300,3.49321240234375,0.26053401827812195,1.3878858089447021,0.9711230397224426
1761487619372036400,3.510036376953125,0.4990769028663635,1.7371480464935303,0.5326744914054871
1761487619388860400,3.5268603515625,0.8126034736633301,2.2983803749084473,0.22678372263908386
1761487619405684700,3.543684814453125,0.9242390990257263,2.3713788986206055,0.18081611394882202
1761487619422545400,3.56054541015625,0.8155050873756409,1.9477438926696777,0.16982053220272064
1761487619439342800,3.5773427734375,0.7286095023155212,1.1276572942733765,0.11392636597156525
1761487619456157000,3.594156982421875,0.9523389339447021,0.6288857460021973,-0.04886921867728233
1761487619472981000,3.61098095703125,1.522887110710144,0.5539020895957947,-0.34284812211990356
1761487619489805000,3.62780517578125,2.0581576824188232,0.575893223285675,-0.5012149214744568
1761487619506629000,3.644629150390625,2.300060272216797,0.16630806028842926,-0.42577308416366577
1761487619523453200,3.661453125,2.3773348331451416,-0.5076290369033813,-0.22815817594528198
1761487619540264000,3.678263916015625,2.4052820205688477,-1.0167851448059082,0.05314527451992035
1761487619557101300,3.695101318359375,2.5812110900878906,-0.8999572396278381,-0.05513058975338936
1761487619573925400,3.71192529296875,2.9020681381225586,-0.36102136969566345,-0.7244861721992493
1761487619590754800,3.7287548828125,2.9542970657348633,-0.1469130963087082,-1.4162911176681519
1761487619607585000,3.7455849609375,2.6503915786743164,-0.42409318685531616,-1.721112847328186
1761487619624429800,3.762429931640625,2.205376148223877,-0.43799036741256714,-1.996002197265625
1761487619641233000,3.77923291015625,1.8640552759170532,-0.3452915847301483,-2.464993953704834
1761487619658056400,3.796056396484375,1.8889480829238892,-0.4450153410434723,-3.1636710166931152
1761487619674889000,3.812888916015625,2.1821634769439697,-0.7506006956100464,-3.590054988861084
1761487619691718000,3.8297177734375,2.0341813564300537,-0.9980010986328125,-3.1670308113098145
1761487619708531700,3.84653173828125,1.3796391487121582,-0.5934556126594543,-2.529134750366211
1761487619725355800,3.863355712890625,1.287245750427246,-1.8322902917861938,-2.2548563480377197
1761487619742176300,3.88017626953125,1.4396566152572632,-2.8608345985412598,-1.5320500135421753
1761487619759004000,3.89700390625,1.2748757600784302,-2.7353017330169678,0.16722436249256134
1761487619775832800,3.913832763671875,0.6670648455619812,-0.2499966025352478,2.7539331912994385
1761487619792652000,3.930652099609375,0.4538728892803192,3.1060969829559326,4.465883255004883
1761487619809472300,3.94747216796875,0.969443142414093,4.986645698547363,5.415931224822998
1761487619826301000,3.964301025390625,1.5644259452819824,4.225965976715088,6.596580982208252
1761487619843128300,3.98112841796875,1.4824172258377075,2.473088026046753,7.387193202972412
1761487619859948800,3.99794873046875,1.061989188194275,1.6401731967926025,7.404144763946533
1761487619876765700,4.014765625,0.5233588218688965,2.2270619869232178,6.744563102722168
1761487619893596700,4.0315966796875,-0.014202617108821869,2.9164233207702637,5.84109354019165
1761487619910421000,4.0484208984375,-0.25961771607398987,2.674215316772461,5.213123798370361
1761487619927244800,4.065244873046875,-0.21410827338695526,1.6018413305282593,4.903568267822266
1761487619944051700,4.0820517578125,-0.014355333521962166,0.2356412708759308,4.792543411254883
1761487619960879000,4.098879150390625,0.4129449129104614,-0.5954409241676331,5.046968460083008
1761487619977703400,4.115703369140625,0.9068294763565063,-0.5364924073219299,5.424178123474121
1761487619994527500,4.132527587890625,1.0248792171478271,-0.3773620128631592,5.240307331085205
1761487620011351300,4.149351318359375,0.8345946669578552,-0.3781255781650543,4.116621017456055
1761487620028175600,4.166175537109375,0.5392413139343262,-0.30222558975219727,2.353205680847168
1761487620044999700,4.182999755859375,0.30512720346450806,0.09743300825357437,0.6369797587394714
1761487620061823700,4.19982373046875,0.21303924918174744,0.8023715019226074,-0.675616979598999
1761487620078651100,4.216651123046875,0.3982841372489929,1.4648548364639282,-1.7159204483032227
1761487620095475000,4.233474853515625,0.9761626720428467,1.3055717945098877,-2.411848783493042
1761487620112309800,4.250309814453125,1.7715091705322266,0.3804163336753845,-2.450485944747925
1761487620129132800,4.2671328125,2.4278838634490967,-0.5497786998748779,-2.0001256465911865
1761487620145941500,4.28394140625,2.8243355751037598,-0.9066767692565918,-1.6018413305282593
1761487620162765000,4.30076513671875,2.9852983951568604,-0.8926268219947815,-1.6378824710845947
1761487620179595500,4.317595458984375,3.1508429050445557,-0.619111955165863,-2.037999153137207
1761487620196416500,4.33441650390625,3.2870659828186035,0.019394971430301666,-2.456594467163086
1761487620213240300,4.351240234375,3.1957414150238037,0.7006624341011047,-2.6922359466552734
1761487620230064600,4.368064697265625,2.9779679775238037,0.9404270648956299,-2.8574748039245605
1761487620246905600,4.384905517578125,2.901151657104492,0.555429220199585,-3.0582969188690186
1761487620263726800,4.401726806640625,2.903136968612671,-0.007177666760981083,-3.335476875305176
1761487620280550400,4.41855029296875,2.964834451675415,-0.13576480746269226,-3.626859664916992
1761487620297374700,4.435374755859375,3.148552179336548,0.3729332387447357,-3.9794816970825195
1761487620314196200,4.4521962890625,3.3576207160949707,0.7869471311569214,-4.176180362701416
1761487620331025000,4.46902490234375,3.5193474292755127,0.394618958234787,-4.043011665344238
1761487620347847200,4.48584716796875,3.1135802268981934,-0.7017314434051514,-3.2866077423095703
1761487620364636400,4.502636474609375,2.2901337146759033,-0.694248378276825,-2.247373342514038
1761487620381495300,4.519495361328125,2.141388177871704,0.29535335302352905,-2.574186086654663
1761487620398318800,4.53631884765625,2.021658420562744,1.5008958578109741,-3.085327625274658
1761487620415143000,4.553142822265625,0.5543602108955383,2.805093288421631,-2.1293234825134277
1761487620431949800,4.56994970703125,-0.2554943859577179,2.8348729610443115,-0.3295617997646332
1761487620448777700,4.58677783203125,-0.21334469318389893,1.1169670820236206,0.6015495657920837
1761487620465601500,4.6036015625,-0.8575021028518677,0.2477058619260788,1.684613585472107
1761487620482431700,4.620431640625,-1.6314682960510254,1.2394455671310425,3.8369972705841064
1761487620499249700,4.637249755859375,-1.2296717166900635,3.841884136199951,5.212207794189453
1761487620516070400,4.6540703125,-0.28817567229270935,4.585612773895264,6.056270599365234
1761487620532901000,4.670901123046875,0.4583016633987427,3.0757064819335938,7.1281867027282715
1761487620549712400,4.68771240234375,0.8286387324333191,1.5526667833328247,7.793571472167969
1761487620566550500,4.704550537109375,0.8126034736633301,1.4761558771133423,7.462482452392578
1761487620583383000,4.721383056640625,0.6427829265594482,2.6505444049835205,6.517626762390137
1761487620600208400,4.73820849609375,0.5742133259773254,3.171917676925659,5.459760665893555
1761487620617032200,4.7550322265625,0.47510045766830444,1.6300939321517944,4.4762678146362305
1761487620633860400,4.7718603515625,0.43997567892074585,-1.1481212377548218,4.179540157318115
1761487620650675700,4.78867578125,0.7258606553077698,-3.4263432025909424,4.595080852508545
1761487620667504000,4.805504150390625,0.9292787313461304,-3.5654678344726562,5.083162307739258
1761487620684328000,4.822327880859375,0.7603744864463806,-1.6565138101577759,5.3252177238464355
1761487620701144300,4.839144287109375,0.18356500566005707,0.021838432177901268,5.036431312561035
1761487620717980700,4.855980712890625,-0.16142113506793976,1.3284791707992554,3.729332208633423
1761487620734805000,4.872804931640625,-0.18249599635601044,2.0648772716522217,1.60627019405365
1761487620751624400,4.88962451171875,-0.07880161702632904,2.0230329036712646,-0.2961169183254242
1761487620768432000,4.90643212890625,-0.004734205547720194,1.1122329235076904,-1.2299771308898926
1761487620785273000,4.923273193359375,0.1927279829978943,0.10033461451530457,-1.3464996814727783
1761487620802096600,4.9400966796875,0.6377432942390442,-0.45204028487205505,-1.190729022026062
1761487620818920700,4.956920654296875,1.127810001373291,-0.4714352488517761,-1.0983357429504395
1761487620835721700,4.9737216796875,1.3910928964614868,-0.15729780495166779,-1.264796495437622
1761487620852569600,4.990569580078125,1.5031867027282715,0.052381694316864014,-1.5969544649124146
1761487620869393000,5.007392822265625,1.5080735683441162,-0.3326161205768585,-1.811673641204834
1761487620886217000,5.024217041015625,1.454164743423462,-1.1105530261993408,-1.962251901626587
1761487620903048200,5.041048095703125,1.4149166345596313,-1.5807665586471558,-2.1476495265960693
1761487620919848700,5.0578486328125,1.451874017715454,-1.310916781425476,-2.4239132404327393
1761487620936675600,5.074675537109375,1.5024230480194092,-0.24174992740154266,-2.5085182189941406
1761487620953500000,5.0915,1.4448490142822266,1.1933252811431885,-2.2704334259033203
1761487620970324000,5.108323974609375,1.2095131874084473,1.6476563215255737,-1.768454909324646
1761487620987147800,5.125147705078125,0.9975429177284241,1.2067643404006958,-1.0868819952011108
1761487621003970300,5.14197021484375,0.8382598161697388,0.44364088773727417,-0.6307183504104614
1761487621020796000,5.1587958984375,0.6933320760726929,-0.1336267739534378,-0.6252205967903137
1761487621037605600,5.175605712890625,0.4778493344783783,-0.3156646192073822,-1.0632109642028809
1761487621054431500,5.192431396484375,0.38469240069389343,-0.12202033400535583,-1.6957619190216064
1761487621071258600,5.209258544921875,0.4812090992927551,0.42730024456977844,-2.2931880950927734
1761487621088079000,5.2260791015625,0.48227810859680176,1.2553280591964722,-2.688417911529541
1761487621104916500,5.24291650390625,0.30604347586631775,1.715767741203308,-2.8457157611846924
1761487621121740500,5.259740478515625,0.09208793938159943,1.9601138830184937,-2.8437304496765137
1761487621138568000,5.27656787109375,0.12919799983501434,1.8840610980987549,-2.8733572959899902
1761487621155398400,5.2933984375,0.31352660059928894,1.7938058376312256,-2.8156306743621826
1761487621172230700,5.310230712890625,-0.6656904220581055,2.4266622066497803,-2.836705446243286
1761487621189050400,5.32705029296875,-1.3987287282943726,2.9494102001190186,-2.7421741485595703
1761487621205858000,5.343858154296875,-1.3671164512634277,1.0583239793777466,-3.015536308288574
1761487621222699000,5.360698974609375,-1.8298468589782715,0.12690725922584534,-2.6175575256347656
1761487621239522600,5.3775224609375,-2.0108156204223633,0.6186537742614746,-2.984076738357544
1761487621256347100,5.39434716796875,-1.8332066535949707,3.3846516609191895,-3.5191946029663086
1761487621273171000,5.4111708984375,-0.8910996913909912,5.772523880004883,-2.1755964756011963
1761487621289995000,5.4279951171875,1.1345294713974,5.231908321380615,0.5051855444908142
1761487621306817800,5.44481787109375,2.540283203125,2.850144624710083,3.0080530643463135
1761487621323624000,5.4616240234375,2.7562239170074463,0.29657506942749023,4.048356533050537
1761487621340454700,5.47845458984375,2.2015583515167236,-0.8382598161697388,3.112969398498535
1761487621357291500,5.49529150390625,1.5022703409194946,-0.25702154636383057,1.4427109956741333
1761487621374115300,5.512115234375,0.9998337030410767,1.1187996864318848,0.3197879493236542
1761487621390939400,5.528939453125,0.9092729091644287,1.7482963800430298,0.20891591906547546
1761487621407743500,5.545743408203125,1.4408783912658691,0.8462010622024536,1.379333734512329
1761487621424574000,5.562573974609375,1.967902421951294,-0.6533203721046448,3.472310781478882
1761487621441393700,5.5793935546875,1.9662225246429443,-1.8538233041763306,5.146234035491943
1761487621458213600,5.596213623046875,1.6827809810638428,-2.1229095458984375,5.628359794616699
1761487621475034000,5.6130341796875,1.2542591094970703,-2.0509800910949707,5.02849006652832
1761487621491870200,5.6298701171875,0.607200026512146,-1.9617937803268433,3.7143661975860596
1761487621508694300,5.6466943359375,-0.05619960278272629,-1.8188512325286865,2.169029712677002
1761487621525518300,5.663518310546875,-0.5928447246551514,-1.505935549736023,0.9039278626441956
1761487621542342400,5.68034228515625,-0.9060658812522888,-1.1898127794265747,0.027030786499381065
1761487621559169800,5.697169677734375,-1.0111347436904907,-1.0520626306533813,-0.5007568001747131
1761487621575987200,5.7139873046875,-1.0409144163131714,-1.2838860750198364,-0.7648032903671265
1761487621592810800,5.730810791015625,-0.7205155491828918,-1.93598473072052,-0.7857254147529602
1761487621609642500,5.747642578125,-0.05207626149058342,-2.5521950721740723,-0.6870706677436829
1761487621626462700,5.764462646484375,0.7591527700424194,-2.8431196212768555,-0.5499314665794373
1761487621643281700,5.78128173828125,1.325730323791504,-2.936887264251709,-0.17409659922122955
1761487621660119800,5.798119873046875,1.4291192293167114,-2.808605670928955,0.35705074667930603
1761487621676944400,5.8149443359375,1.1548407077789307,-2.4387266635894775,0.6062837839126587
1761487621693777200,5.831777099609375,0.7111998796463013,-2.0454821586608887,0.08307767659425735
1761487621710580000,5.848580078125,0.31291571259498596,-1.7269160747528076,-1.2507466077804565
1761487621727413200,5.865413330078125,0.21502456068992615,-0.903775155544281,-2.7542386054992676
1761487621744245000,5.882244873046875,0.19837848842144012,0.1618792861700058,-3.8846447467803955
1761487621761069000,5.899069091796875,0.05360342562198639,0.6913467645645142,-4.409683704376221
1761487621777893000,5.91589306640625,-0.07590000331401825,0.005345070734620094,-4.252691268920898
1761487621794700300,5.9327001953125,-0.3891211748123169,-0.6973026990890503,-4.202905654907227
1761487621811541500,5.94954150390625,-0.9805914163589478,-0.3098613917827606,-5.182275295257568
1761487621828365300,5.966365234375,-1.0421360731124878,0.26740625500679016,-6.354831218719482
1761487621845172200,5.983172119140625,-0.5429064631462097,-0.4492913782596588,-6.017633438110352
1761487621862000400,6.00000048828125,-0.7883216142654419,-0.42989641427993774,-3.099224805831909
1761487621878824000,6.016823974609375,-1.5222761631011963,2.411848783493042,0.22220222651958466
1761487621895648000,6.03364794921875,-1.2151637077331543,5.150204658508301,1.0891727209091187
1761487621912471800,6.050471923828125,0.10231992602348328,3.263394832611084,1.0844385623931885
1761487621929283000,6.067282958984375,0.5300782918930054,-0.061391957104206085,3.5384368896484375
1761487621946120400,6.084120361328125,0.43020185828208923,-0.6130032539367676,6.170807838439941
1761487621962952200,6.1009521484375,-0.19364428520202637,4.751462459564209,7.279986381530762
1761487621979768300,6.117768310546875,-0.03833179548382759,8.611062049865723,6.90155553817749
1761487621996592400,6.13459228515625,1.2052371501922607,7.622223854064941,6.474408149719238
1761487622013416400,6.15141650390625,1.891544222831726,5.34262752532959,6.369797229766846
1761487622030237400,6.168237548828125,2.0871739387512207,3.3883168697357178,5.6518778800964355
1761487622047056100,6.18505615234375,2.434908866882324,2.3299927711486816,4.254981994628906
1761487622063888100,6.20188818359375,3.0028607845306396,1.5884023904800415,3.293632745742798
1761487622080713200,6.218713134765625,3.2921054363250732,0.33857205510139465,3.3127222061157227
1761487622097547000,6.235547119140625,2.976288080215454,-0.8778133392333984,4.096157073974609
1761487622114360800,6.25236083984375,2.3466389179229736,-1.6569719314575195,5.045594215393066
1761487622131181300,6.269181396484375,1.7570011615753174,-2.0593793392181396,5.4564008712768555
1761487622148016000,6.28601611328125,1.2211196422576904,-1.6980526447296143,4.9229631423950195
1761487622164846000,6.30284619140625,0.8547531962394714,-1.2927435636520386,3.0408871173858643
1761487622181671200,6.319671142578125,0.5345070958137512,-1.2229522466659546,0.12965615093708038
1761487622198495000,6.336494873046875,0.4219551682472229,-0.9007207751274109,-2.207972526550293
1761487622215333000,6.3533330078125,0.6983717083930969,-0.6192646622657776,-2.986520290374756
1761487622232116500,6.370116455078125,1.4049900770187378,-0.6394231915473938,-2.495842695236206
1761487622248940300,6.386940185546875,2.0227274894714355,-1.0958921909332275,-1.6090190410614014
1761487622265791200,6.403791259765625,2.4833199977874756,-1.7851009368896484,-0.9442449808120728
1761487622282615300,6.420615234375,2.733469247817993,-2.2876904010772705,-0.6733261942863464
1761487622299439600,6.437439697265625,2.861292839050293,-2.300365686416626,-0.8110763430595398
1761487622316263700,6.454263671875,3.0225613117218018,-1.8211419582366943,-1.2608258724212646
1761487622333087700,6.471087646484375,3.171154260635376,-1.1326968669891357,-1.742187738418579
1761487622349900800,6.48790087890625,3.154813528060913,-0.4124867618083954,-2.0164661407470703
1761487622366735600,6.504735595703125,2.883742094039917,0.10766500234603882,-2.112982988357544
1761487622383553500,6.521553466796875,2.537839651107788,0.25824329257011414,-2.057241439819336
1761487622400372000,6.5383720703125,2.255620002746582,0.12263119965791702,-1.9634735584259033
1761487622417195500,6.555195556640625,2.074498414993286,0.3474296033382416,-2.2295055389404297
1761487622434015200,6.57201513671875,1.8819230794906616,1.2522737979888916,-3.054173469543457
1761487622450839300,6.58883935546875,1.6774359941482544,2.493093729019165,-4.327674865722656
1761487622467669800,6.605669677734375,1.479362964630127,3.1780264377593994,-5.398216247558594
1761487622484490500,6.622490478515625,1.0363328456878662,2.797152042388916,-5.448001861572266
1761487622501314600,6.639314453125,0.47082439064979553,1.764026165008545,-4.470006465911865
1761487622518145300,6.656145263671875,0.22067506611347198,0.9921978712081909,-3.7007744312286377
1761487622534961400,6.67296142578125,0.49098294973373413,0.959669291973114,-3.497661590576172
1761487622551801300,6.68980126953125,0.8420777320861816,1.2667818069458008,-2.9917125701904297
1761487622568624400,6.706624267578125,0.32330042123794556,1.1945469379425049,-0.9699012637138367
1761487622585433000,6.72343310546875,-0.9416487812995911,1.4187345504760742,1.221577763557434
1761487622602256100,6.740256103515625,-1.4004086256027222,2.8075366020202637,1.7398968935012817
1761487622619081200,6.757081298828125,-0.24938572943210602,3.1789426803588867,2.1227567195892334
1761487622635921200,6.773921142578125,0.4928155243396759,1.7792977094650269,4.684420108795166
1761487622652746500,6.79074658203125,-0.3885102868080139,1.4353805780410767,7.509366512298584
1761487622669569300,6.8075693359375,-0.9841039180755615,2.1616992950439453,6.3774333000183105
1761487622686390300,6.824390380859375,-0.9230173826217651,4.410294532775879,3.8893790245056152
1761487622703221200,6.84122119140625,-0.5942191481590271,5.661040782928467,2.7394251823425293
1761487622720038400,6.858038330078125,1.0129673480987549,5.291314601898193,3.6198346614837646
1761487622736869600,6.87486962890625,2.289675712585449,4.485888957977295,5.529857635498047
1761487622753686500,6.8916865234375,2.3182334899902344,3.8504364490509033,6.968903541564941
1761487622770517500,6.908517578125,2.115731716156006,3.165503740310669,7.277084827423096
1761487622787338500,6.92533837890625,2.0134117603302,2.800206184387207,6.637203693389893
1761487622804149500,6.9421494140625,2.2007946968078613,2.899777412414551,5.1382927894592285
1761487622820961800,6.9589619140625,2.6224443912506104,2.7227790355682373,3.3241758346557617
1761487622837818400,6.975818359375,2.627026081085205,1.2898420095443726,2.4472789764404297
1761487622854624500,6.99262451171875,2.2240076065063477,-0.4528038501739502,2.9040534496307373
1761487622871458000,7.0094580078125,1.817171335220337,-0.9558513760566711,3.680004835128784
1761487622888266000,7.026265869140625,1.5282320976257324,0.18875735998153687,4.41334867477417
1761487622905092400,7.04309228515625,1.7771596908569336,1.2800681591033936,4.951215744018555
1761487622921917400,7.05991748046875,2.5893051624298096,1.6584991216659546,4.983744144439697
1761487622938740500,7.076740478515625,3.366478443145752,1.2628111839294434,4.20366907119751
1761487622955565600,7.093565673828125,3.4576499462127686,1.1566733121871948,2.638479709625244
1761487622972387300,7.11038720703125,3.0381383895874023,1.860390067100525,0.6821837425231934
1761487622989198600,7.127198486328125,2.5839600563049316,2.7711901664733887,-1.0819950103759766
1761487623006036700,7.14403662109375,2.417651891708374,3.4987306594848633,-2.230116367340088
1761487623022858500,7.1608583984375,2.433839797973633,3.6383132934570312,-2.504547595977783
1761487623039705000,7.177705078125,2.5862507820129395,3.2543845176696777,-2.1149682998657227
1761487623056507100,7.194507080078125,2.8912250995635986,2.5115723609924316,-1.758375644683838
1761487623073346600,7.2113466796875,3.0498974323272705,1.7168368101119995,-1.566258430480957
1761487623090167800,7.228167724609375,2.9933924674987793,1.017396092414856,-1.3445143699645996
1761487623106998800,7.244998779296875,2.917034149169922,0.6734789609909058,-0.9787588119506836
1761487623123815700,7.261815673828125,2.6474900245666504,1.1632401943206787,-0.5071708559989929
1761487623140644900,7.278644775390625,2.4891231060028076,2.054492473602295,-0.2952006161212921
1761487623157466400,7.29546630859375,2.3156373500823975,2.660165309906006,-0.33719760179519653
1761487623174276600,7.312276611328125,1.9094120264053345,2.345417022705078,-0.33292156457901
1761487623191115800,7.32911572265625,1.4934128522872925,1.416596531867981,-0.3620903789997101
1761487623207939600,7.345939697265625,1.3144292831420898,1.229519009590149,-0.669355571269989
1761487623224762600,7.3627626953125,1.2873984575271606,2.0195205211639404,-1.2289081811904907
1761487623241583000,7.3795830078125,1.0349584817886353,2.6794075965881348,-1.602452278137207
1761487623258416600,7.396416748046875,0.5264131426811218,2.370004415512085,-1.379333734512329
1761487623275237000,7.413237060546875,0.09529497474431992,1.631773829460144,-0.9821186065673828
1761487623292059400,7.430059326171875,-0.28985556960105896,1.5755741596221924,-1.1032226085662842
1761487623308884500,7.446884521484375,-0.1849394589662552,2.1459696292877197,-1.6427693367004395
1761487623325708800,7.463708740234375,0.062460970133543015,2.7061331272125244,-2.0386099815368652
1761487623342529000,7.480529052734375,-0.3842342495918274,2.88114595413208,-1.5714508295059204
1761487623359364000,7.497364013671875,-0.5493205785751343,1.818698525428772,-0.8290968537330627
1761487623376172800,7.5141728515625,0.05451972410082817,-0.17867808043956757,-0.2194533348083496
1761487623392991200,7.5309912109375,0.1837177276611328,-0.7677049040794373,0.6120869517326355
1761487623409810700,7.547810791015625,0.07498370856046677,1.9526307582855225,1.7841846942901611
1761487623426639400,7.564639404296875,0.6543893814086914,3.713297128677368,1.914909839630127
1761487623443462400,7.58146240234375,1.630552053451538,3.5582900047302246,1.8029687404632568
1761487623460287500,7.59828759765625,2.520735502243042,2.4908030033111572,3.1120529174804688
1761487623477110500,7.615110595703125,3.0503556728363037,1.4885258674621582,5.092630863189697
1761487623493935900,7.631935791015625,2.79761004447937,1.6673567295074463,5.650045394897461
1761487623510759000,7.648759033203125,2.2791383266448975,2.9220738410949707,4.36127233505249
1761487623527601700,7.6656015625,2.0819814205169678,4.096309661865234,2.7986791133880615
1761487623544433700,7.68243359375,2.1865921020507812,3.978259801864624,1.7768542766571045
1761487623561246000,7.699245849609375,2.1529946327209473,2.19636607170105,1.3031282424926758
1761487623578068700,7.71606884765625,1.9245309829711914,-0.17623461782932281,1.2678507566452026
1761487623594894000,7.73289404296875,1.9819523096084595,-2.401005744934082,1.3603968620300293
1761487623611716900,7.749716796875,2.3440427780151367,-3.6532795429229736,1.61100435256958
1761487623628542500,7.76654248046875,2.573728084564209,-3.419471025466919,2.337017774581909
1761487623645361400,7.783361328125,2.308154344558716,-2.2377521991729736,3.265838384628296
1761487623662194400,7.8001943359375,1.7548631429672241,-1.6519323587417603,4.213137626647949
1761487623679013600,7.817013671875,1.5341880321502686,-1.7276796102523804,4.6326494216918945
1761487623695838700,7.833838623046875,1.7719674110412598,-1.920865774154663,4.072027683258057
1761487623712660500,7.850660400390625,2.2565362453460693,-1.6687310934066772,2.67146635055542
1761487623729494300,7.867494384765625,2.534785270690918,-1.3949108123779297,0.9020952582359314
1761487623746302500,7.884302490234375,2.3580925464630127,-1.3978123664855957,-0.7814493775367737
1761487623763135700,7.9011357421875,2.0812180042266846,-1.2281445264816284,-1.8724546432495117
1761487623779958300,7.917958251953125,1.9941695928573608,-0.8126034736633301,-2.300365686416626
1761487623796782800,7.934782958984375,2.2229385375976562,-0.28328874707221985,-2.2127065658569336
1761487623813606000,7.95160595703125,2.6650524139404297,0.07177666574716568,-1.933541178703308
1761487623830431000,7.968430908203125,2.995683193206787,0.2070833146572113,-1.6662876605987549
1761487623847253800,7.985253662109375,3.023324728012085,0.02733621932566166,-1.3413074016571045
1761487623864062500,8.0020625,2.816852331161499,-0.23609942197799683,-0.9474520087242126
1761487623880885200,8.01888525390625,2.5225679874420166,-0.13897185027599335,-0.745408296585083
1761487623897713400,8.03571337890625,2.317164659500122,0.6099489331245422,-0.9007207751274109
1761487623914536400,8.052536376953125,2.1896464824676514,1.3558154106140137,-1.2255483865737915
1761487623931361500,8.069361572265626,2.1904101371765137,1.747380018234253,-1.320690631866455
1761487623948184600,8.0861845703125,2.135584831237793,1.8541287183761597,-1.2249375581741333
1761487623965009700,8.103009765625,1.9514089822769165,1.882686734199524,-0.9795224070549011
1761487623981832700,8.119832763671875,1.725541591644287,2.1485657691955566,-0.8119926452636719
1761487623998657800,8.13665771484375,1.793500304222107,2.5521950721740723,-0.7932085394859314
1761487624015479800,8.153479736328125,2.470797300338745,3.0276007652282715,-1.1705704927444458
1761487624032320300,8.1703203125,3.2284228801727295,3.3623549938201904,-1.7774651050567627
1761487624049138400,8.187138427734375,2.979189872741699,3.2956180572509766,-1.1791226863861084
1761487624065971700,8.2039716796875,2.15849232673645,3.5379788875579834,1.6781995296478271
1761487624082774300,8.220774169921874,1.996002197265625,4.756807804107666,4.288732051849365
1761487624099616300,8.2376162109375,3.249803066253662,5.511989593505859,3.8281397819519043
1761487624116422700,8.254422607421875,4.928002834320068,1.6499470472335815,3.8069121837615967
1761487624133264000,8.271263916015625,4.279874801635742,-2.707965612411499,8.493775367736816
1761487624150087400,8.28808740234375,2.5002715587615967,-3.406337261199951,11.497705459594727
1761487624166908200,8.304908203125,1.326035737991333,1.2133311033248901,8.77019214630127
1761487624183739600,8.32173974609375,0.7363980412483215,6.101322174072266,5.505270481109619
1761487624200561000,8.338560791015626,0.6609562039375305,7.509366512298584,3.4648277759552
1761487624217383400,8.355383544921875,1.0858129262924194,6.873761177062988,1.9937114715576172
1761487624234204700,8.37220458984375,1.9106338024139404,5.269170761108398,1.4450017213821411
1761487624251036000,8.389035888671875,2.2797491550445557,2.705674886703491,1.733788251876831
1761487624267856600,8.405856689453126,1.987755537033081,0.3130684494972229,1.7573065757751465
1761487624284680000,8.422679931640625,1.6152803897857666,-0.9642508029937744,0.9447031021118164
1761487624301507000,8.439507080078124,1.2400563955307007,-1.172708511352539,-0.29504790902137756
1761487624318325800,8.45632568359375,0.869719386100769,-0.19532416760921478,-1.4262176752090454
1761487624335144400,8.47314453125,0.540921151638031,1.3723087310791016,-1.972025752067566
1761487624351972400,8.489972412109376,0.49006664752960205,2.5886940956115723,-1.6577355861663818
1761487624368772600,8.506772705078125,0.7808384895324707,2.7737863063812256,-0.6065891981124878
1761487624385613000,8.523613037109374,1.2261592149734497,1.7229454517364502,0.6881396770477295
1761487624402432300,8.540432373046874,1.3180944919586182,0.0529925599694252,1.4993687868118286
1761487624419260400,8.557260498046874,1.243721604347229,-0.9669997096061707,1.7414240837097168
1761487624436085000,8.5740849609375,1.1336132287979126,-1.2113457918167114,1.6227635145187378
1761487624452906800,8.59090673828125,0.7654141783714294,-0.8388707041740417,1.3124439716339111
1761487624469731800,8.60773193359375,0.20173825323581696,-0.07162395119667053,0.9152288436889648
1761487624486554600,8.6245546875,-0.4011857509613037,0.5258022546768188,0.5929974317550659
1761487624503385600,8.641385498046875,-0.7180721163749695,0.5552765130996704,0.36193767189979553
1761487624520216800,8.658216796875,-0.7289149761199951,0.144622340798378,0.24648413062095642
1761487624537042000,8.6750419921875,-0.3851505517959595,-0.24236078560352325,0.1137736514210701
1761487624553841200,8.691841064453126,0.049785517156124115,-0.327729195356369,-0.06643159687519073
1761487624570681300,8.708681396484375,0.27488934993743896,-0.18448130786418915,-0.28206703066825867
1761487624587513300,8.725513427734375,0.31841349601745605,0.27458393573760986,-0.5138903856277466
1761487624604338200,8.742338134765625,0.3484986126422882,0.8058840036392212,-0.7302893996238708
1761487624621161200,8.7591611328125,0.4024074673652649,1.0115928649902344,-0.779464066028595
1761487624637992200,8.7759921875,0.4755585789680481,0.898124635219574,-0.6779077053070068
1761487624654786300,8.792786376953124,0.5027421116828918,0.5283984541893005,-0.5439754724502563
1761487624671604200,8.809604248046876,0.4222606122493744,0.14798210561275482,-0.5535966157913208
1761487624688457200,8.826457275390625,0.36621370911598206,0.017562376335263252,-0.8955284357070923
1761487624705277700,8.843277587890626,0.4622722864151001,0.3718642294406891,-1.338711142539978
1761487624722102500,8.8601025390625,0.6551529765129089,0.9984592199325562,-1.6430747509002686
1761487624738923000,8.876923095703125,0.7281513810157776,2.4501805305480957,-1.8981109857559204
1761487624755753500,8.89375341796875,0.7683157324790955,3.257744312286377,-1.8496999740600586
1761487624772575000,8.910574951171874,0.4996877610683441,2.6473371982574463,-1.9034560918807983
1761487624789405700,8.92740576171875,0.3068070709705353,1.1398745775222778,-2.1710150241851807
1761487624806226700,8.944226806640625,0.898124635219574,0.5575672388076782,-2.6170995235443115
1761487624823050200,8.96105029296875,1.3113750219345093,1.3755158185958862,-3.8504364490509033
1761487624839874800,8.977874755859375,1.5781704187393188,4.259716033935547,-5.42310905456543
1761487624856681200,8.99468115234375,1.945758581161499,4.3568434715271,-6.925073623657227
1761487624873509400,9.01150927734375,1.8388570547103882,2.5424211025238037,-7.605119705200195
1761487624890332700,9.028332763671875,2.618473768234253,2.3136520385742188,-6.681643962860107
1761487624907157500,9.045157470703124,3.8476874828338623,2.0894646644592285,-3.994295120239258
1761487624923980500,9.06198046875,3.8849501609802246,0.17959438264369965,-0.11270463466644287
1761487624940805600,9.0788056640625,2.0758728981018066,-2.5807528495788574,3.7389533519744873
1761487624957629000,9.09562890625,0.5410739183425903,-3.7442984580993652,6.494719505310059
1761487624974454000,9.1124541015625,0.24358251690864563,-3.902970790863037,5.963572025299072
1761487624991295200,9.129295166015625,0.6898195743560791,-1.4430164098739624,3.484222650527954
1761487625008114200,9.1461142578125,1.2512047290802002,1.5792393684387207,1.1172724962234497
1761487625024923400,9.16292333984375,1.5192219018936157,3.0726521015167236,-0.4434881806373596
1761487625041769700,9.179769775390625,1.561829686164856,1.9588921070098877,-0.6725626587867737
1761487625058589000,9.1965888671875,1.1271990537643433,-0.42409318685531616,0.0507018156349659
1761487625075412200,9.213412109375,0.39095374941825867,-1.9588921070098877,1.1134545803070068
1761487625092234800,9.23023486328125,0.21319197118282318,-2.1644482612609863,1.8090773820877075
1761487625109043500,9.24704345703125,0.675006091594696,-1.3570371866226196,1.8064812421798706
1761487625125863200,9.26386328125,0.6682865619659424,0.1644754707813263,1.5204435586929321
1761487625146989000,9.284989013671876,0.12003502249717712,0.8159632682800293,0.841619610786438
1761487625163710200,9.301710205078125,0.08139779418706894,0.30054569244384766,0.7605272531509399
1761487625180548400,9.31854833984375,0.09941831976175308,-0.27809640765190125,0.9246972799301147
1761487625197371100,9.33537109375,-0.02687807008624077,-0.7773260474205017,1.1908818483352661
1761487625214195200,9.3521953125,-0.34926220774650574,-0.6502660512924194,1.4804319143295288
1761487625231021600,9.369021484375,-0.4466952085494995,-0.3778201639652252,1.4772248268127441
1761487625247841800,9.385841796875,-0.09193521738052368,-0.3248275816440582,1.3703234195709229
1761487625264682200,9.40268212890625,0.346818745136261,0.12247848510742188,1.0618364810943604
1761487625281508600,9.419508544921875,0.8880453705787659,0.37980547547340393,0.46181413531303406
1761487625298333200,9.436333251953124,1.291063666343689,0.4671591818332672,-0.25182920694351196
1761487625315127000,9.453126953125,1.1261301040649414,0.6962336897850037,-0.7134906053543091
1761487625331978200,9.469978271484376,0.7570147514343262,0.9059131741523743,-0.8523097038269043
1761487625348784600,9.48678466796875,0.5053382515907288,1.1562151908874512,-0.6458373069763184
1761487625365612300,9.5036123046875,0.3116939961910248,1.0645854473114014,-0.22739458084106445
1761487625382436400,9.520436279296876,0.16310101747512817,1.1462886333465576,0.3877467215061188
1761487625399260700,9.5372607421875,0.03573561832308769,1.4419474601745605,0.9592111706733704
1761487625416084200,9.554084228515626,0.10201449692249298,1.2024881839752197,1.3735305070877075
1761487625432908500,9.570908447265625,0.39217549562454224,0.9819658994674683,1.5861116647720337
1761487625449718500,9.587718505859375,0.7376197576522827,1.0809260606765747,1.4213306903839111
1761487625466557000,9.604556884765625,0.9440922141075134,1.1003210544586182,1.2680035829544067
1761487625483380500,9.62138037109375,0.9144652485847473,1.2693779468536377,0.964403510093689
1761487625500222000,9.638221923828125,0.7791585922241211,1.4677565097808838,0.5844452977180481
1761487625517039000,9.6550390625,0.7079927921295166,1.6113097667694092,0.19822576642036438
1761487625533864200,9.6718642578125,0.49128836393356323,0.4314235746860504,0.04444044828414917
1761487625550692900,9.68869287109375,0.4899139404296875,-1.251968264579773,-0.8133670687675476
1761487625567519000,9.70551904296875,0.6052147150039673,0.4060726761817932,-1.6774359941482544
1761487625584338700,9.722338623046875,0.9967793822288513,2.356260061264038,-2.2375993728637695
1761487625601162800,9.739162841796874,1.1948524713516235,1.9604192972183228,-2.328312873840332
1761487625617986600,9.755986572265625,0.9682214260101318,-0.46334129571914673,-2.149329423904419
