time,seconds_elapsed,z,y,x
1761487074227976700,0.132976806640625,0.11698069423437119,0.35033121705055237,0.9161451458930969
1761487074244792300,0.149792236328125,0.032070424407720566,0.4066835343837738,0.8342891931533813
1761487074261620200,0.1666201171875,-0.08048149943351746,0.4222606122493744,0.7011205554008484
1761487074278447400,0.183447265625,-0.18020524084568024,0.5403103232383728,0.513737678527832
1761487074295280400,0.2002802734375,-0.2747366428375244,0.7186829447746277,0.266184538602829
1761487074312109600,0.217109619140625,-0.351400226354599,0.878576934337616,-0.024587325751781464
1761487074328932900,0.233932861328125,-0.29917123913764954,1.0464121103286743,-0.2102903574705124
1761487074345721600,0.2507216796875,-0.15683965384960175,1.2279918193817139,-0.25182920694351196
1761487074362576400,0.267576416015625,-0.01878410577774048,1.5181528329849243,-0.17501288652420044
1761487074379407600,0.28440771484375,0.10415252298116684,1.7634152173995972,-0.08643743395805359
1761487074396227000,0.30122705078125,0.1823432743549347,1.8267924785614014,-0.01863138936460018
1761487074413060000,0.31806005859375,0.2747366428375244,1.9037615060806274,0.08307767659425735
1761487074429880300,0.33488037109375,0.3778201639652252,1.88558828830719,0.21013765037059784
1761487074446706400,0.35170654296875,0.6467535495758057,2.2272145748138428,0.46761733293533325
1761487074463531500,0.368531494140625,0.8955284357070923,2.975524663925171,0.7438811659812927
1761487074480356000,0.385356201171875,0.8594874143600464,2.3608415126800537,0.813825249671936
1761487074497180200,0.40218017578125,1.0839803218841553,0.8303185701370239,0.9575312733650208
1761487074514002200,0.419002197265625,1.1898127794265747,-0.8185594081878662,1.2056952714920044
1761487074530830600,0.43583056640625,0.8239045143127441,-1.1146763563156128,1.601230502128601
1761487074547650800,0.45265087890625,0.6062837839126587,-1.1441506147384644,1.1281154155731201
1761487074564483300,0.4694833984375,1.466840147972107,0.17150041460990906,0.4262312352657318
1761487074581304600,0.4863046875,2.9773571491241455,1.4477506875991821,1.0207557678222656
1761487074598108000,0.50310791015625,1.6986634731292725,3.703981399536133,2.755155086517334
1761487074614950100,0.5199501953125,1.0012081861495972,1.955379605293274,4.588361740112305
1761487074631782100,0.5367822265625,0.4885394871234894,-0.04688390716910362,5.144859790802002
1761487074648604200,0.553604248046875,0.5621487498283386,-1.2877039909362793,4.6550984382629395
1761487074665429500,0.570429443359375,0.8787296414375305,-1.3336715698242188,3.8203511238098145
1761487074682248200,0.587248291015625,1.0086911916732788,-0.5797111392021179,2.78646183013916
1761487074699076900,0.604076904296875,0.8684976696968079,0.09834930300712585,1.9448422193527222
1761487074715887000,0.62088720703125,0.3452915847301483,-0.030237829312682152,1.7464637756347656
1761487074732714800,0.63771484375,-0.6288857460021973,-0.44196099042892456,2.0819814205169678
1761487074749539300,0.654539306640625,-1.4401148557662964,-0.47342056035995483,2.507601737976074
1761487074766350800,0.671350830078125,-1.7654005289077759,-0.18081611394882202,2.6931521892547607
1761487074783188700,0.688188720703125,-1.4663820266723633,0.002138028386980295,2.9936978816986084
1761487074800014300,0.705014404296875,-0.6789767146110535,-0.19333885610103607,3.6024250984191895
1761487074816838400,0.72183837890625,0.2477058619260788,-1.5051720142364502,4.098142147064209
1761487074833662700,0.738662841796875,0.5890268087387085,-3.031113386154175,4.272391319274902
1761487074850488000,0.755488037109375,0.5919284224510193,-3.953214406967163,3.958559513092041
1761487074867314000,0.77231396484375,0.5659666657447815,-3.528204917907715,3.163213014602661
1761487074884151800,0.78915185546875,0.8020660877227783,-2.11283016204834,1.884519338607788
1761487074900971500,0.805971435546875,1.288467526435852,-1.1595749855041504,0.3790418803691864
1761487074917788700,0.82278857421875,1.9223929643630981,-1.1481212377548218,-0.7031059265136719
1761487074934626300,0.839626220703125,2.336864948272705,-1.778228759765625,-1.2811371088027954
1761487074951451100,0.856451171875,2.5723536014556885,-2.3179280757904053,-1.3939944505691528
1761487074968275000,0.87327490234375,2.7337746620178223,-2.607020139694214,-1.4211779832839966
1761487074985100500,0.8901005859375,2.791959524154663,-2.394591808319092,-1.531133770942688
1761487075001926000,0.90692578125,2.9944615364074707,-1.7325665950775146,-1.9201022386550903
1761487075018750000,0.92375,3.2484285831451416,-1.0848966836929321,-2.4862215518951416
1761487075035561000,0.94056103515625,3.3209688663482666,-0.6459900140762329,-3.1387784481048584
1761487075052404500,0.957404541015625,3.1277828216552734,-0.6380487680435181,-3.7623190879821777
1761487075069220000,0.97422021484375,2.7061331272125244,-0.7492262125015259,-4.1581597328186035
1761487075086049000,0.991049072265625,2.3159427642822266,-0.8003861904144287,-4.480849266052246
1761487075102873900,1.007873779296875,2.235614061355591,-0.05268712714314461,-4.71771240234375
1761487075119682300,1.024682373046875,2.534938097000122,0.9327912330627441,-4.731456756591797
1761487075136524300,1.041524169921875,2.6051876544952393,0.9914342761039734,-4.499480724334717
1761487075153348400,1.058348388671875,1.7818939685821533,0.07635815441608429,-3.4049627780914307
1761487075170172400,1.07517236328125,1.1679743528366089,-0.5737552046775818,-2.0334177017211914
1761487075186998300,1.091998291015625,1.1939361095428467,-0.6044511795043945,-1.379333734512329
1761487075203806500,1.108806396484375,1.3936890363693237,-0.8307767510414124,-1.4283556938171387
1761487075220621000,1.12562109375,1.321606993675232,-1.202946424484253,-1.6901113986968994
1761487075237458400,1.14245849609375,0.7293730974197388,-0.907898485660553,-1.226617455482483
1761487075254283800,1.15928369140625,-0.4870123267173767,-0.3478877544403076,0.4057672321796417
1761487075271109000,1.176109130859375,-1.870163917541504,1.2522737979888916,1.9184223413467407
1761487075287933200,1.19293310546875,-2.204918146133423,2.0312795639038086,2.4210116863250732
1761487075304757800,1.2097578125,-2.0783162117004395,2.2967007160186768,2.8435776233673096
1761487075321583000,1.2265830078125,-2.601675033569336,2.150092840194702,3.927252769470215
1761487075338408400,1.243408447265625,-3.38297176361084,1.7695238590240479,4.958393096923828
1761487075355250000,1.26025,-4.036444664001465,0.5885686874389648,5.868735313415527
1761487075372064300,1.277064208984375,-4.324925899505615,-1.2808316946029663,6.252511024475098
1761487075388880600,1.293880615234375,-4.162436008453369,-2.2766947746276855,5.639966011047363
1761487075405718000,1.310718017578125,-3.7701075077056885,-1.9900462627410889,4.536590576171875
1761487075422549200,1.32754931640625,-3.7537670135498047,-1.0462594032287598,4.074624061584473
1761487075439353600,1.344353515625,-3.8847975730895996,-0.5910121202468872,4.444961071014404
1761487075456190700,1.361190673828125,-3.7673587799072266,-0.817337691783905,5.024977684020996
1761487075473025500,1.378025634765625,-3.512322425842285,-1.3222178220748901,5.127449989318848
1761487075489848600,1.3948486328125,-2.964987277984619,-1.074817419052124,4.105930805206299
1761487075506669300,1.41166943359375,-2.278221845626831,-0.5166392922401428,2.5497515201568604
1761487075523494700,1.42849462890625,-1.640020489692688,-0.3390302062034607,1.182176947593689
1761487075540299800,1.4452998046875,-1.0021244287490845,-0.3052799105644226,0.22663100063800812
1761487075557138200,1.46213818359375,-0.2687807083129883,-0.3439171314239502,-0.4153883755207062
1761487075573974800,1.478974853515625,0.8196284174919128,-0.47448956966400146,-0.7203628420829773
1761487075590794200,1.495794189453125,2.079538106918335,-0.536797821521759,-0.6490443348884583
1761487075607615200,1.512615234375,2.9973630905151367,-0.7560984492301941,-0.3020728528499603
1761487075624422400,1.52942236328125,3.4248158931732178,-0.7344127297401428,-0.025045474991202354
1761487075641280300,1.5462802734375,3.495218276977539,-0.5265658497810364,-0.11988230794668198
1761487075658113800,1.56311376953125,3.2840116024017334,-0.1615738570690155,-0.6682865619659424
1761487075674908400,1.579908447265625,3.1036536693573,0.40622538328170776,-1.769829273223877
1761487075691712500,1.59671240234375,3.14931583404541,0.9576839804649353,-2.965139865875244
1761487075708553200,1.61355322265625,3.1955888271331787,1.3802499771118164,-3.975511074066162
1761487075725378800,1.63037890625,3.0188961029052734,1.6155858039855957,-4.8056769371032715
1761487075742204400,1.647204345703125,2.5749497413635254,1.7847955226898193,-5.190063953399658
1761487075759028500,1.664028564453125,2.046704053878784,1.9996674060821533,-5.181358814239502
1761487075775835400,1.68083544921875,2.171625852584839,2.4130704402923584,-5.093547344207764
1761487075792675000,1.697675048828125,2.942232370376587,2.685363531112671,-4.984813213348389
1761487075809506600,1.714506591796875,3.1140382289886475,1.3727669715881348,-4.390135765075684
1761487075826327800,1.731327880859375,2.596940755844116,-0.04932736977934837,-4.076456546783447
1761487075843169300,1.748169189453125,1.7093536853790283,0.032681290060281754,-4.041484355926514
1761487075860000500,1.76500048828125,1.111163854598999,0.3908010423183441,-4.311028957366943
1761487075876816400,1.78181640625,1.0529789924621582,0.6429356932640076,-4.80628776550293
1761487075893640400,1.798640380859375,0.8910996913909912,-0.19043724238872528,-4.7696356773376465
1761487075910463700,1.815463623046875,0.561079740524292,-1.0516045093536377,-3.701690673828125
1761487075927286500,1.83228662109375,-0.033597588539123535,-0.6065891981124878,-1.9097174406051636
1761487075944119800,1.849119873046875,-0.7973318696022034,-0.06582073122262955,-0.403781920671463
1761487075960940300,1.865940185546875,-1.2602150440216064,-0.07238753139972687,-0.16142113506793976
1761487075977764000,1.88276416015625,-1.4414892196655273,-0.06658431142568588,-0.7420485615730286
1761487075994573300,1.8995732421875,-1.648267149925232,0.02871066704392433,-1.2507466077804565
1761487076011410700,1.91641064453125,-1.8211419582366943,-0.00733038317412138,-1.36482572555542
1761487076028239400,1.9332392578125,-1.9917261600494385,-0.21334469318389893,-0.9222537875175476
1761487076045048800,1.950048828125,-2.225229263305664,-0.43676865100860596,0.10033461451530457
1761487076061889000,1.966888916015625,-2.506380081176758,-0.7205155491828918,1.2551753520965576
1761487076078716400,1.98371630859375,-2.934443950653076,-0.3260493278503418,2.3266329765319824
1761487076095535900,2.000535888671875,-2.8846583366394043,0.12034045159816742,2.493246555328369
1761487076112362800,2.01736279296875,-2.414597511291504,0.7189884185791016,2.193769693374634
1761487076129183700,2.034183837890625,-1.7918205261230469,1.078635334968567,1.9604192972183228
1761487076146001400,2.05100146484375,-1.4341589212417603,0.9702067375183105,1.5293011665344238
1761487076162837800,2.067837646484375,-1.9463694095611572,0.711963415145874,0.954018771648407
1761487076179636200,2.08463623046875,-2.3400721549987793,0.422871470451355,0.8362745046615601
1761487076196463400,2.10146337890625,-2.1673498153686523,0.24755313992500305,0.9682214260101318
1761487076213286400,2.118286376953125,-2.048383951187134,0.247094988822937,1.0520626306533813
1761487076230122200,2.135122314453125,-2.0587685108184814,0.6247624158859253,0.915534257888794
1761487076246952000,2.151951904296875,-1.971109390258789,1.8112154006958008,0.611934244632721
1761487076263772700,2.168772705078125,-2.0471620559692383,2.585028886795044,0.5818491578102112
1761487076280596200,2.18559619140625,-2.1699459552764893,2.9798007011413574,0.7110471725463867
1761487076297425200,2.202425048828125,-1.8813122510910034,2.841745138168335,0.841008722782135
1761487076314247200,2.2192470703125,-1.3371840715408325,2.4055874347686768,1.109636664390564
1761487076331071200,2.2360712890625,-1.2536481618881226,2.1739165782928467,1.5267049074172974
1761487076347915500,2.25291552734375,-1.0612256526947021,1.4770721197128296,1.835650086402893
1761487076364735200,2.2697353515625,-0.8480336666107178,0.45891252160072327,1.969735026359558
1761487076381564700,2.286564697265625,-0.641255795955658,-0.4363104999065399,2.06548810005188
1761487076398380500,2.303380615234375,-0.23090706765651703,-0.940121591091156,1.9413297176361084
1761487076415211000,2.3202109375,0.33689218759536743,-1.0879509449005127,1.560302495956421
1761487076432034600,2.33703466796875,1.0841331481933594,-1.0719157457351685,1.0195341110229492
1761487076448860000,2.35385986328125,1.8183931112289429,-0.964403510093689,0.6343835592269897
1761487076465684200,2.370684326171875,2.322204113006592,-1.0170906782150269,0.5343543887138367
1761487076482510000,2.387510009765625,2.9794952869415283,-1.7438675165176392,0.09544769674539566
1761487076499334100,2.404334228515625,3.863417148590088,-2.814409017562866,-1.0908526182174683
1761487076516154000,2.421154052734375,4.407850742340088,-3.140000104904175,-2.5633432865142822
1761487076532984000,2.437984130859375,4.453360557556152,-2.286621332168579,-3.9704713821411133
1761487076549790000,2.4547900390625,4.162282943725586,-1.1580477952957153,-4.799568176269531
1761487076566616300,2.4716162109375,3.9797871112823486,-0.8523097038269043,-5.472589015960693
1761487076583459300,2.488459228515625,4.685947418212891,-1.5906931161880493,-6.382472991943359
1761487076600277000,2.505277099609375,5.485264301300049,-2.308917999267578,-6.12545108795166
1761487076617114400,2.5221142578125,5.27665376663208,-2.406809091567993,-4.10898494720459
1761487076633932300,2.538932373046875,3.6911532878875732,-1.7140878438949585,-2.11283016204834
1761487076650752000,2.555751953125,2.4497222900390625,-0.6582072973251343,-1.9662225246429443
1761487076667587300,2.57258740234375,2.13008713722229,-0.02428189292550087,-2.816394329071045
1761487076684391000,2.589390869140625,2.0609066486358643,-0.2454151064157486,-2.934291124343872
1761487076701215000,2.606215087890625,2.0363192558288574,-1.0937541723251343,-2.138486623764038
1761487076718046000,2.6230458984375,1.559233546257019,-1.4899003505706787,-0.9295842051506042
1761487076734867700,2.63986767578125,-0.04459316283464432,-0.9434813857078552,0.10674870014190674
1761487076751693600,2.656693603515625,-1.6633861064910889,-0.17669276893138885,0.2692388594150543
1761487076768514800,2.673514892578125,-2.495537281036377,0.4911356568336487,-0.4366159439086914
1761487076785342000,2.690342041015625,-2.9080240726470947,1.067945122718811,-1.2609785795211792
1761487076802166800,2.707166748046875,-3.1195361614227295,1.3046554327011108,-1.581377387046814
1761487076818992600,2.72399267578125,-3.151911973953247,1.2548699378967285,-1.2316570281982422
1761487076835829800,2.740829833984375,-3.0159945487976074,1.2043207883834839,-0.4306600093841553
1761487076852659200,2.7576591796875,-2.7904324531555176,1.119410514831543,0.547182559967041
1761487076869452300,2.774452392578125,-2.526538610458374,0.9630290865898132,1.618945598602295
1761487076886305800,2.791305908203125,-2.214081048965454,0.7764097452163696,2.4834725856781006
1761487076903129600,2.808129638671875,-1.8376353979110718,0.37980547547340393,2.855794906616211
1761487076919954200,2.8249541015625,-1.4645494222640991,-0.15821409225463867,2.7769935131073
1761487076936775700,2.841775634765625,-1.1850786209106445,-0.6272059082984924,2.4497222900390625
1761487076953597200,2.85859716796875,-0.8721628785133362,-0.6774495840072632,1.981799602508545
1761487076970424800,2.8754248046875,-0.5253441333770752,-0.41828998923301697,1.5094480514526367
1761487076987257000,2.892257080078125,-0.21059578657150269,-0.31444287300109863,1.2383766174316406
1761487077004078600,2.90907861328125,0.07254024595022202,-0.460897833108902,1.1652255058288574
1761487077020872700,2.925872802734375,0.28557950258255005,-0.7475463151931763,1.1441506147384644
1761487077037732000,2.942732177734375,0.4283692538738251,-0.9946413636207581,1.0488556623458862
1761487077054553300,2.95955322265625,0.5757405161857605,-1.0682506561279297,0.7735081315040588
1761487077071377700,2.976377685546875,0.7670940160751343,-0.8439103364944458,0.2822197377681732
1761487077088203500,2.99320361328125,0.8827002644538879,-0.4434881806373596,-0.3692680299282074
1761487077105027000,3.010027099609375,0.8510879874229431,0.00733038317412138,-1.0062477588653564
1761487077121849300,3.026849365234375,0.8132143616676331,0.3446807265281677,-1.5444200038909912
1761487077138679800,3.0436796875,0.8281805515289307,0.99250328540802,-1.9213238954544067
1761487077155486200,3.060486328125,0.8429940342903137,2.037999153137207,-1.98500657081604
1761487077172291000,3.077291015625,0.5013676285743713,2.7146852016448975,-1.7446311712265015
1761487077189137700,3.0941376953125,-0.001679879380390048,2.5418102741241455,-0.7064656615257263
1761487077205946000,3.110946044921875,-0.008399397134780884,1.5094480514526367,0.7310529947280884
1761487077222788400,3.127788330078125,0.15195272862911224,0.37720927596092224,1.1362093687057495
1761487077239612200,3.144612060546875,0.4027129113674164,-0.20555615425109863,0.3390302062034607
1761487077256437000,3.16143701171875,0.5041165351867676,0.09636399149894714,-0.32100969552993774
1761487077273261800,3.17826171875,0.1137736514210701,1.2602150440216064,-0.1644754707813263
1761487077290087700,3.195087646484375,-0.6389650702476501,2.4390323162078857,0.7893906235694885
1761487077306911500,3.211911376953125,-1.0100656747817993,2.4098634719848633,2.1485657691955566
1761487077323752700,3.228752685546875,-1.2651019096374512,1.7851009368896484,3.6392297744750977
1761487077340575700,3.24557568359375,-1.835344672203064,1.489442229270935,4.504214763641357
1761487077357400600,3.262400634765625,-2.068084239959717,1.584126353263855,4.371962547302246
1761487077374224600,3.279224609375,-1.9602665901184082,1.8605427742004395,3.989255428314209
1761487077391055400,3.296055419921875,-1.9504927396774292,1.5349516868591309,3.469714641571045
1761487077407878100,3.312878173828125,-2.0163135528564453,1.2107349634170532,2.5830435752868652
1761487077424700000,3.329699951171875,-1.9112446308135986,1.432326316833496,1.4034628868103027
1761487077441521000,3.34652099609375,-1.5789339542388916,1.829694151878357,0.5361869931221008
1761487077458331600,3.36333154296875,-0.950506329536438,1.7156150341033936,0.5448917746543884
1761487077475176400,3.380176513671875,-0.01160643994808197,0.7979426980018616,1.1357512474060059
1761487077492005000,3.397005126953125,0.7376197576522827,-0.3868304193019867,1.902539849281311
1761487077508812300,3.413812255859375,1.0951286554336548,-1.198823094367981,2.3744332790374756
1761487077525647400,3.4306474609375,1.4906638860702515,-1.9689713716506958,2.0331122875213623
1761487077542472700,3.44747265625,1.919033169746399,-2.5977044105529785,1.053742527961731
1761487077559285800,3.46428564453125,2.2618813514709473,-2.74079966545105,-0.13026700913906097
1761487077576122000,3.4811220703125,2.448042392730713,-2.4100160598754883,-1.21027672290802
1761487077592969500,3.497969482421875,2.520735502243042,-1.877036213874817,-2.020742177963257
1761487077609803500,3.514803466796875,2.5253169536590576,-1.536784291267395,-2.4518604278564453
1761487077626591200,3.53159130859375,2.506838321685791,-1.6067283153533936,-2.584876298904419
1761487077643404500,3.548404541015625,2.570979118347168,-2.035555601119995,-2.643671989440918
1761487077660230000,3.56522998046875,2.7314839363098145,-2.286774158477783,-2.777298927307129
1761487077677041400,3.58204150390625,2.8956539630889893,-2.0282254219055176,-2.887254476547241
1761487077693884000,3.5988837890625,2.941774368286133,-1.535562515258789,-2.9405524730682373
1761487077710706700,3.615706787109375,2.905427932739258,-1.2539535760879517,-2.9436068534851074
1761487077727531800,3.63253173828125,2.8463265895843506,-1.1612548828125,-2.8159360885620117
1761487077744356600,3.649356689453125,2.8440358638763428,-1.0222829580307007,-2.557234525680542
1761487077761182700,3.6661826171875,2.8739683628082275,-0.6707300543785095,-2.2600486278533936
1761487077778005200,3.683005126953125,2.847242832183838,-0.25702154636383057,-2.1235203742980957
1761487077794832100,3.69983203125,2.684905529022217,0.0633772686123848,-2.1229095458984375
1761487077811668700,3.716668701171875,2.2941043376922607,0.3689626157283783,-2.2156083583831787
1761487077828495600,3.73349560546875,2.0775527954101562,0.4262312352657318,-2.1140518188476562
1761487077845323300,3.7503232421875,2.454303741455078,0.19547687470912933,-1.7201964855194092
1761487077862139600,3.7671396484375,3.2670600414276123,-0.08445212244987488,-0.6574437022209167
1761487077878973000,3.783972900390625,3.4046573638916016,-0.6957755088806152,1.3576480150222778
1761487077895778000,3.800778076171875,2.1195497512817383,-1.1133018732070923,3.294548988342285
1761487077912618800,3.81761865234375,0.28527405858039856,-1.1714868545532227,3.124117612838745
1761487077929436700,3.834436767578125,-1.0201449394226074,-0.7018841505050659,0.8709411025047302
1761487077946282200,3.8512822265625,-1.711033582687378,1.6036739349365234,-0.7188356518745422
1761487077963079200,3.8680791015625,-2.7365236282348633,3.5048394203186035,-0.5969680547714233
1761487077979913700,3.884913818359375,-3.7893497943878174,2.9275717735290527,0.5093088746070862
1761487077996747000,3.9017470703125,-4.453818321228027,1.7008016109466553,1.6551393270492554
1761487078013551600,3.918551513671875,-4.531245708465576,1.2675453424453735,2.079538106918335
1761487078030387500,3.935387451171875,-4.446182727813721,1.2823588848114014,2.0451767444610596
1761487078047223000,3.95222314453125,-4.579198360443115,1.0419833660125732,2.4054346084594727
1761487078064036400,3.969036376953125,-4.641506671905518,-0.09575312584638596,3.690237045288086
1761487078080871000,3.985870849609375,-4.583016395568848,-1.2893837690353394,5.881104946136475
1761487078097692700,4.002692626953125,-4.511240005493164,-1.772578239440918,7.845800399780273
1761487078114507800,4.0195078125,-4.449236869812012,-1.6349807977676392,8.195979118347168
1761487078131335000,4.0363349609375,-4.277431011199951,-1.0180069208145142,7.1703362464904785
1761487078148172500,4.053172607421875,-4.29804801940918,-0.4268420934677124,5.831166744232178
1761487078164974600,4.069974609375,-4.722599029541016,-0.14385876059532166,4.430452823638916
1761487078181802000,4.086802001953125,-5.117828845977783,0.5589417219161987,2.953533411026001
1761487078198626800,4.103626708984375,-5.045899868011475,1.4358386993408203,1.4918856620788574
1761487078215451400,4.120451416015625,-4.409988880157471,1.8309158086776733,0.2692388594150543
1761487078232277800,4.13727783203125,-3.5944838523864746,1.614822268486023,-0.5926920175552368
1761487078249101000,4.15410107421875,-2.688876152038574,0.9718865752220154,-0.9503536224365234
1761487078265913000,4.1709130859375,-1.8469511270523071,0.4505131244659424,-0.7761042714118958
1761487078282751700,4.187751708984375,-0.9283624291419983,0.09437867999076843,-0.5210680365562439
1761487078299566600,4.204566650390625,0.18188512325286865,-0.19532416760921478,-0.31184670329093933
1761487078316414700,4.221414794921875,1.1817188262939453,-0.5022839307785034,-0.12965615093708038
1761487078333240600,4.238240478515625,1.9309450387954712,-0.8717046976089478,0.013133603148162365
1761487078350066000,4.25506591796875,2.373516798019409,-1.2009611129760742,-0.0007635815418325365
1761487078366889700,4.2718896484375,2.5608997344970703,-1.3306171894073486,-0.23426681756973267
1761487078383709400,4.28870947265625,2.6028966903686523,-1.19607412815094,-0.6976081132888794
1761487078400554800,4.3055546875,2.621222734451294,-0.826195240020752,-1.3483322858810425
1761487078417363000,4.322363037109375,2.780200481414795,-0.4789183437824249,-2.1419990062713623
1761487078434185200,4.339185302734375,3.0437889099121094,-0.30085113644599915,-2.917186975479126
1761487078451016700,4.3560166015625,3.344487190246582,-0.34376442432403564,-3.5246925354003906
1761487078467826200,4.372826171875,3.6143369674682617,-0.5630650520324707,-3.919464111328125
1761487078484662500,4.38966259765625,3.7191002368927,-0.7751879692077637,-4.078441619873047
1761487078501457700,4.406457763671875,3.713297128677368,-0.5364924073219299,-4.169613361358643
1761487078518296800,4.423296875,3.8223366737365723,-0.001679879380390048,-4.137237548828125
1761487078535136800,4.44013671875,4.061795711517334,0.44394633173942566,-4.108526706695557
1761487078551961900,4.4569619140625,3.4775030612945557,1.0128145217895508,-4.103640079498291
1761487078568783600,4.47378369140625,2.10168194770813,2.194380760192871,-3.9768855571746826
1761487078585615400,4.490615478515625,2.1306979656219482,1.3603968620300293,-3.4406983852386475
1761487078602435800,4.507435791015625,2.715754270553589,-0.9289733171463013,-1.9619464874267578
1761487078619261000,4.524260986328125,2.5831964015960693,-1.9381227493286133,-0.4199698567390442
1761487078636086800,4.541086669921875,1.2060006856918335,-1.6226108074188232,0.7553348541259766
1761487078652893200,4.55789306640625,-0.7658722996711731,-0.49984049797058105,1.0367910861968994
1761487078669721600,4.5747216796875,-1.679421305656433,0.6302602291107178,-0.0656680166721344
1761487078686547700,4.591547607421875,-1.9604192972183228,1.647045373916626,-1.002277135848999
1761487078703367400,4.608367431640625,-2.297922372817993,2.1789562702178955,-0.6496551632881165
1761487078720199200,4.62519921875,-2.4776694774627686,2.1447479724884033,0.6155994534492493
1761487078737020700,4.642020751953125,-2.5138630867004395,2.0499110221862793,2.0007364749908447
1761487078753845800,4.658845703125,-2.5257749557495117,2.1545217037200928,2.8788552284240723
1761487078770671400,4.67567138671875,-2.110386610031128,2.0807597637176514,3.3677000999450684
1761487078787495200,4.6924951171875,-1.4845552444458008,1.7458528280258179,4.14349889755249
1761487078804313000,4.70931298828125,-0.8746063113212585,0.9712757468223572,4.585612773895264
1761487078821142300,4.726142333984375,-0.8440630435943604,0.26313021779060364,4.193742752075195
1761487078837984000,4.74298388671875,-0.8915578126907349,-0.2018909603357315,3.0752482414245605
1761487078854808000,4.75980810546875,-0.7425066828727722,-0.589790403842926,1.4828753471374512
1761487078871616300,4.7766162109375,-0.17928895354270935,-0.6856962442398071,-0.1111774742603302
1761487078888441000,4.793441162109375,0.6214026808738708,-0.7286095023155212,-1.0781772136688232
1761487078905285400,4.810285400390625,1.3243558406829834,-0.9234755635261536,-1.1933252811431885
1761487078922079700,4.827079833984375,1.7692184448242188,-1.322981357574463,-0.6218608021736145
1761487078938932700,4.8439326171875,1.9533942937850952,-1.785253643989563,0.1817324161529541
1761487078955757800,4.8607578125,2.0500638484954834,-2.107179641723633,0.8445212244987488
1761487078972577800,4.877577880859375,2.0870211124420166,-2.149787425994873,1.2484558820724487
1761487078989411000,4.8944111328125,1.9810359477996826,-1.9813414812088013,1.3658946752548218
1761487079006231600,4.9112314453125,1.8390097618103027,-1.6200146675109863,1.1856894493103027
1761487079023056100,4.92805615234375,1.7270687818527222,-1.1432342529296875,0.755793035030365
1761487079039878100,4.944878173828125,1.6294829845428467,-0.6452264189720154,0.16065755486488342
1761487079056710100,4.961710205078125,1.5700763463974,-0.34987306594848633,-0.4518875777721405
1761487079073530600,4.978530517578125,1.5146403312683105,-0.19914206862449646,-0.9469938278198242
1761487079090337800,4.995337890625,1.510058879852295,0.05054909735918045,-1.3852896690368652
1761487079107185400,5.012185302734375,1.5897767543792725,0.38988474011421204,-1.7130188941955566
1761487079124005000,5.029005126953125,1.6728544235229492,0.6404922008514404,-1.8029687404632568
1761487079140812800,5.045812744140625,1.5871806144714355,0.7461718916893005,-1.6720908880233765
1761487079157641200,5.06264111328125,1.3956743478775024,0.5085453391075134,-1.359175205230713
1761487079174466800,5.079466796875,1.2782355546951294,0.17638733983039856,-0.8248208165168762
1761487079191290600,5.09629052734375,1.2646437883377075,-0.03695734590291977,-0.4323398768901825
1761487079208115500,5.113115478515625,1.4758504629135132,-0.22220222651958466,-0.30741792917251587
1761487079224940300,5.129940185546875,1.786780834197998,-0.03878994286060333,0.20586158335208893
1761487079241766400,5.146766357421875,1.654223084449768,0.5204572081565857,0.8471173644065857
1761487079258590000,5.16358984375,0.8532260060310364,1.0897835493087769,0.8303185701370239
1761487079275414800,5.180414794921875,0.31810808181762695,1.1699596643447876,-0.44486260414123535
1761487079292240000,5.197239990234375,0.3810271918773651,1.5263994932174683,-1.7959438562393188
1761487079309079300,5.214079345703125,-0.02076941914856434,2.389246702194214,-1.0456485748291016
1761487079325898800,5.230898681640625,-0.47219884395599365,1.9549214839935303,0.7023423314094543
1761487079342731800,5.247731689453125,-0.5900958180427551,-0.29275718331336975,1.996002197265625
1761487079359552500,5.264552490234375,-0.3865249752998352,-2.0734293460845947,2.4420864582061768
1761487079376379000,5.28137890625,-0.8139779567718506,-1.9883663654327393,1.8991800546646118
1761487079393202700,5.29820263671875,-1.8110626935958862,-0.20815233886241913,0.7533495426177979
1761487079410026000,5.31502587890625,-2.43949031829834,1.8151860237121582,-0.4951062798500061
1761487079426844200,5.33184423828125,-2.515542984008789,2.813797950744629,-1.2655600309371948
1761487079443681500,5.348681640625,-2.3469443321228027,2.6145031452178955,-1.0877982378005981
1761487079460480800,5.365480712890625,-2.0674734115600586,1.6728544235229492,-0.4112650156021118
1761487079477330000,5.382329833984375,-1.6733126640319824,0.5867360830307007,-0.07880161702632904
1761487079494143500,5.3991435546875,-1.282817006111145,-0.015271631069481373,-0.15164729952812195
1761487079510985000,5.41598486328125,-0.9692904353141785,-0.012217304669320583,-0.313373863697052
1761487079527800800,5.43280078125,-0.6863071322441101,0.29993483424186707,-0.342237263917923
1761487079544625700,5.449625732421875,-0.523511528968811,0.7165449261665344,-0.22327125072479248
1761487079561450200,5.4664501953125,-0.46792277693748474,1.171028733253479,-0.06368270516395569
1761487079578265900,5.483265869140625,-0.49846604466438293,1.5221234560012817,0.008704829961061478
1761487079595096800,5.500096923828125,-0.4576907753944397,1.9281961917877197,-0.044287730008363724
1761487079611924000,5.516924072265625,-0.5484042763710022,2.3432791233062744,-0.29886582493782043
1761487079628736500,5.533736572265625,-0.8084801435470581,2.864805221557617,-0.6928738951683044
1761487079645558500,5.55055859375,-1.0607675313949585,3.3423492908477783,-1.1113165616989136
1761487079662378000,5.5673779296875,-1.3640620708465576,3.7452147006988525,-1.5268577337265015
1761487079679206700,5.58420654296875,-1.7179057598114014,4.100127696990967,-1.9202549457550049
1761487079696038700,5.60103857421875,-2.0312795639038086,4.398382663726807,-2.1476495265960693
1761487079712861000,5.61786083984375,-2.124894857406616,4.453360557556152,-1.9185750484466553
1761487079729675500,5.634675537109375,-2.2093467712402344,4.398993492126465,-1.4301882982254028
1761487079746509600,5.651509521484375,-2.285705089569092,4.418846607208252,-0.9590584635734558
1761487079763334400,5.66833447265625,-2.3631322383880615,5.245041847229004,-0.6921103000640869
1761487079780177200,5.68517724609375,-2.130239725112915,5.103473663330078,-0.43417248129844666
1761487079796987400,5.7019873046875,-1.8658878803253174,4.649142742156982,-0.20128010213375092
1761487079813816800,5.71881689453125,-1.4092661142349243,3.959170341491699,0.11743884533643723
1761487079830647000,5.73564697265625,-0.9117164015769958,3.372739791870117,0.3550654351711273
1761487079847469300,5.75246923828125,-0.17241671681404114,3.107318878173828,0.47280970215797424
1761487079864301000,5.769301025390625,0.7093672752380371,2.8095219135284424,0.6255260109901428
1761487079881121800,5.786121826171875,1.3848315477371216,2.565328598022461,0.8807149529457092
1761487079897942800,5.80294287109375,1.5439618825912476,2.2255349159240723,1.3171781301498413
1761487079914776300,5.8197763671875,1.5132659673690796,1.2165381908416748,1.754557728767395
1761487079931588400,5.83658837890625,1.4033101797103882,0.43279802799224854,2.202169179916382
1761487079948429300,5.85342919921875,1.2887729406356812,0.4297437071800232,2.456441879272461
1761487079965245400,5.870245361328125,0.8582656979560852,0.7997753024101257,2.3886358737945557
1761487079982047000,5.887046875,0.04505131021142006,-0.09911288321018219,1.2780828475952148
1761487079998899500,5.9038994140625,-0.7785477638244629,-1.5557210445404053,-0.36789360642433167
1761487080015720200,5.92072021484375,-0.9250026941299438,-2.6619980335235596,-1.4752395153045654
1761487080032532500,5.937532470703125,-0.5655084848403931,-1.7624989748001099,-1.9775235652923584
1761487080049371400,5.954371337890625,-0.06948592513799667,0.32070425152778625,-1.3040446043014526
1761487080066173200,5.971173095703125,0.3822489380836487,1.0899362564086914,-0.46303585171699524
1761487080083019300,5.988019287109375,0.6614143252372742,-0.42302417755126953,0.026572637259960175
1761487080099848200,6.00484814453125,0.5571091175079346,-2.6287059783935547,0.3721696436405182
1761487080116649000,6.02164892578125,0.04764748737215996,-3.213303804397583,0.04917465150356293
1761487080133480400,6.03848046875,-0.4889976382255554,-1.8069393634796143,-1.1771373748779297
1761487080150305000,6.055304931640625,-0.6736316680908203,0.11514809727668762,-2.610379934310913
1761487080167127300,6.072127197265625,-0.1875356286764145,1.0041097402572632,-3.2337679862976074
1761487080183958000,6.0889580078125,0.6614143252372742,0.10201449692249298,-2.599384307861328
1761487080200766500,6.105766357421875,1.073595643043518,-1.2823588848114014,-1.189049243927002
1761487080217595100,6.12259521484375,0.8523097038269043,-1.9914207458496094,0.4079052805900574
1761487080234429200,6.13942919921875,0.25305092334747314,-1.9315558671951294,1.7179057598114014
1761487080251255000,6.156255126953125,-0.24953845143318176,-1.4343116283416748,2.412001371383667
1761487080268082200,6.173082275390625,-0.5233588218688965,-0.88987797498703,2.5228734016418457
1761487080284890600,6.189890625,-0.6061310172080994,-0.7677049040794373,2.241264581680298
1761487080301717800,6.2067177734375,-0.6166684627532959,-1.0054842233657837,1.8278615474700928
1761487080318540800,6.223540771484375,-0.5826127529144287,-1.3254249095916748,1.4576772451400757
1761487080335381000,6.240381103515625,-0.5873469114303589,-1.2092077732086182,1.152855396270752
1761487080352202800,6.25720263671875,-0.674089789390564,-0.7929030656814575,0.855516791343689
1761487080369027800,6.27402783203125,-0.7738135457038879,-0.2200642079114914,0.6429356932640076
1761487080385853200,6.290853271484375,-0.8390234112739563,0.2047925740480423,0.6299547553062439
1761487080402691000,6.307691162109375,-0.8515461683273315,0.27488934993743896,0.7344127297401428
1761487080419515000,6.324514892578125,-0.8345946669578552,0.16691893339157104,0.801913321018219
1761487080436357600,6.341357666015625,-0.755182147026062,0.02779436856508255,0.7644978761672974
1761487080453190400,6.3581904296875,-0.6707300543785095,-0.05513058975338936,0.6913467645645142
1761487080469990400,6.374990478515625,-0.5969680547714233,0.04841107130050659,0.6294966340065002
1761487080486817300,6.3918173828125,-0.5763513445854187,0.37629300355911255,0.5711590051651001
1761487080503639300,6.408639404296875,-0.5482515692710876,0.6782131195068359,0.49525898694992065
1761487080520434200,6.42543408203125,-0.5577199459075928,0.669355571269989,0.4386012554168701
1761487080537289200,6.442289306640625,-0.6624833345413208,0.26740625500679016,0.3065016269683838
1761487080554097400,6.459097412109375,-0.917672336101532,-0.36942076683044434,-0.1511891484260559
1761487080570922200,6.475922119140625,-1.0636690855026245,-0.8219192028045654,-0.8565858006477356
1761487080587759600,6.492759521484375,-1.305266261100769,-0.6160575747489929,-1.4265230894088745
1761487080604594000,6.509593994140625,-1.435227870941162,0.07849618047475815,-1.8023579120635986
1761487080621396200,6.526396240234375,-1.242347240447998,1.0882564783096313,-2.189035654067993
1761487080638225000,6.543224853515625,-0.28069257736206055,-0.04199698567390442,-3.9961276054382324
1761487080655050500,6.560050537109375,0.5943718552589417,0.3263547718524933,-5.563608169555664
1761487080671874000,6.5768740234375,0.45814892649650574,2.054645299911499,-6.56069278717041
1761487080688699100,6.59369921875,0.18936823308467865,2.7820329666137695,-6.645144939422607
1761487080705524200,6.610524169921875,-0.0832303911447525,2.689028739929199,-5.835901260375977
1761487080722349600,6.627349609375,-0.7002043128013611,2.018756866455078,-4.399604320526123
1761487080739173400,6.64417333984375,-1.1873693466186523,0.6728680729866028,-1.887115478515625
1761487080755998500,6.66099853515625,-0.8139779567718506,-0.8222246170043945,1.109636664390564
1761487080772820500,6.677820556640625,-0.9097310900688171,-2.278069257736206,2.805093288421631
1761487080789637600,6.6946376953125,-1.7614299058914185,-3.5585954189300537,1.840842366218567
1761487080806472400,6.711472412109375,-2.1949915885925293,-2.841745138168335,-0.11850785464048386
1761487080823293400,6.72829345703125,-1.716989517211914,-1.1287262439727783,-1.554804801940918
1761487080840122600,6.74512255859375,-0.9109528064727783,0.057879481464624405,-2.3209824562072754
1761487080856948500,6.761948486328125,-0.12980885803699493,0.3689626157283783,-2.6057984828948975
1761487080873771500,6.778771484375,0.12140946835279465,0.3248275816440582,-2.503936529159546
1761487080890585300,6.79558544921875,-0.4534147381782532,0.13897185027599335,-2.1867449283599854
1761487080907435300,6.812435302734375,-1.0363328456878662,-0.22663100063800812,-1.6439911127090454
1761487080924261400,6.829261474609375,-0.9734137654304504,-0.512210488319397,-0.9877691268920898
1761487080941084700,6.846084716796875,-0.6508769392967224,-0.2768746614456177,-0.2272418737411499
1761487080957909500,6.862909423828125,-0.19349156320095062,0.2721404731273651,0.6139195561408997
1761487080974734800,6.87973486328125,0.294895201921463,0.5690209865570068,1.4285084009170532
1761487080991560200,6.896560302734375,0.759916365146637,0.4612032473087311,2.0981693267822266
1761487081008384300,6.91338427734375,1.153160810470581,-0.0507018156349659,2.5722007751464844
1761487081025209300,6.930209228515625,1.4104878902435303,-0.6704245805740356,2.9098565578460693
1761487081042030800,6.94703076171875,1.5732834339141846,-1.2316570281982422,3.2418618202209473
1761487081058844000,6.963843994140625,1.6161967515945435,-1.7024813890457153,3.4327571392059326
1761487081075662600,6.98066259765625,1.5861116647720337,-2.054645299911499,3.3927454948425293
1761487081092512300,6.99751220703125,1.50211763381958,-2.143373489379883,3.1441233158111572
1761487081109326800,7.014326904296875,1.3703234195709229,-2.3515257835388184,2.808300256729126
1761487081126148400,7.0311484375,1.277166485786438,-2.3544273376464844,2.390162944793701
1761487081142968800,7.04796875,1.2646437883377075,-2.2765419483184814,1.8487836122512817
1761487081159793400,7.06479345703125,1.3681854009628296,-2.107943296432495,1.2823588848114014
1761487081176618800,7.08161865234375,1.3300063610076904,-1.9028452634811401,0.7498371005058289
1761487081193444400,7.0984443359375,1.4274393320083618,-1.5073100328445435,0.3471241891384125
1761487081210268400,7.115268310546875,1.7032450437545776,-0.9149234294891357,0.026114489883184433
1761487081227092700,7.1320927734375,1.6383405923843384,-0.1059851199388504,-0.37659841775894165
1761487081243918000,7.14891796875,1.3868168592453003,0.5908594131469727,-0.7922922372817993
1761487081260761000,7.165760986328125,1.0351111888885498,1.1093312501907349,-1.0030407905578613
1761487081277577000,7.182576904296875,0.8426886200904846,1.5908458232879639,-0.6969972252845764
1761487081294407000,7.199406982421875,0.7295258045196533,1.9588921070098877,-0.6562219858169556
1761487081311203300,7.216203369140625,0.8080220222473145,2.143984317779541,-0.77472984790802
1761487081328042800,7.233042724609375,0.932485818862915,-0.0861319974064827,-0.8978192210197449
1761487081353279000,7.258279052734375,0.4862487316131592,-5.554750442504883,-0.8216137290000916
1761487081370103800,7.275103759765625,0.07971791177988052,-4.533230781555176,-1.3197743892669678
1761487081386928600,7.2919287109375,0.6346889734268188,-0.7371616363525391,-0.9758572578430176
1761487081403750000,7.30875,0.7029531598091125,2.132836103439331,1.7776178121566772
1761487081420581400,7.325581298828125,0.6609562039375305,2.3739750385284424,4.630511283874512
1761487081437400000,7.342400146484375,0.9335548281669617,1.200502872467041,4.935180187225342
1761487081454230500,7.35923046875,0.9917397499084473,0.128434419631958,3.952298164367676
1761487081471052500,7.376052490234375,0.6635523438453674,-0.2964223623275757,2.9881999492645264
1761487081487877400,7.39287744140625,0.4300491213798523,-0.22250767052173615,2.205528974533081
1761487081504719000,7.409718994140625,0.33292156457901,0.0354301854968071,1.7218763828277588
1761487081521540600,7.42654052734375,0.09376781433820724,0.2681698501110077,1.7970128059387207
1761487081538361300,7.443361328125,-0.23640485107898712,0.45402559638023376,2.1198551654815674
1761487081555194400,7.4601943359375,-0.3770565688610077,0.6368269920349121,2.3654229640960693
1761487081572014800,7.477014892578125,-0.3292563557624817,0.669355571269989,2.53722882270813
1761487081588823300,7.4938232421875,-0.24694228172302246,0.5407684445381165,2.5951082706451416
1761487081605660700,7.51066064453125,-0.18005253374576569,0.18096883594989777,2.4921774864196777
1761487081622476800,7.527476806640625,-0.21624629199504852,-0.23182335495948792,2.298074960708618
1761487081639300600,7.544300537109375,-0.36453384160995483,-0.47082439064979553,2.0616703033447266
1761487081656125400,7.56112548828125,-0.6640105247497559,-0.4011857509613037,1.680490255355835
1761487081672950300,7.5779501953125,-1.045495867729187,-0.1875356286764145,1.0897835493087769
1761487081689775000,7.594775146484375,-1.387274980545044,0.07895433157682419,0.39584067463874817
1761487081706600000,7.611599853515625,-1.4902057647705078,0.3724750876426697,-0.32039880752563477
1761487081723411500,7.628411376953125,-1.3823879957199097,0.5656611919403076,-0.9045386910438538
1761487081740249300,7.645249267578125,-1.1230757236480713,0.4430300295352936,-1.1609493494033813
1761487081757091600,7.662091552734375,-0.849255383014679,0.09712757170200348,-1.1368201971054077
1761487081773912800,7.678912841796875,-0.7113525867462158,-0.21288654208183289,-1.0399980545043945
1761487081790718000,7.695718017578125,-0.6401867866516113,-0.508087158203125,-0.9669997096061707
1761487081803356000,7.70835595703125,-0.5636758804321289,-0.6878342628479004,-0.8950703144073486
1761487081820181200,7.72518115234375,-0.4847215712070465,-0.6801984310150146,-0.8042041063308716
1761487081837026600,7.742026611328125,-0.375529408454895,-0.5241223573684692,-0.7128797173500061
1761487081853835300,7.758835205078125,-0.2620611786842346,-0.3404046595096588,-0.7422012686729431
1761487081870654500,7.775654541015625,-0.22540926933288574,-0.26083946228027344,-0.9419541954994202
1761487081887480000,7.79247998046875,-0.2600758671760559,-0.2499966025352478,-1.271515965461731
1761487081904264000,7.809263916015625,-0.29107728600502014,-0.21013765037059784,-1.666898488998413
1761487081921142500,7.826142578125,-0.31184670329093933,-0.19822576642036438,-2.1229095458984375
1761487081937948700,7.84294873046875,-0.20097467303276062,-0.10873401165008545,-2.7046058177948
1761487081954779400,7.859779296875,0.028099801391363144,0.4288274049758911,-3.221092462539673
1761487081971603500,7.876603515625,-0.031154127791523933,1.063821792602539,-3.1305315494537354
1761487081988409900,7.893409912109375,-0.5090034604072571,-0.3700316250324249,-2.864347219467163
1761487082005255200,7.910255126953125,-1.20859694480896,-3.882506847381592,-2.970790386199951
1761487082022079200,7.927079345703125,-1.7730363607406616,-6.1879119873046875,-4.1497602462768555
1761487082038902300,7.94390234375,-0.5958990454673767,-4.68319845199585,-5.473352432250977
1761487082055728000,7.96072802734375,0.8840747475624084,0.07192938029766083,-4.817741394042969
1761487082072548400,7.97754833984375,1.22279953956604,2.8043296337127686,-2.057241439819336
1761487082089346600,7.9943466796875,1.5086843967437744,2.2768476009368896,1.3724614381790161
1761487082106184400,8.011184326171875,1.4811954498291016,0.7626652717590332,3.7168095111846924
1761487082123013600,8.028013671875,1.028544306755066,-0.16035212576389313,3.6748125553131104
1761487082139838200,8.044838134765625,0.6210972666740417,0.13958270847797394,1.9995146989822388
1761487082156663300,8.061663330078124,0.2987131178379059,1.1789699792861938,0.5871942043304443
1761487082173487000,8.078487060546875,0.2886338233947754,2.027308940887451,0.26740625500679016
1761487082190302000,8.095302001953126,0.4245513379573822,2.4582743644714355,0.836885392665863
1761487082207136800,8.11213671875,0.361174076795578,2.65726375579834,1.804495930671692
1761487082223959800,8.128959716796874,0.19456058740615845,2.593581199645996,2.7623326778411865
1761487082240806400,8.145806396484375,0.25106561183929443,2.450485944747925,3.902665376663208
1761487082257617200,8.1626171875,0.4824308156967163,2.087631940841675,4.803538799285889
1761487082274449400,8.179449462890625,0.6623306274414062,1.397048830986023,5.174028396606445
1761487082291271700,8.196271728515624,0.850171685218811,0.4772384762763977,4.913952827453613
1761487082308098800,8.213098876953126,1.09024178981781,-0.7938193678855896,4.320802688598633
1761487082324896300,8.229896240234375,1.04289972782135,-1.3381003141403198,3.935957431793213
1761487082341753900,8.24675390625,0.5838344693183899,-1.7576119899749756,3.450777769088745
1761487082358579000,8.263578857421875,-0.2330450862646103,-1.902539849281311,2.7687466144561768
1761487082375398700,8.280398681640625,-1.1285735368728638,-1.5024230480194092,1.8703166246414185
1761487082392224800,8.297224853515624,-1.8596265316009521,-0.5804746747016907,0.8567385077476501
1761487082409048600,8.314048583984375,-2.2011001110076904,0.5119050741195679,-0.05009094998240471
1761487082425874000,8.3308740234375,-2.266768217086792,1.0778716802597046,-0.5978843569755554
1761487082442698000,8.347697998046876,-2.1424572467803955,0.8837692737579346,-0.8228355050086975
1761487082459523800,8.36452392578125,-2.0450241565704346,0.3721696436405182,-0.9330966472625732
1761487082476347600,8.38134765625,-1.9436204433441162,-0.033597588539123535,-1.0743592977523804
1761487082493156600,8.398156494140625,-1.8380935192108154,-0.19394971430301666,-1.2104294300079346
1761487082509997000,8.4149970703125,-1.9118554592132568,-0.6919575929641724,-1.4278974533081055
1761487082526822700,8.43182275390625,-2.270128011703491,-0.9396634697914124,-1.4085025787353516
1761487082543646700,8.448646728515625,-2.395660877227783,-1.2008084058761597,-1.2996158599853516
1761487082560472600,8.46547265625,-2.2014055252075195,-0.6536257863044739,-1.13926362991333
1761487082585684700,8.490684814453125,-1.1603385210037231,1.2919800281524658,-1.3161091804504395
1761487082602508000,8.507508056640624,-0.4219551682472229,1.890017032623291,-1.6736180782318115
1761487082619348500,8.524348388671875,0.1281289905309677,2.883283853530884,-1.6111570596694946
1761487082636170200,8.541170166015625,0.2444988191127777,0.5931501388549805,-0.9095783233642578
1761487082652995000,8.5579951171875,0.7148650288581848,-1.8646661043167114,-0.27519479393959045
1761487082669820200,8.574820068359376,1.0764973163604736,-2.3214406967163086,-0.3491095006465912
1761487082686641400,8.591641357421874,1.1435397863388062,-1.3361150026321411,-1.609171748161316
1761487082703472400,8.608472412109375,0.6293439269065857,-0.21273382008075714,-3.740327835083008
