time,seconds_elapsed,z,y,x
1761381154836829400,0.120829345703125,1.2915217876434326,-0.7249443531036377,0.3127630054950714
1761381154853673200,0.137673095703125,1.1620184183120728,-0.5684100985527039,0.2200642079114914
1761381154870490400,0.154490478515625,0.9592111706733704,-0.6010913848876953,0.013286318629980087
1761381154887325000,0.171324951171875,0.6363688707351685,-0.7214318513870239,-0.24037547409534454
1761381154904137000,0.188136962890625,0.25213462114334106,-0.5366451144218445,-0.375529408454895
1761381154920964000,0.204964111328125,0.10170906037092209,-0.09636399149894714,-0.34284812211990356
1761381154937803300,0.22180322265625,0.3219259977340698,0.056810468435287476,-0.30253100395202637
1761381154954630400,0.23863037109375,0.8906415104866028,-0.3116939961910248,-0.40026944875717163
1761381154971455700,0.255455810546875,1.1475104093551636,-1.1100949048995972,-0.7509061098098755
1761381154988283400,0.272283447265625,0.9891435503959656,-1.7964019775390625,-1.0125091075897217
1761381155005109000,0.28910888671875,0.6212499737739563,-1.4969252347946167,-1.0797042846679688
1761381155021936400,0.305936279296875,0.3813326358795166,-1.1808024644851685,-0.9697485566139221
1761381155038751500,0.32275146484375,0.327729195356369,-0.7539604306221008,-0.8266534209251404
1761381155055590400,0.33959033203125,0.2710714638233185,-0.5056437253952026,-0.764955997467041
1761381155072415000,0.3564150390625,0.21960605680942535,-0.4434881806373596,-0.6685920357704163
1761381155089241900,0.373241943359375,0.12950342893600464,-0.6656904220581055,-0.5943718552589417
1761381155106080500,0.39008056640625,-0.1915062516927719,-0.7956519722938538,-0.5723807215690613
1761381155122895600,0.4068955078125,-0.4456261992454529,-0.8008443117141724,-0.6721044778823853
1761381155139726800,0.423726806640625,-0.5158756971359253,-0.7391469478607178,-0.8458956480026245
1761381155156551000,0.440551025390625,-0.5546656250953674,-0.38117989897727966,-1.012050986289978
1761381155173372000,0.457371826171875,-0.4034765064716339,0.13775011897087097,-1.1640037298202515
1761381155190214100,0.474214111328125,-0.07116580009460449,0.49464812874794006,-1.4993687868118286
1761381155207021300,0.491021240234375,0.024587325751781464,0.7603744864463806,-1.6300939321517944
1761381155223853000,0.50785302734375,0.060475658625364304,0.9404270648956299,-1.4734070301055908
1761381155240692700,0.524692626953125,-0.13286319375038147,0.735634446144104,-1.1501065492630005
1761381155257510100,0.54151025390625,-0.3959933817386627,0.25534167885780334,-0.7802276611328125
1761381155274334000,0.558333984375,-0.5424483418464661,-0.2565633952617645,-0.3929390609264374
1761381155291161900,0.575161865234375,-0.6553056836128235,-0.43386703729629517,0.024129176512360573
1761381155307992800,0.591992919921875,-0.6351471543312073,-0.4482223689556122,0.13744467496871948
1761381155324819000,0.60881884765625,-0.437226802110672,-0.33689218759536743,0.04199698567390442
1761381155341638700,0.625638671875,-0.3836233615875244,-0.3761402666568756,-0.3188716471195221
1761381155358469400,0.642469482421875,-0.5067127346992493,-0.2889392673969269,-0.5687155723571777
1761381155375284500,0.659284423828125,-0.6319400668144226,0.14935655891895294,-0.3813326358795166
1761381155392112400,0.6761123046875,-0.6495024561882019,0.8188648819923401,0.168751522898674
1761381155408952000,0.6929521484375,-0.6455318331718445,1.2273809909820557,0.636521577835083
1761381155425783000,0.709782958984375,-0.6159048676490784,1.2113457918167114,0.6101016402244568
1761381155442590000,0.72658984375,-0.5586362481117249,0.660803496837616,0.3084869384765625
1761381155459427600,0.743427490234375,-0.3978259861469269,0.022602014243602753,0.46990808844566345
1761381155476255000,0.7602548828125,-0.22617286443710327,0.31230485439300537,1.386358618736267
1761381155493075500,0.777075439453125,-0.017867809161543846,1.5155566930770874,2.716670513153076
1761381155509914000,0.7939140625,0.3738495409488678,1.88558828830719,3.5601227283477783
1761381155526736000,0.81073583984375,0.6690501570701599,1.5642731189727783,4.235892295837402
1761381155543561000,0.82756103515625,0.717613935470581,1.0598511695861816,4.766275882720947
1761381155560396000,0.84439599609375,0.7828238010406494,0.5789475440979004,4.952437400817871
1761381155577207000,0.86120703125,0.8069530129432678,0.15546520054340363,4.792237758636475
1761381155594044000,0.8780439453125,0.688903272151947,-0.327729195356369,4.453665733337402
1761381155610868700,0.89486865234375,0.32620203495025635,-0.732122004032135,3.983910322189331
1761381155627693600,0.911693603515625,-0.36529740691185,-0.784503698348999,3.260493278503418
1761381155644510500,0.928510498046875,-0.9897544384002686,-0.5090034604072571,2.101987361907959
1761381155661347300,0.945347412109375,-1.3115277290344238,-0.17348572611808777,0.7067710757255554
1761381155678169600,0.962169677734375,-1.4569135904312134,0.2765692472457886,-0.44577890634536743
1761381155695009000,0.979009033203125,-1.4208725690841675,0.9263771176338196,-1.0340421199798584
1761381155711828500,0.995828369140625,-1.233642339706421,1.3107640743255615,-1.053742527961731
1761381155728652800,1.01265283203125,-0.965319812297821,1.1485793590545654,-0.7872526049613953
1761381155745483300,1.029483154296875,-0.6438519954681396,0.6009386777877808,-0.4434881806373596
1761381155762288000,1.0462880859375,-0.294895201921463,-0.017867809161543846,-0.16783522069454193
1761381155779137300,1.06313720703125,0.07666359096765518,-0.4291328489780426,-0.009926560334861279
1761381155795962000,1.079962158203125,0.41951170563697815,-0.579405665397644,0.044287730008363724
1761381155812776200,1.096776123046875,0.6522513628005981,-0.6133087277412415,-0.003054326167330146
1761381155829614600,1.113614501953125,0.7721336483955383,-0.6094908118247986,-0.13759739696979523
1761381155846440000,1.13043994140625,0.7525860071182251,-0.6348416805267334,-0.3338378667831421
1761381155863270000,1.147269775390625,0.617584764957428,-0.6815729141235352,-0.5623014569282532
1761381155880089900,1.16408984375,0.4001167416572571,-0.7816020846366882,-0.8011497855186462
1761381155896925200,1.18092529296875,0.11468994617462158,-0.8683449625968933,-1.0548115968704224
1761381155913750000,1.19775,0.019853120669722557,-0.769690215587616,-1.3063353300094604
1761381155930572500,1.214572509765625,0.021838432177901268,-0.5439754724502563,-1.5722143650054932
1761381155947396900,1.23139697265625,0.03191770985722542,-0.2880229651927948,-1.6516269445419312
1761381155964230100,1.248230224609375,0.003512475173920393,-0.06612616032361984,-1.6180293560028076
1761381155981043000,1.26504296875,-0.048105638474226,-0.04764748737215996,-1.603826642036438
1761381155997882000,1.281882080078125,0.056352317333221436,-0.10064005106687546,-1.6661349534988403
1761381156014710000,1.2987099609375,0.0887281745672226,-0.3550654351711273,-1.6815593242645264
1761381156031532300,1.3155322265625,0.13973543047904968,-0.36361753940582275,-1.556179165840149
1761381156048361500,1.332361572265625,0.18356500566005707,-0.5198463201522827,-1.4892895221710205
1761381156065187000,1.34918701171875,0.20372356474399567,-1.3593279123306274,-1.4086552858352661
1761381156082014000,1.366013916015625,0.3423899710178375,-3.151911973953247,-1.3148874044418335
1761381156098840800,1.3828408203125,0.10231992602348328,-4.189924716949463,-1.0236574411392212
1761381156115668000,1.39966796875,-0.28237244486808777,-3.7305541038513184,-0.6777549982070923
1761381156132483300,1.4164833984375,-0.47250425815582275,-2.090533494949341,-0.49205195903778076
1761381156149318400,1.433318359375,-0.4395175576210022,0.5022839307785034,0.27000242471694946
1761381156166150400,1.450150390625,-0.164170041680336,3.1416800022125244,1.7455474138259888
1761381156182974200,1.46697412109375,0.4202753007411957,3.638007879257202,2.986520290374756
1761381156199799300,1.48379931640625,0.7490735054016113,2.3941335678100586,3.9180896282196045
1761381156216626000,1.5006259765625,0.6114761233329773,0.8817839622497559,4.508338451385498
1761381156233452300,1.517452392578125,0.3010038435459137,-0.21380282938480377,4.630511283874512
1761381156250279000,1.53427880859375,-0.039248090237379074,-0.523511528968811,4.3397393226623535
1761381156267106600,1.5511064453125,-0.5259549617767334,-0.1771509200334549,3.6357171535491943
1761381156283935000,1.56793505859375,-1.1268936395645142,0.3930917978286743,2.6221389770507812
1761381156300759000,1.584759033203125,-1.5525140762329102,1.1853840351104736,1.5253305435180664
1761381156317584100,1.601584228515625,-1.6994271278381348,2.028836250305176,0.7950411438941956
1761381156334413800,1.618413818359375,-1.4314099550247192,2.4755313396453857,0.5294674634933472
1761381156351234600,1.635234619140625,-0.9231700897216797,2.2284364700317383,0.5612324476242065
1761381156368050700,1.65205078125,-0.38698312640190125,1.5137240886688232,0.6536257863044739
1761381156384886300,1.66888623046875,0.06582073122262955,0.5719226002693176,0.6653849482536316
1761381156401722600,1.68572265625,0.3631593883037567,-0.28619036078453064,0.49495357275009155
1761381156418547000,1.702546875,0.4925101101398468,-0.8049677014350891,0.19746218621730804
1761381156435372000,1.7193720703125,0.5001459121704102,-1.0225883722305298,-0.1661553531885147
1761381156452199400,1.736199462890625,0.42928555607795715,-0.9918924570083618,-0.5714644193649292
1761381156469028900,1.75302880859375,0.36163222789764404,-0.8843801617622375,-1.0436632633209229
1761381156485850600,1.7698505859375,0.3159700334072113,-0.8269588351249695,-1.4679092168807983
1761381156502680600,1.7866806640625,0.266184538602829,-0.7900014519691467,-1.733788251876831
1761381156519494100,1.803494140625,0.242513507604599,-0.7586946487426758,-1.8154915571212769
1761381156536332300,1.820332275390625,0.2509129047393799,-0.6514877676963806,-1.7405078411102295
1761381156553158100,1.837158203125,0.32498031854629517,-0.43997567892074585,-1.6247488260269165
1761381156569985000,1.853985107421875,0.493731826543808,-0.1621847152709961,-1.594205617904663
1761381156586813700,1.870813720703125,0.6875288486480713,-0.06582073122262955,-1.6284140348434448
1761381156603637800,1.8876376953125,0.7797694802284241,-0.11209376901388168,-1.5480852127075195
1761381156620464400,1.90446435546875,0.8289441466331482,-0.17928895354270935,-1.4086552858352661
1761381156637289200,1.921289306640625,0.917672336101532,-0.347276896238327,-1.350928544998169
1761381156654124800,1.938124755859375,1.2030991315841675,-0.7716755270957947,-1.1896600723266602
1761381156670945800,1.95494580078125,1.7143932580947876,-1.334587812423706,-0.5232060551643372
1761381156687771400,1.971771484375,1.6939293146133423,-1.5555683374404907,0.4502076804637909
1761381156704588500,1.988588623046875,1.4879150390625,-1.5906931161880493,0.7348709106445312
1761381156721425200,2.005425048828125,1.2779301404953003,-1.6702582836151123,0.7180721163749695
1761381156738249000,2.0222490234375,0.760832667350769,-1.6757560968399048,1.342987298965454
1761381156755081000,2.0390810546875,0.38866302371025085,-1.2759448289871216,1.650099754333496
1761381156771907300,2.0559072265625,0.021074850112199783,-0.09758572280406952,1.412473201751709
1761381156788733400,2.0727333984375,-0.4804455041885376,2.0702223777770996,0.9439395070075989
1761381156805559000,2.08955908203125,-0.5126686692237854,3.230408191680908,0.2064724564552307
1761381156822382000,2.106382080078125,-0.2871066629886627,2.651613235473633,-0.3591887652873993
1761381156839210000,2.1232099609375,-0.11621711403131485,1.0702359676361084,-0.2611449062824249
1761381156856039700,2.140039794921875,-0.05772676691412926,-0.12079860270023346,0.17562375962734222
1761381156872863000,2.156863037109375,-0.042760565876960754,-0.4008803069591522,0.48197266459465027
1761381156889689300,2.173689453125,-0.10293079167604446,-0.16401731967926025,0.6479753255844116
1761381156906519000,2.19051904296875,-0.266184538602829,0.07666359096765518,0.8100073337554932
1761381156923344100,2.20734423828125,-0.5496259927749634,0.42562034726142883,0.9001099467277527
1761381156940167000,2.2241669921875,-0.8834638595581055,1.2179125547409058,0.8069530129432678
1761381156957008000,2.2410078125,-1.1088731288909912,1.9801197052001953,0.43967026472091675
1761381156973809400,2.257809326171875,-1.0166324377059937,2.319302558898926,-0.1736384481191635
1761381156990653700,2.27465380859375,-0.7153232097625732,1.86497163772583,-0.869719386100769
1761381157007477500,2.2914775390625,-0.4960225820541382,0.8726209998130798,-1.3214542865753174
1761381157024303600,2.3083037109375,-0.3701843321323395,0.06811147183179855,-1.531133770942688
1761381157041132500,2.325132568359375,-0.2515237629413605,-0.3318525552749634,-1.6267341375350952
1761381157057956000,2.3419560546875,-0.09712757170200348,-0.3949243724346161,-1.5861116647720337
1761381157074788600,2.35878857421875,0.015271631069481373,-0.24572055041790009,-1.3881912231445312
1761381157091608600,2.375608642578125,0.12140946835279465,-0.009162978269159794,-1.1475104093551636
1761381157108437500,2.3924375,0.21273382008075714,0.03833179548382759,-1.017396092414856
1761381157125252400,2.40925244140625,0.266642689704895,-0.13301590085029602,-1.0387763977050781
1761381157142081000,2.4260810546875,0.28008171916007996,-0.3533855378627777,-1.195005178451538
1761381157158910700,2.44291064453125,0.24113905429840088,-0.50335294008255,-1.3996449708938599
1761381157175743000,2.459742919921875,0.15393804013729095,-0.5820018649101257,-1.5363260507583618
1761381157192572200,2.476572265625,0.02015855349600315,-0.49877145886421204,-1.5575536489486694
1761381157209396200,2.493396240234375,-0.1459967941045761,-0.244804248213768,-1.5430456399917603
1761381157226223900,2.510223876953125,-0.36010506749153137,0.09422596544027328,-1.544114589691162
1761381157243051300,2.52705126953125,-0.5485569834709167,0.23151792585849762,-1.5763378143310547
1761381157259876000,2.5438759765625,-0.6882924437522888,0.38759398460388184,-1.681712031364441
1761381157276704800,2.560704833984375,-0.7585419416427612,0.8518515825271606,-1.8374826908111572
1761381157293529600,2.577529541015625,-0.8530732989311218,0.9040805697441101,-1.9255999326705933
1761381157310352400,2.594352294921875,-0.8190175890922546,-0.09712757170200348,-1.9744691848754883
1761381157327187700,2.611187744140625,-0.6198754906654358,-1.9825631380081177,-1.5609134435653687
1761381157344011500,2.628011474609375,-1.1044443845748901,-3.2404873371124268,-0.6385068893432617
1761381157360835800,2.6448359375,-2.3890938758850098,-2.9304733276367188,-0.5978843569755554
1761381157377662700,2.661662841796875,-2.7013988494873047,-1.8351919651031494,-2.568382978439331
1761381157394484200,2.678484130859375,-2.051438093185425,0.8659014701843262,-3.8400516510009766
1761381157411315200,2.695315185546875,-1.1178834438323975,4.482376575469971,-2.5856399536132812
1761381157428152600,2.712152587890625,0.23365595936775208,5.684101104736328,-0.44135013222694397
1761381157444967200,2.72896728515625,0.9886853694915771,3.94466233253479,1.2328788042068481
1761381157461788400,2.745788330078125,1.064738154411316,1.2006556987762451,2.5411994457244873
1761381157478633700,2.7626337890625,1.1513283252716064,-0.8148942589759827,3.2843170166015625
1761381157495449300,2.779449462890625,1.0908526182174683,-1.335504174232483,3.269656181335449
1761381157512256500,2.796256591796875,0.8613200187683105,-0.8135197758674622,2.7459919452667236
1761381157529104400,2.8131044921875,0.5838344693183899,-0.11285735666751862,2.135279417037964
1761381157545930800,2.8299306640625,0.2987131178379059,0.19746218621730804,1.6329954862594604
1761381157562758000,2.8467578125,0.03573561832308769,0.23197607696056366,1.1965322494506836
1761381157579582500,2.86358251953125,-0.15531249344348907,0.33108896017074585,0.6985244154930115
1761381157596410400,2.880410400390625,-0.17470745742321014,0.47051894664764404,0.32757648825645447
1761381157613237500,2.897237548828125,-0.07971791177988052,0.4105014503002167,0.12171489745378494
1761381157630049000,2.914049072265625,-0.015882495790719986,0.11667526513338089,0.02626720629632473
1761381157646904800,2.93090478515625,0.0019853119738399982,-0.1417207419872284,0.023365596309304237
1761381157663720200,2.94772021484375,-0.007024950347840786,-0.2151772826910019,0.0032070425804704428
1761381157680541400,2.96454150390625,0.006108652334660292,-0.15241087973117828,-0.02871066704392433
1761381157697368300,2.981368408203125,0.006108652334660292,-0.11850785464048386,-0.059406645596027374
1761381157714195000,2.99819482421875,0.01618792861700058,-0.0959058403968811,-0.13240504264831543
1761381157731023600,3.015023681640625,0.056352317333221436,-0.059406645596027374,-0.26404649019241333
1761381157747847700,3.03184765625,0.030695978552103043,-0.09117163717746735,-0.40683624148368835
1761381157764676400,3.04867626953125,-0.057879481464624405,-0.2151772826910019,-0.5109887719154358
1761381157781501400,3.06550146484375,-0.166460782289505,-0.43050727248191833,-0.5619960427284241
1761381157798328800,3.082328857421875,-0.25702154636383057,-0.7014260292053223,-0.5923865437507629
1761381157815147300,3.099147216796875,-0.31154128909111023,-0.9178250432014465,-0.6470590233802795
1761381157831966200,3.11596630859375,-0.30344730615615845,-1.0267117023468018,-0.7005097270011902
1761381157848808400,3.132808349609375,-0.25305092334747314,-1.034500241279602,-0.6863071322441101
1761381157865636400,3.14963623046875,-0.24404066801071167,-0.9476047158241272,-0.6046038866043091
1761381157882461000,3.1664609375,-0.3010038435459137,-0.737772524356842,-0.5424483418464661
1761381157899286800,3.183286865234375,-0.36193767189979553,-0.4943426847457886,-0.5241223573684692
1761381157916116500,3.200116455078125,-0.34116822481155396,-0.08170322328805923,-0.4758640229701996
1761381157932930600,3.2169306640625,-0.15515977144241333,-0.30024027824401855,-0.8272642493247986
1761381157949770000,3.23377001953125,-0.3045163154602051,-2.0196731090545654,-1.856266736984253
1761381157966594600,3.250594482421875,-1.3322970867156982,-3.327383041381836,-2.668259382247925
1761381157983421000,3.2674208984375,-2.353358268737793,-1.7675385475158691,-2.8380799293518066
1761381158000248800,3.284248779296875,-1.8229745626449585,0.9668469429016113,-3.6829066276550293
1761381158017079600,3.30107958984375,-0.35246923565864563,3.1227431297302246,-3.9800925254821777
1761381158033900300,3.317900390625,0.6751587986946106,3.866166114807129,-1.6311628818511963
1761381158050727000,3.334726806640625,1.429577350616455,2.9666671752929688,1.7837265729904175
1761381158067558100,3.35155810546875,1.9372063875198364,0.731511116027832,3.528968572616577
1761381158084379100,3.368379150390625,2.183537721633911,-0.6180428862571716,3.4581081867218018
1761381158101204200,3.385204345703125,1.980577826499939,-0.8645270466804504,2.540435791015625
1761381158118035700,3.40203564453125,1.4579826593399048,-0.5703954100608826,1.6279559135437012
1761381158134865400,3.418865478515625,0.9112582206726074,-0.03145955875515938,0.9598219990730286
1761381158151683300,3.435683349609375,0.49006664752960205,0.28206703066825867,0.6307183504104614
1761381158168515000,3.45251513671875,0.24358251690864563,0.19883663952350616,0.5751296281814575
1761381158185340200,3.469340087890625,0.08155050873756409,0.08460483700037003,0.6392704844474792
1761381158202166800,3.486166748046875,0.022907447069883347,0.1420261710882187,0.6702718734741211
1761381158218999300,3.502999267578125,0.1085812970995903,0.4537201523780823,0.6472117304801941
1761381158235821000,3.519821044921875,0.2483167201280594,0.8210029006004333,0.7044803500175476
1761381158252645400,3.536645263671875,0.2785545587539673,0.8955284357070923,0.988074541091919
1761381158269473800,3.553473876953125,0.18005253374576569,0.6316346526145935,1.3413074016571045
1761381158286300400,3.570300537109375,0.051770828664302826,0.3355177342891693,1.4827226400375366
1761381158303129900,3.5871298828125,-0.08506298810243607,0.21303924918174744,1.3084733486175537
1761381158319952000,3.603951904296875,-0.09529497474431992,0.1797471046447754,0.9488264322280884
1761381158336782300,3.6207822265625,0.010079276748001575,0.26022860407829285,0.5540547966957092
1761381158353605400,3.63760546875,0.09712757170200348,0.25014930963516235,0.21319197118282318
1761381158370441000,3.65444091796875,0.003359758760780096,0.05192354694008827,-0.010231993161141872
1761381158387251000,3.6712509765625,-0.19853121042251587,-0.4050036668777466,-0.07528914511203766
1761381158404087600,3.688087646484375,-0.24678955972194672,-0.9807441234588623,-0.09147707372903824
1761381158420900600,3.704900634765625,-0.09529497474431992,-1.3116804361343384,-0.1820378452539444
1761381158437738000,3.721738037109375,0.17287486791610718,-1.2744176387786865,-0.32681289315223694
1761381158454548000,3.7385478515625,0.3556762933731079,-1.0375546216964722,-0.46990808844566345
1761381158471392500,3.755392578125,0.24663683772087097,-1.0448850393295288,-0.5593998432159424
1761381158488219600,3.7722197265625,-0.02275473065674305,-1.1965322494506836,-0.5476406812667847
1761381158505044200,3.789044189453125,-0.27122417092323303,-1.2747230529785156,-0.6235406994819641
1761381158521874700,3.805874755859375,-0.3773620128631592,-1.0115928649902344,-0.9193521738052368
1761381158538701300,3.822701416015625,-0.327729195356369,-0.45555275678634644,-1.3507757186889648
1761381158555526700,3.839526611328125,-0.14385876059532166,-0.1108720451593399,-1.6814066171646118
1761381158572351200,3.856351318359375,-0.030543262138962746,-1.2597568035125732,-1.5331190824508667
1761381158589178400,3.873178466796875,0.06505715101957321,-3.92267107963562,-0.8904888033866882
1761381158606006800,3.8900068359375,0.0913243517279625,-5.890573501586914,-0.6340781450271606
1761381158622831400,3.906831298828125,-0.4369213581085205,-4.032016277313232,-1.2409727573394775
1761381158639669800,3.923669677734375,-1.0395399332046509,0.3017674386501312,-2.258521556854248
1761381158656486000,3.94048583984375,-0.6356052756309509,1.871691107749939,-3.057227849960327
1761381158673312300,3.957312255859375,-0.21242839097976685,0.9841039180755615,-2.1087067127227783
1761381158690140200,3.97414013671875,0.06490442901849747,1.4017829895019531,0.13775011897087097
1761381158706965500,3.990965576171875,0.7192938327789307,2.205070734024048,1.673465371131897
1761381158723792100,4.007792236328125,1.2713632583618164,1.8350391387939453,2.3570234775543213
1761381158740617500,4.024617431640625,1.2264647483825684,1.0528262853622437,2.8988609313964844
1761381158757445000,4.041445068359375,0.7780895829200745,0.868803083896637,3.070819616317749
1761381158774270700,4.058270751953125,0.2952006161212921,1.1797335147857666,2.5644123554229736
1761381158791097600,4.07509765625,-0.08185594528913498,1.677894115447998,1.7592918872833252
1761381158807926500,4.091926513671875,-0.33505958318710327,2.0897700786590576,1.2026410102844238
1761381158824757200,4.10875732421875,-0.45005497336387634,2.230421781539917,1.1513283252716064
1761381158841577000,4.125576904296875,-0.44028112292289734,2.085952043533325,1.340238332748413
1761381158858404400,4.142404296875,-0.39446622133255005,1.7837265729904175,1.4205671548843384
1761381158875232800,4.159232666015625,-0.43936482071876526,1.4043792486190796,1.26067316532135
1761381158892051000,4.176051025390625,-0.5618433356285095,0.956156849861145,0.8614727258682251
1761381158908871400,4.192871337890625,-0.6940956115722656,0.6575964093208313,0.3474296033382416
1761381158925698600,4.209698486328125,-0.7620543837547302,0.5019785165786743,-0.11301007121801376
1761381158942537700,4.226537841796875,-0.7817547917366028,0.5433646440505981,-0.31871894001960754
1761381158959363000,4.243363037109375,-0.7835873961448669,0.6569855809211731,-0.303600013256073
1761381158976188200,4.260188232421875,-0.740368664264679,0.6291912198066711,-0.19975294172763824
1761381158993005000,4.277005126953125,-0.6869179606437683,0.3517056703567505,-0.1394299864768982
1761381159009847000,4.293846923828125,-0.646906316280365,-0.0708603709936142,-0.18585574626922607
1761381159026671000,4.310671142578125,-0.593913733959198,-0.4395175576210022,-0.2816088795661926
1761381159043496700,4.32749658203125,-0.5650503635406494,-0.735634446144104,-0.34758231043815613
1761381159060322600,4.344322509765625,-0.542142927646637,-0.859029233455658,-0.3680463135242462
1761381159077151500,4.3611513671875,-0.4983133375644684,-0.8315402865409851,-0.3914119005203247
1761381159093977000,4.37797705078125,-0.4369213581085205,-0.6583600044250488,-0.4567744731903076
1761381159110815700,4.394815673828125,-0.39584067463874817,-0.361174076795578,-0.6000223755836487
1761381159127630000,4.411630126953125,-0.4069889783859253,-0.11942415684461594,-0.7745771408081055
1761381159144454100,4.4284541015625,-0.46593746542930603,-0.034666601568460464,-0.9208793640136719
1761381159161285600,4.44528564453125,-0.52702397108078,-0.033139441162347794,-1.0639744997024536
1761381159178110700,4.46211083984375,-0.4492913782596588,0.1270599663257599,-1.2231049537658691
1761381159194936800,4.478936767578125,-0.03695734590291977,0.38347065448760986,-1.3119858503341675
1761381159211766800,4.495766845703125,0.4395175576210022,0.3471241891384125,-1.3393220901489258
1761381159228592000,4.512592041015625,0.5795583724975586,-0.9266825914382935,-1.516931176185608
1761381159245415200,4.529415283203125,0.1966986060142517,-3.14320707321167,-1.412778615951538
1761381159262241500,4.546241455078125,-0.17791450023651123,-4.356690883636475,-1.0207557678222656
1761381159279080400,4.56308056640625,-0.15485434234142303,-3.355177402496338,-0.9532552361488342
1761381159295896000,4.57989599609375,0.289702832698822,-2.007761240005493,-1.927890658378601
1761381159312725500,4.5967255859375,0.5467243790626526,-0.7929030656814575,-2.3803892135620117
1761381159329550800,4.61355078125,0.8576548099517822,1.6488779783248901,-0.921184778213501
1761381159346376700,4.630376708984375,1.3859004974365234,3.3402111530303955,0.8110763430595398
1761381159363202000,4.6472021484375,1.6600263118743896,2.5503623485565186,1.5175420045852661
1761381159380031200,4.66403125,1.441641926765442,0.7754934430122375,1.5835154056549072
1761381159396853800,4.680853759765625,0.979827880859375,-0.16508632898330688,1.2243266105651855
1761381159413685200,4.697685302734375,0.4830417037010193,-0.021074850112199783,0.5241223573684692
1761381159430510600,4.714510498046875,0.12110403180122375,0.7108944058418274,-0.09346238523721695
1761381159447330600,4.73133056640625,-0.09346238523721695,1.3849842548370361,-0.4207334518432617
1761381159464163800,4.748163818359375,-0.13515393435955048,1.7165313959121704,-0.3880521357059479
1761381159480991200,4.7649912109375,0.024892758578062057,1.7486017942428589,-0.06536258012056351
1761381159497806300,4.781806396484375,0.22861631214618683,1.5851953029632568,0.46303585171699524
1761381159514640400,4.798640380859375,0.3865249752998352,1.2666290998458862,0.9219483733177185
1761381159531467300,4.81546728515625,0.5726861953735352,0.7400632500648499,1.140179991722107
1761381159548296200,4.832296142578125,0.6843217611312866,0.2626720666885376,1.1577423810958862
1761381159565124400,4.849124267578125,0.7638869881629944,0.1359175145626068,1.2128729820251465
1761381159581947600,4.86594775390625,0.7962628602981567,0.3061962127685547,1.3759739398956299
1761381159598782200,4.8827822265625,0.7426594495773315,0.4024074673652649,1.4879150390625
1761381159615603000,4.89960302734375,0.6369797587394714,0.21762074530124664,1.4552336931228638
1761381159632427500,4.916427490234375,0.5342016816139221,-0.10644327104091644,1.2646437883377075
1761381159649243600,4.93324365234375,0.4554000496864319,-0.3205515444278717,0.9243918061256409
1761381159666080800,4.950080810546875,0.4277583956718445,-0.37537670135498047,0.48059824109077454
1761381159682908700,4.96690869140625,0.34987306594848633,-0.3188716471195221,0.06780604273080826
1761381159699734500,4.983734619140625,0.18539759516716003,-0.3066543638706207,-0.20341812074184418
1761381159716559600,5.0005595703125,-0.030543262138962746,-0.4683809280395508,-0.29825496673583984
1761381159733389600,5.0173896484375,-0.1823432743549347,-0.6982190012931824,-0.3211624026298523
1761381159750215000,5.03421484375,-0.15393804013729095,-0.8390234112739563,-0.42149701714515686
1761381159767040500,5.05104052734375,0.006719517521560192,-0.7582364678382874,-0.6027712821960449
1761381159783853600,5.067853515625,0.11056660860776901,-0.5659666657447815,-0.7605272531509399
1761381159800696000,5.084696044921875,0.06276640295982361,-0.4082106947898865,-0.7840455174446106
1761381159817522400,5.1015224609375,-0.06017022579908371,-0.2301434874534607,-0.7017314434051514
1761381159834346000,5.118345947265625,0.027947084978222847,-0.4911356568336487,-0.8568912148475647
1761381159851172900,5.1351728515625,0.3926336467266083,-2.052354574203491,-1.4550809860229492
1761381159868002600,5.15200244140625,0.6163630485534668,-4.393648147583008,-1.7663168907165527
1761381159884829700,5.16882958984375,0.4101960062980652,-5.516724109649658,-1.4216361045837402
1761381159901652000,5.18565185546875,-0.403323769569397,-4.165031909942627,-1.647045373916626
1761381159918480100,5.202480224609375,-0.7060074806213379,-2.3188445568084717,-3.3125696182250977
1761381159935308000,5.21930810546875,-0.5873469114303589,-1.4674509763717651,-4.112192153930664
1761381159952136200,5.23613623046875,-0.5839871764183044,-0.612850546836853,-2.4865269660949707
1761381159968957200,5.252957275390625,-0.3271183371543884,1.2887729406356812,-0.36163222789764404
1761381159985791000,5.269791015625,0.2612976133823395,2.5248587131500244,0.7087563872337341
1761381160002600400,5.286600341796875,0.6243042945861816,1.685835361480713,1.3170254230499268
1761381160019439600,5.303439697265625,0.49464812874794006,0.4415028691291809,1.9326249361038208
1761381160036266800,5.320266845703125,0.28069257736206055,-0.12431107461452484,1.9671387672424316
1761381160053087700,5.337087646484375,0.0884227454662323,-0.0024434609804302454,1.711338996887207
1761381160069919000,5.3539189453125,-0.11652254313230515,0.28130343556404114,1.792125940322876
1761381160086747100,5.3707470703125,-0.3507893681526184,0.5539020895957947,2.253481864929199
1761381160103573000,5.387572998046875,-0.5377141237258911,0.579405665397644,2.6513078212738037
1761381160120396000,5.40439599609375,-0.5710062980651855,0.5778785347938538,2.629163980484009
1761381160137227500,5.4212275390625,-0.508087158203125,0.7333437204360962,2.146427869796753
1761381160154051000,5.438051025390625,-0.3572034537792206,0.8764389157295227,1.5714508295059204
1761381160170876700,5.454876708984375,-0.2583959996700287,0.9169087409973145,1.2796099185943604
1761381160187708000,5.4717080078125,-0.2915354371070862,0.7764097452163696,1.2808316946029663
1761381160204533000,5.488532958984375,-0.30344730615615845,0.4763221740722656,1.2030991315841675
1761381160221359000,5.505359130859375,-0.3127630054950714,0.12064588814973831,0.8191702961921692
1761381160238185500,5.522185546875,-0.30115658044815063,-0.0757472887635231,0.22403483092784882
1761381160255013600,5.539013671875,-0.2525927722454071,-0.04001167416572571,-0.36819902062416077
1761381160271838200,5.555838134765625,-0.1514945775270462,0.13225232064723969,-0.8633053302764893
1761381160288666400,5.572666259765625,-0.015577063895761967,0.12263119965791702,-1.2037099599838257
1761381160305492500,5.589492431640625,0.06658431142568588,-0.12232576310634613,-1.2450960874557495
1761381160322317800,5.60631787109375,0.09498954564332962,-0.5433646440505981,-1.0309878587722778
1761381160339143700,5.623143798828125,0.06811147183179855,-0.9604328870773315,-0.7194465398788452
1761381160355973400,5.639973388671875,0,-1.1820242404937744,-0.4847215712070465
1761381160372798000,5.6567978515625,-0.07513642311096191,-1.0810787677764893,-0.42699480056762695
1761381160389626400,5.67362646484375,-0.08597928285598755,-0.5934556126594543,-0.6102544069290161
1761381160406452000,5.690451904296875,-0.058795779943466187,-0.09056077152490616,-0.9158397316932678
1761381160423281200,5.70728125,-0.042760565876960754,0.36713001132011414,-1.130711555480957
1761381160440104000,5.72410400390625,0.14905111491680145,0.6914994716644287,-1.2919800281524658
1761381160456934400,5.740934326171875,0.19792033731937408,0.554818332195282,-1.5066990852355957
1761381160473759200,5.75775927734375,-0.016798794269561768,-0.4723515510559082,-1.6768250465393066
1761381160490563600,5.7745634765625,-0.21410827338695526,-1.8970420360565186,-1.6329954862594604
1761381160507411000,5.791410888671875,-0.4352414906024933,-2.2925772666931152,-1.423926830291748
1761381160524236800,5.80823681640625,-0.6172793507575989,-1.2090550661087036,-1.3842206001281738
1761381160541051400,5.825051513671875,-0.44028112292289734,0.14095716178417206,-1.6180293560028076
1761381160557891600,5.8418916015625,-0.014355333521962166,1.3391693830490112,-1.0317513942718506
1761381160574722800,5.858722900390625,0.36224308609962463,2.8912250995635986,0.5804746747016907
1761381160591543000,5.87554296875,0.9547823667526245,3.7560577392578125,1.9398025274276733
1761381160608370400,5.892370361328125,1.3938417434692383,2.699566125869751,2.4411702156066895
1761381160625198600,5.909198486328125,1.4567608833312988,1.1047497987747192,2.6364943981170654
1761381160642024000,5.92602392578125,1.3400856256484985,0.03481931984424591,2.50103497505188
1761381160658848800,5.942848876953125,1.0705413818359375,-0.3949243724346161,1.983632206916809
1761381160675678500,5.959678466796875,0.6722571849822998,-0.2698497176170349,1.3529138565063477
1761381160692504000,5.976504150390625,0.24144448339939117,0.08659014850854874,0.8436049222946167
1761381160709328400,5.993328369140625,-0.182648703455925,0.24908030033111572,0.45433104038238525
1761381160726155800,6.01015576171875,-0.50335294008255,0.4184426963329315,0.1823432743549347
1761381160742985000,6.02698486328125,-0.6530149579048157,1.018770456314087,0.12568552792072296
1761381160759809500,6.0438095703125,-0.5940664410591125,1.8901697397232056,0.35475999116897583
1761381160776637000,6.060636962890625,-0.29138273000717163,2.4463624954223633,0.7611380815505981
1761381160793462300,6.077462158203125,0.11728613078594208,2.2899811267852783,1.2148582935333252
1761381160810288000,6.0942880859375,0.41630467772483826,1.4117095470428467,1.6250542402267456
1761381160827119600,6.11111962890625,0.5239696502685547,0.17470745742321014,1.8110626935958862
1761381160843942100,6.127942138671875,0.4905247986316681,-0.6591235995292664,1.7441730499267578
1761381160860771600,6.144771484375,0.42531493306159973,-0.9502009153366089,1.4899003505706787
1761381160877595600,6.161595703125,0.33536502718925476,-0.8804095387458801,1.2006556987762451
1761381160894423000,6.178423095703125,0.27229318022727966,-0.7301366925239563,0.9728028774261475
1761381160911248100,6.195248046875,0.18249599635601044,-0.5600107312202454,0.7154759168624878
1761381160928079000,6.2120791015625,0.004581489134579897,-0.4642575979232788,0.361174076795578
1761381160944891100,6.22889111328125,-0.2451096773147583,-0.4427245855331421,-0.03527746722102165
1761381160961730800,6.245730712890625,-0.45921793580055237,-0.640644907951355,-0.3839288055896759
1761381160978556400,6.262556396484375,-0.49586987495422363,-0.9265298843383789,-0.6194173693656921
1761381160995378700,6.279378662109375,-0.4236350357532501,-1.0589349269866943,-0.7434229850769043
1761381161012208000,6.2962080078125,-0.28619036078453064,-1.040150761604309,-0.7666358947753906
1761381161029030400,6.313030517578125,-0.12018773704767227,-0.9993755221366882,-0.7281513810157776
1761381161045859300,6.329859375,-0.01466076634824276,-1.0160216093063354,-0.627358615398407
1761381161062690300,6.346690185546875,-0.018936822190880775,-1.002277135848999,-0.5395467281341553
1761381161079514400,6.363514404296875,-0.007941247895359993,-0.9393580555915833,-0.607200026512146
1761381161096307700,6.3803076171875,0.22128593921661377,-1.0994046926498413,-1.1771373748779297
1761381161113167600,6.397167724609375,0.8323038816452026,-1.7910568714141846,-2.3738224506378174
1761381161130002200,6.414002197265625,1.3826935291290283,-3.4629950523376465,-3.361133337020874
1761381161146825500,6.430825439453125,1.1385000944137573,-4.743674278259277,-3.271336078643799
1761381161163647200,6.447647216796875,0.43615779280662537,-3.944204092025757,-2.89229416847229
1761381161180473600,6.4644736328125,-0.016340645030140877,-1.1249083280563354,-3.24094557762146
1761381161197301000,6.481301025390625,-0.04932736977934837,2.3651175498962402,-3.45871901512146
1761381161214130400,6.49813037109375,0.22586742043495178,4.84248161315918,-2.1177170276641846
1761381161230952200,6.5149521484375,0.7623597979545593,5.196477890014648,-0.09468411654233932
1761381161247784200,6.5317841796875,1.28128981590271,3.2571334838867188,1.2873984575271606
1761381161264607700,6.548607666015625,1.5244141817092896,1.0147998332977295,1.9607247114181519
1761381161281432800,6.565432861328125,1.4298827648162842,-0.3072652220726013,2.1198551654815674
1761381161298261500,6.582261474609375,0.9669997096061707,-0.8170322775840759,1.6339118480682373
1761381161315082000,6.59908203125,0.2321287989616394,-0.7082982659339905,0.6183483600616455
1761381161331913200,6.615913330078125,-0.6348416805267334,-0.14385876059532166,-0.2929098904132843
1761381161348739000,6.632739013671875,-1.3903292417526245,0.4928155243396759,-0.7925976514816284
1761381161365569000,6.649569091796875,-1.804801344871521,0.9647089242935181,-0.9992228150367737
1761381161382392000,6.66639208984375,-1.821752905845642,1.3561208248138428,-1.049924612045288
1761381161399219500,6.683219482421875,-1.6010777950286865,1.5992451906204224,-0.8616254329681396
1761381161416047400,6.70004736328125,-1.3367258310317993,1.476613998413086,-0.4488332271575928
1761381161432872200,6.7168720703125,-1.067945122718811,1.1504119634628296,0.015577063895761967
1761381161449703000,6.733702880859375,-0.7680103182792664,0.7478517889976501,0.394008070230484
1761381161466527200,6.75052734375,-0.4841107130050659,0.4697553813457489,0.7318165898323059
1761381161483351600,6.7673515625,-0.23029619455337524,0.4660901725292206,1.1496484279632568
1761381161500179200,6.78417919921875,-0.1137736514210701,0.504574716091156,1.559233546257019
1761381161517008000,6.8010078125,-0.13820825517177582,0.44364088773727417,1.7759380340576172
1761381161533832200,6.817832275390625,-0.2454151064157486,0.2646573781967163,1.6727017164230347
1761381161550658000,6.834657958984375,-0.3136793076992035,-0.02672535367310047,1.2863295078277588
1761381161567486700,6.85148681640625,-0.26969701051712036,-0.36651915311813354,0.7104362845420837
1761381161584311800,6.868311767578125,-0.14233160018920898,-0.6927211880683899,0.26022860407829285
1761381161601126700,6.885126708984375,-0.02168571576476097,-1.0841331481933594,0.15622878074645996
1761381161617965600,6.901965576171875,0.06490442901849747,-1.6617062091827393,0.42180246114730835
1761381161634814700,6.918814697265625,0.16065755486488342,-2.1279489994049072,0.7954992651939392
1761381161651616500,6.935616455078125,0.26679539680480957,-1.9964603185653687,0.8349000811576843
1761381161668445200,6.952445068359375,0.4210388660430908,-1.4046846628189087,0.5074763298034668
1761381161685272000,6.96927197265625,0.7211264371871948,-0.835969090461731,-0.12140946835279465
1761381161702099700,6.986099609375,0.8151996731758118,-0.9282097220420837,-1.2272282838821411
1761381161718925800,7.00292578125,0.3214678466320038,-2.450485944747925,-2.39214825630188
1761381161735736800,7.01973681640625,-0.7849618196487427,-4.215580940246582,-3.4043519496917725
1761381161752578800,7.036578857421875,-1.6125315427780151,-4.032932281494141,-5.0176472663879395
1761381161769404700,7.05340478515625,-1.4669928550720215,-0.9750936627388,-6.419888496398926
1761381161786231800,7.070231689453125,-1.0241155624389648,2.351067543029785,-6.027865409851074
1761381161803051300,7.08705126953125,-0.46441030502319336,3.4049627780914307,-3.83882999420166
1761381161819883000,7.103883056640625,1.1204795837402344,3.282789945602417,-1.1317806243896484
1761381161836714800,7.12071484375,3.02622652053833,2.183537721633911,1.4228578805923462
1761381161853536800,7.137536865234375,3.9153409004211426,0.3404046595096588,3.525608777999878
1761381161870374000,7.154373779296875,3.849061965942383,-0.9746354818344116,4.759556770324707
1761381161887191000,7.17119091796875,3.515071392059326,-0.7463245987892151,5.303684711456299
1761381161904018400,7.188018310546875,2.9491047859191895,0.08368854224681854,5.409364223480225
1761381161920842800,7.2048427734375,2.0508272647857666,0.7808384895324707,4.963738441467285
1761381161937670400,7.22167041015625,0.7464773058891296,1.0806206464767456,3.9428296089172363
1761381161954498300,7.238498291015625,-0.4095851480960846,1.4984524250030518,2.3800837993621826
1761381161971323400,7.255323486328125,-1.1481212377548218,2.213164806365967,0.7429648637771606
1761381161988150000,7.27214990234375,-1.342529058456421,2.8076894283294678,-0.3318525552749634
1761381162004975600,7.2889755859375,-1.116814374923706,2.867554187774658,-0.6760751008987427
1761381162021790500,7.30579052734375,-0.8460483551025391,2.3658812046051025,-0.4173736870288849
1761381162038617900,7.322617919921875,-0.6293439269065857,1.7730363607406616,0.3032945990562439
1761381162055461000,7.339461181640625,-0.22189679741859436,1.545030951499939,0.9873109459877014
1761381162072281600,7.356281494140625,0.24877487123012543,1.2499829530715942,1.4130840301513672
1761381162089111600,7.373111572265625,0.5656611919403076,0.7916813492774963,1.5661057233810425
1761381162105940500,7.3899404296875,0.6861543655395508,0.46043968200683594,1.4048373699188232
1761381162122762500,7.406762451171875,0.5893322229385376,0.3597996234893799,0.9648616313934326
1761381162139587800,7.423587890625,0.35903605818748474,0.21930062770843506,0.4512766897678375
1761381162156416300,7.440416259765625,0.12064588814973831,0.02382374368607998,0.020463986322283745
1761381162173246000,7.457245849609375,0.02076941914856434,-0.16661348938941956,-0.3478877544403076
1761381162198485500,7.482485595703125,-0.02474004216492176,-0.5600107312202454,-0.5975789427757263
1761381162215287800,7.499287841796875,-0.05619960278272629,-0.8087855577468872,-0.5380195379257202
1761381162232136400,7.516136474609375,-0.13209961354732513,-0.8665123581886292,-0.6478226184844971
1761381162248963000,7.532963134765625,-0.33368512988090515,-0.7791585922241211,-1.1264355182647705
1761381162265776000,7.549776123046875,-0.5566509366035461,-0.6137668490409851,-1.760208249092102
1761381162282613200,7.56661328125,-0.6966918110847473,-0.394618958234787,-2.261270523071289
1761381162299440400,7.5834404296875,-0.7684684991836548,-0.44165557622909546,-2.45369291305542
1761381162316255700,7.600255859375,-0.769690215587616,-0.7374670505523682,-2.2763893604278564
1761381162333091800,7.617091796875,-0.6650795340538025,-1.1217013597488403,-2.0224220752716064
1761381162349924400,7.63392431640625,-0.2952006161212921,-1.3396275043487549,-1.9408715963363647
1761381162366748700,7.650748779296875,-0.0754418596625328,-1.6410894393920898,-1.9260581731796265
1761381162383573000,7.667572998046875,-0.1976149082183838,-3.0469958782196045,-2.0978639125823975
1761381162400397800,7.684397705078125,-0.7357872128486633,-4.568813800811768,-2.638174295425415
1761381162417230300,7.701230224609375,-1.4419474601745605,-4.354705810546875,-3.448334217071533
1761381162434051000,7.718051025390625,-1.921934723854065,-1.6239852905273438,-3.8592939376831055
1761381162450879500,7.73487939453125,-1.6149749755859375,1.7079792022705078,-3.333491563796997
1761381162467709000,7.751708984375,-0.3585779070854187,3.6503779888153076,-1.7385225296020508
1761381162484524500,7.768524658203125,0.7806857824325562,3.534313678741455,0.7864890098571777
1761381162501359900,7.78535986328125,1.2105822563171387,1.9819523096084595,2.947577476501465
1761381162518172000,7.802171875,1.3390166759490967,0.6543893814086914,3.5245397090911865
1761381162535014000,7.819013916015625,1.3691017627716064,0.6927211880683899,2.9714012145996094
1761381162551840000,7.835840087890625,1.1980594396591187,1.1313223838806152,2.4436137676239014
1761381162568663600,7.85266357421875,0.870330274105072,1.242347240447998,2.3411409854888916
1761381162585491200,7.8694912109375,0.5459607839584351,1.156978726387024,2.2511911392211914
1761381162602545200,7.886545166015625,0.3576616048812866,1.0212140083312988,1.8568776845932007
1761381162619146000,7.90314599609375,0.3637702465057373,0.8344419002532959,1.1838568449020386
1761381162635971600,7.9199716796875,0.3900374472141266,0.5306891798973083,0.5528330206871033
1761381162652801000,7.936801025390625,0.3700316250324249,0.32391130924224854,0.10919216275215149
1761381162669627000,7.953626953125,0.3170390725135803,0.34086281061172485,-0.10186178237199783
1761381162686455000,7.970455078125,0.34895676374435425,0.37980547547340393,-0.1898263692855835
1761381162703279900,7.98727978515625,0.46670106053352356,0.24434609711170197,-0.24648413062095642
1761381162720102400,8.004102294921875,0.6047565937042236,-0.06062837690114975,-0.26908615231513977
1761381162736938500,8.0209384765625,0.6516404747962952,-0.31291571259498596,-0.25564709305763245
1761381162753758200,8.03775830078125,0.5584835410118103,-0.3799581825733185,-0.27458393573760986
1761381162770586000,8.054586181640625,0.3998112976551056,-0.2770273983478546,-0.3914119005203247
1761381162787411200,8.0714111328125,0.23594669997692108,-0.0910189226269722,-0.6207917928695679
1761381162804228400,8.088228271484375,0.09300423413515091,0.16890424489974976,-0.8733845949172974
1761381162821055000,8.105054931640625,-0.10155634582042694,0.22617286443710327,-1.0134254693984985
1761381162837893400,8.121893310546875,-0.3341432809829712,-0.2347249686717987,-0.9014843702316284
1761381162854711800,8.1387119140625,-0.49877145886421204,-0.8017606139183044,-0.6774495840072632
1761381162867337500,8.15133740234375,-0.45952337980270386,-1.0251846313476562,-0.5351179838180542
1761381162884164600,8.16816455078125,-0.2889392673969269,-0.9344711303710938,-0.4712825417518616
1761381162900994600,8.18499462890625,-0.13637566566467285,-0.8585711121559143,-0.35094207525253296
1761381162917819600,8.201819580078125,-0.21349740028381348,-1.1039862632751465,0.024892758578062057
1761381162934644700,8.218644775390626,-0.3920227587223053,-1.856266736984253,0.44944411516189575
1761381162951470300,8.23547021484375,-0.36651915311813354,-2.2956316471099854,0.5551238059997559
1761381162968298000,8.252298095703125,-0.052381694316864014,-1.7638733386993408,0.1238529309630394
1761381162985126700,8.269126708984375,0.2165517359972,-1.0836749076843262,-0.8414669036865234
1761381163001950500,8.285950439453124,0.3168863356113434,-1.4253013134002686,-1.5555683374404907
1761381163018780200,8.3027802734375,-0.12064588814973831,-3.7006216049194336,-1.2304353713989258
1761381163035604500,8.3196044921875,-0.9094256162643433,-3.7760634422302246,-0.1440114825963974
1761381163052433000,8.336432861328126,-1.2217304706573486,-1.4072808027267456,-0.827111542224884
1761381163069256200,8.353256103515625,-0.7513642311096191,1.2165381908416748,-2.87503719329834
1761381163086081300,8.370081298828126,-0.760832667350769,2.6247353553771973,-3.4261903762817383
1761381163102910500,8.386910400390626,-0.3776674270629883,2.647031784057617,-2.023491144180298
1761381163119735800,8.40373583984375,0.49556443095207214,1.531439185142517,-0.34116822481155396
1761381163136564700,8.420564697265625,0.9352346658706665,-0.06230825558304787,0.850171685218811
1761381163153389000,8.43738916015625,0.9370672702789307,-0.9535606503486633,1.5596916675567627
1761381163170206500,8.45420654296875,0.5813909769058228,-0.5659666657447815,1.6566665172576904
1761381163187042000,8.4710419921875,0.13209961354732513,0.6325509548187256,1.0917688608169556
1761381163203870000,8.487869873046876,-0.32009339332580566,1.6417003870010376,0.5308418869972229
1761381163220694500,8.504694580078125,-0.7345654368400574,1.8635971546173096,0.3776674270629883
1761381163237523200,8.521523193359375,-0.931569516658783,1.849241852760315,0.4922046661376953
1761381163254344700,8.5383447265625,-0.9427177906036377,1.5126550197601318,0.5729916095733643
1761381163271179300,8.55517919921875,-0.8623890280723572,1.0868819952011108,0.45142942667007446
1761381163288004400,8.57200439453125,-0.7965682744979858,0.6209444999694824,0.16325373947620392
1761381163304830700,8.588830810546876,-0.7631233930587769,0.19089539349079132,-0.152105450630188
1761381163321651000,8.60565087890625,-0.7235698699951172,-0.05421429127454758,-0.4225660264492035
1761381163338485800,8.62248583984375,-0.6829473376274109,-0.03848451003432274,-0.5326744914054871
1761381163355309600,8.6393095703125,-0.6632469296455383,0.33536502718925476,-0.39996400475502014
1761381163372136700,8.65613671875,-0.5487096905708313,0.7383833527565002,-0.005803219974040985
1761381163388962300,8.67296240234375,-0.3962988257408142,0.8872817754745483,0.4248567819595337
1761381163405777200,8.689777099609374,-0.18631389737129211,0.5908594131469727,0.6829473376274109
1761381163431027500,8.71502734375,0.18157969415187836,-0.18539759516716003,0.7246388792991638
1761381163447855900,8.73185595703125,0.280539870262146,-0.3744603991508484,0.6233879923820496
1761381163464686300,8.748686279296875,0.280539870262146,-0.32940909266471863,0.5201517343521118
1761381163481504000,8.76550390625,0.1589776873588562,-0.29184088110923767,0.4008803069591522
1761381163498338000,8.782338134765626,-0.009773843921720982,-0.42531493306159973,0.2474004179239273
1761381163515162000,8.799162109375,-0.17287486791610718,-0.5406157374382019,0.04138612002134323
1761381163531988700,8.81598876953125,-0.2588541507720947,-0.49785518646240234,-0.16508632898330688
1761381163548814600,8.832814697265626,-0.30802878737449646,-0.34437528252601624,-0.3381139039993286
1761381163565628700,8.849628662109374,-0.33887749910354614,-0.17547103762626648,-0.4818199574947357
1761381163582466800,8.866466796875,-0.3113885521888733,0.08032877743244171,-0.5438227653503418
1761381163599292400,8.88329248046875,-0.22800545394420624,0.313373863697052,-0.4999932050704956
1761381163616123000,8.900122802734375,-0.11942415684461594,0.47937649488449097,-0.3553708493709564
1761381163632946700,8.91694677734375,0.01542434748262167,0.6307183504104614,-0.22617286443710327
1761381163649774800,8.93377490234375,0.14538592100143433,0.5099197626113892,-0.15653422474861145
1761381163666610700,8.950610595703125,0.4082106947898865,-0.1765400618314743,-0.08124507963657379
1761381163683426300,8.96742626953125,0.5592471361160278,-1.4454598426818848,0.028099801391363144
1761381163700250000,8.98425,-0.10216721147298813,-2.7508788108825684,-0.11942415684461594
1761381163717083100,9.001083251953125,-1.2909109592437744,-2.5027148723602295,-0.7475463151931763
1761381163733906200,9.01790625,-1.4975361824035645,-0.5302310585975647,-1.7525724172592163
1761381163750721800,9.0347216796875,-0.993725061416626,1.4408783912658691,-2.459648847579956
1761381163767539000,9.0515390625,-0.5619960427284241,2.585334539413452,-1.9312504529953003
1761381163784385300,9.06838525390625,0.19013181328773499,2.512183427810669,-0.4668537676334381
1761381163801211600,9.085211669921875,1.1670581102371216,1.5809192657470703,0.9825767278671265
1761381163818039600,9.10203955078125,1.8002198934555054,0.26190847158432007,2.1178698539733887
1761381163834868700,9.11886865234375,1.8848247528076172,-0.7287622094154358,2.6720774173736572
1761381163851690000,9.13568994140625,1.404226541519165,-0.8843801617622375,2.475989580154419
1761381163868519700,9.152519775390624,0.660192608833313,-0.5345070958137512,1.7172949314117432
1761381163885350400,9.169350341796875,0.06368270516395569,0.02367102913558483,0.7849618196487427
1761381163902167000,9.1861669921875,-0.1866193264722824,0.5480988621711731,0.16814066469669342
1761381163919002400,9.20300244140625,-0.19058994948863983,0.7916813492774963,0.03481931984424591
1761381163935825400,9.219825439453125,-0.07757988572120667,0.8370380997657776,0.32849279046058655
1761381163952647000,9.23664697265625,-0.04077525436878204,0.6762278079986572,0.8636107444763184
1761381163969483500,9.2534833984375,-0.1411098688840866,0.32131510972976685,1.2924381494522095
1761381163986305800,9.270305908203126,-0.2509129047393799,0.1160643994808197,1.3703234195709229
1761381164003130400,9.28713037109375,-0.31261029839515686,0.09392052888870239,1.0238101482391357
1761381164019957200,9.303957275390625,-0.31780263781547546,0.1336267739534378,0.6340781450271606
1761381164036789200,9.320789306640625,-0.28619036078453064,0.19257527589797974,0.47342056035995483
1761381164053610000,9.33760986328125,-0.21365012228488922,0.2096794992685318,0.44257187843322754
1761381164070432300,9.354432373046874,-0.17592918872833252,0.2588541507720947,0.44089198112487793
1761381164087264300,9.37126416015625,-0.19043724238872528,0.22968533635139465,0.44165557622909546
1761381164104087000,9.388087158203126,-0.21334469318389893,0.19975294172763824,0.4158465266227722
1761381164120920300,9.40492041015625,-0.2116648107767105,0.12538009881973267,0.32879820466041565
1761381164137730300,9.421730224609375,-0.1618792861700058,0.076052725315094,0.21135938167572021
1761381164154578200,9.438578125,-0.15683965384960175,-0.024892758578062057,0.07467827945947647
1761381164171395000,9.45539501953125,-0.2292271852493286,-0.07635815441608429,-0.07238753139972687
1761381164188224000,9.47222412109375,-0.37110063433647156,-0.13576480746269226,-0.15745051205158234
1761381164205051100,9.489051025390625,-0.4384485185146332,-0.1837177276611328,-0.20845776796340942
1761381164221875500,9.50587548828125,-0.42302417755126953,-0.1411098688840866,-0.389426589012146
1761381164238704600,9.52270458984375,-0.37079519033432007,-0.17501288652420044,-0.7793113589286804
1761381164255530800,9.53953076171875,-0.41462478041648865,-0.5865833759307861,-1.0577131509780884
1761381164272355600,9.55635546875,-0.48915034532546997,-1.042441487312317,-1.4495831727981567
1761381164289181700,9.573181640625,-0.5390886068344116,-1.462716817855835,-2.217135429382324
1761381164305994800,9.589994873046875,-0.4697553813457489,-1.8457293510437012,-3.1335859298706055
1761381164322839000,9.606839111328124,-0.7228062748908997,-1.6762142181396484,-3.509268045425415
1761381164339660800,9.623660888671875,-1.541213035583496,-1.1204795837402344,-3.0387492179870605
1761381164356477700,9.640477783203124,-2.021353006362915,-0.043676864355802536,-2.4326181411743164
1761381164373316000,9.657316162109375,-1.4995214939117432,0.8936958312988281,-2.909092903137207
1761381164390142700,9.674142822265624,-1.1902709007263184,1.0778716802597046,-3.952603578567505
1761381164406967800,9.6909677734375,-1.0708467960357666,1.6566665172576904,-4.229020118713379
1761381164423794400,9.70779443359375,-1.0528262853622437,2.052201747894287,-3.2905783653259277
1761381164440619500,9.72461962890625,-1.2018773555755615,1.1693488359451294,-1.7466164827346802
1761381164457448000,9.741447998046874,-0.9610437750816345,-0.6363688707351685,0.15577064454555511
1761381164474272800,9.758272705078125,-1.038318157196045,-2.216830015182495,1.6120734214782715
1761381164491100400,9.775100341796875,-1.3771957159042358,-2.499049663543701,2.161393880844116
1761381164507927600,9.791927490234375,-1.6319265365600586,-1.554804801940918,2.028988838195801
1761381164524769500,9.80876953125,-1.690264105796814,-0.7189884185791016,1.3759739398956299
1761381164541575700,9.82557568359375,-1.7159204483032227,-0.6467535495758057,0.7000515460968018
1761381164558410500,9.842410400390625,-1.4550809860229492,-0.5803219676017761,0.25992316007614136
1761381164575233500,9.859233642578126,-0.6630942225456238,-0.2577851414680481,0.2217440903186798
1761381164592051700,9.8760517578125,-0.05604688450694084,0.2122756689786911,0.5161811113357544
1761381164608886000,9.892885986328125,-0.04444044828414917,0.36071592569351196,1.0265589952468872
1761381164625701000,9.909701171875,-0.3419318199157715,0.3341432809829712,1.6256651878356934
1761381164642538800,9.926538818359376,-0.503047525882721,0.304210901260376,2.1349740028381348
1761381164659345000,9.943344970703125,-0.3344487249851227,0.4150829315185547,2.25791072845459
1761381164676192500,9.960192626953125,-0.09315694868564606,0.6737843751907349,2.0114264488220215
1761381164693020000,9.97702001953125,0.004123340360820293,0.9812023043632507,1.5170838832855225
1761381164709844000,9.993843994140626,0.001832595793530345,1.1436924934387207,1.239598274230957
1761381164726674400,10.01067431640625,0.11728613078594208,0.8788823485374451,1.2777774333953857
1761381164743499500,10.02749951171875,0.21807889640331268,0.888350784778595,1.2397509813308716
1761381164760327200,10.0443271484375,0.15286903083324432,1.292285442352295,0.9967793822288513
1761381164777151000,10.06115087890625,0.08155050873756409,1.4274393320083618,0.8083274364471436
1761381164793980200,10.077980224609375,0.14844025671482086,1.3041973114013672,0.6614143252372742
1761381164810805000,10.094804931640626,0.33108896017074585,1.259145975112915,0.5499314665794373
